infCons.started,infCons.stopped,resp_consent.keys,resp_consent.rt,resp_consent.duration,participant,session,Age?,Gender?,Nationality?,Highest Educational Degree?,date,expName,psychopyVersion,OS,frameRate,STUDY_ID,SESSION_ID,instructions.started,instructions.stopped,resp_instructions.keys,resp_instructions.rt,resp_instructions.duration,nextTask.started,nextTask.stopped,ready_task.keys,ready_task.rt,ready_task.duration,fixation.started,ITI,fixation.stopped,stim.started,stim.stopped,response.keys,response.corr,response.rt,response.duration,feedback.started,feedback.stopped,trials.thisRepN,trials.thisTrialN,trials.thisN,trials.thisIndex,trials.ran,task,phase,Exemplars,r_correct,condition,difficulty,set,end.started,end.stopped,resp_end.keys,resp_end.rt,resp_end.duration
0.0002,5.223,space,5.0632,0.0007,57a78015454e5400015f57ec,001,,,,,2024-02-26_15h38.39.214,CRL1e,2023.2.3,Win32,7.10732054,65dbad3905fde4fe1981dc61,65dcb066f449c4ea1954853c,,,,,,,,,,,,,,,,,,,,,,,,,,,,,,,,,,,,,,
,,,,,57a78015454e5400015f57ec,001,,,,,2024-02-26_15h38.39.214,CRL1e,2023.2.3,Win32,7.10732054,65dbad3905fde4fe1981dc61,65dcb066f449c4ea1954853c,5.2232,38.9198,space,33.5327,,,,,,,,,,,,,,,,,,,,,,,,,,,,,,,,,,
,,,,,57a78015454e5400015f57ec,001,,,,,2024-02-26_15h38.39.214,CRL1e,2023.2.3,Win32,7.10732054,65dbad3905fde4fe1981dc61,65dcb066f449c4ea1954853c,,,,,,38.923,42.3259,space,3.2662,1E-04,42.3289,1.4,43.6475,43.6476,45.9672,right,0,2.3067,,45.9674,46.9994,0,0,0,0,1,partial,1,images/Ex5.jpg,left,training,easy,2,,,,,
,,,,,57a78015454e5400015f57ec,001,,,,,2024-02-26_15h38.39.214,CRL1e,2023.2.3,Win32,7.10732054,65dbad3905fde4fe1981dc61,65dcb066f449c4ea1954853c,,,,,,,,,,,46.9999,1.2,48.1649,48.1649,52.7589,right,1,4.5925,,52.7589,53.8058,0,1,1,6,1,partial,1,images/Ex8.jpg,right,training,easy,2,,,,,
,,,,,57a78015454e5400015f57ec,001,,,,,2024-02-26_15h38.39.214,CRL1e,2023.2.3,Win32,7.10732054,65dbad3905fde4fe1981dc61,65dcb066f449c4ea1954853c,,,,,,,,,,,53.8063,0.8,54.5477,54.5478,56.8728,right,1,2.3236,,56.8728,57.7705,0,2,2,4,1,partial,1,images/Ex7.jpg,right,training,easy,2,,,,,
,,,,,57a78015454e5400015f57ec,001,,,,,2024-02-26_15h38.39.214,CRL1e,2023.2.3,Win32,7.10732054,65dbad3905fde4fe1981dc61,65dcb066f449c4ea1954853c,,,,,,,,,,,57.7708,0.6,58.3516,58.3516,59.677,left,1,1.3242,,59.677,60.5853,0,3,3,3,1,partial,1,images/Ex6.jpg,left,training,easy,2,,,,,
,,,,,57a78015454e5400015f57ec,001,,,,,2024-02-26_15h38.39.214,CRL1e,2023.2.3,Win32,7.10732054,65dbad3905fde4fe1981dc61,65dcb066f449c4ea1954853c,,,,,,,,,,,60.5856,1.4,61.955,61.955,63.1778,right,1,1.2218,,63.1778,64.0954,0,4,4,7,1,partial,1,images/Ex8.jpg,right,training,easy,2,,,,,
,,,,,57a78015454e5400015f57ec,001,,,,,2024-02-26_15h38.39.214,CRL1e,2023.2.3,Win32,7.10732054,65dbad3905fde4fe1981dc61,65dcb066f449c4ea1954853c,,,,,,,,,,,64.0957,1.5,65.6084,65.6085,66.9609,left,0,1.3513,,66.9609,67.9986,0,5,5,5,1,partial,1,images/Ex7.jpg,right,training,easy,2,,,,,
,,,,,57a78015454e5400015f57ec,001,,,,,2024-02-26_15h38.39.214,CRL1e,2023.2.3,Win32,7.10732054,65dbad3905fde4fe1981dc61,65dcb066f449c4ea1954853c,,,,,,,,,,,67.9988,1,68.9024,68.9025,70.9097,right,0,2.0062,,70.9097,71.7977,0,6,6,2,1,partial,1,images/Ex6.jpg,left,training,easy,2,,,,,
,,,,,57a78015454e5400015f57ec,001,,,,,2024-02-26_15h38.39.214,CRL1e,2023.2.3,Win32,7.10732054,65dbad3905fde4fe1981dc61,65dcb066f449c4ea1954853c,,,,,,,,,,,71.7979,0.6,72.3797,72.3798,73.714,right,0,1.3332,,73.714,74.7497,0,7,7,1,1,partial,1,images/Ex5.jpg,left,training,easy,2,,,,,
,,,,,57a78015454e5400015f57ec,001,,,,,2024-02-26_15h38.39.214,CRL1e,2023.2.3,Win32,7.10732054,65dbad3905fde4fe1981dc61,65dcb066f449c4ea1954853c,,,,,,,,,,,74.7501,1,75.7722,75.7722,77.4343,left,1,1.6612,,77.4343,78.3256,1,0,8,2,1,partial,1,images/Ex6.jpg,left,training,easy,2,,,,,
,,,,,57a78015454e5400015f57ec,001,,,,,2024-02-26_15h38.39.214,CRL1e,2023.2.3,Win32,7.10732054,65dbad3905fde4fe1981dc61,65dcb066f449c4ea1954853c,,,,,,,,,,,78.3258,0.6,78.9078,78.9078,80.2602,right,1,1.3514,,80.2603,81.1574,1,1,9,5,1,partial,1,images/Ex7.jpg,right,training,easy,2,,,,,
,,,,,57a78015454e5400015f57ec,001,,,,,2024-02-26_15h38.39.214,CRL1e,2023.2.3,Win32,7.10732054,65dbad3905fde4fe1981dc61,65dcb066f449c4ea1954853c,,,,,,,,,,,81.1576,1,82.0471,82.0472,83.5591,left,0,1.511,,83.5592,84.4581,1,2,10,7,1,partial,1,images/Ex8.jpg,right,training,easy,2,,,,,
,,,,,57a78015454e5400015f57ec,001,,,,,2024-02-26_15h38.39.214,CRL1e,2023.2.3,Win32,7.10732054,65dbad3905fde4fe1981dc61,65dcb066f449c4ea1954853c,,,,,,,,,,,84.4584,0.7,85.0544,85.0544,86.5723,left,0,1.5172,,86.5724,87.4801,1,3,11,6,1,partial,1,images/Ex8.jpg,right,training,easy,2,,,,,
,,,,,57a78015454e5400015f57ec,001,,,,,2024-02-26_15h38.39.214,CRL1e,2023.2.3,Win32,7.10732054,65dbad3905fde4fe1981dc61,65dcb066f449c4ea1954853c,,,,,,,,,,,87.4873,0.6,88.0669,88.0669,89.237,right,1,1.1691,,89.237,90.1247,1,4,12,4,1,partial,1,images/Ex7.jpg,right,training,easy,2,,,,,
,,,,,57a78015454e5400015f57ec,001,,,,,2024-02-26_15h38.39.214,CRL1e,2023.2.3,Win32,7.10732054,65dbad3905fde4fe1981dc61,65dcb066f449c4ea1954853c,,,,,,,,,,,90.1249,1.2,91.2866,91.2866,92.6332,left,1,1.3454,,92.6332,93.5351,1,5,13,0,1,partial,1,images/Ex5.jpg,left,training,easy,2,,,,,
,,,,,57a78015454e5400015f57ec,001,,,,,2024-02-26_15h38.39.214,CRL1e,2023.2.3,Win32,7.10732054,65dbad3905fde4fe1981dc61,65dcb066f449c4ea1954853c,,,,,,,,,,,93.5355,0.9,94.4237,94.4237,95.4448,left,1,1.02,,95.4448,96.347,1,6,14,3,1,partial,1,images/Ex6.jpg,left,training,easy,2,,,,,
,,,,,57a78015454e5400015f57ec,001,,,,,2024-02-26_15h38.39.214,CRL1e,2023.2.3,Win32,7.10732054,65dbad3905fde4fe1981dc61,65dcb066f449c4ea1954853c,,,,,,,,,,,96.3472,0.9,97.2218,97.2218,98.8979,right,0,1.6753,,98.8979,99.9313,1,7,15,1,1,partial,1,images/Ex5.jpg,left,training,easy,2,,,,,
,,,,,57a78015454e5400015f57ec,001,,,,,2024-02-26_15h38.39.214,CRL1e,2023.2.3,Win32,7.10732054,65dbad3905fde4fe1981dc61,65dcb066f449c4ea1954853c,,,,,,,,,,,99.9316,0.8,100.6555,100.6556,102.1373,left,1,1.4807,,102.1373,103.0383,2,0,16,2,1,partial,1,images/Ex6.jpg,left,training,easy,2,,,,,
,,,,,57a78015454e5400015f57ec,001,,,,,2024-02-26_15h38.39.214,CRL1e,2023.2.3,Win32,7.10732054,65dbad3905fde4fe1981dc61,65dcb066f449c4ea1954853c,,,,,,,,,,,103.0456,1.1,104.0714,104.0714,105.0655,left,1,0.9932,,105.0655,105.9605,2,1,17,1,1,partial,1,images/Ex5.jpg,left,training,easy,2,,,,,
,,,,,57a78015454e5400015f57ec,001,,,,,2024-02-26_15h38.39.214,CRL1e,2023.2.3,Win32,7.10732054,65dbad3905fde4fe1981dc61,65dcb066f449c4ea1954853c,,,,,,,,,,,105.9607,1.4,107.2745,107.2746,109.1233,right,1,1.8478,,109.1233,110.0198,2,2,18,5,1,partial,1,images/Ex7.jpg,right,training,easy,2,,,,,
,,,,,57a78015454e5400015f57ec,001,,,,,2024-02-26_15h38.39.214,CRL1e,2023.2.3,Win32,7.10732054,65dbad3905fde4fe1981dc61,65dcb066f449c4ea1954853c,,,,,,,,,,,110.0268,1.1,111.0482,111.0482,112.3822,right,1,1.3334,,112.3823,113.4212,2,3,19,4,1,partial,1,images/Ex7.jpg,right,training,easy,2,,,,,
,,,,,57a78015454e5400015f57ec,001,,,,,2024-02-26_15h38.39.214,CRL1e,2023.2.3,Win32,7.10732054,65dbad3905fde4fe1981dc61,65dcb066f449c4ea1954853c,,,,,,,,,,,113.4216,0.6,114.0208,114.0208,115.2084,left,1,1.1869,,115.2084,116.115,2,4,20,3,1,partial,1,images/Ex6.jpg,left,training,easy,2,,,,,
,,,,,57a78015454e5400015f57ec,001,,,,,2024-02-26_15h38.39.214,CRL1e,2023.2.3,Win32,7.10732054,65dbad3905fde4fe1981dc61,65dcb066f449c4ea1954853c,,,,,,,,,,,116.1153,0.9,116.9884,116.9884,118.3166,left,0,1.3272,,118.3167,119.3558,2,5,21,7,1,partial,1,images/Ex8.jpg,right,training,easy,2,,,,,
,,,,,57a78015454e5400015f57ec,001,,,,,2024-02-26_15h38.39.214,CRL1e,2023.2.3,Win32,7.10732054,65dbad3905fde4fe1981dc61,65dcb066f449c4ea1954853c,,,,,,,,,,,119.3564,1.2,120.5377,120.5377,121.5659,left,1,1.0271,,121.566,122.5007,2,6,22,0,1,partial,1,images/Ex5.jpg,left,training,easy,2,,,,,
,,,,,57a78015454e5400015f57ec,001,,,,,2024-02-26_15h38.39.214,CRL1e,2023.2.3,Win32,7.10732054,65dbad3905fde4fe1981dc61,65dcb066f449c4ea1954853c,,,,,,,,,,,122.501,0.8,123.2607,123.2609,124.2832,right,1,1.0214,,124.2832,125.2299,2,7,23,6,1,partial,1,images/Ex8.jpg,right,training,easy,2,,,,,
,,,,,57a78015454e5400015f57ec,001,,,,,2024-02-26_15h38.39.214,CRL1e,2023.2.3,Win32,7.10732054,65dbad3905fde4fe1981dc61,65dcb066f449c4ea1954853c,,,,,,,,,,,125.2302,1.5,126.6952,126.6953,127.6988,left,0,1.0029,,127.6988,128.5985,3,0,24,6,1,partial,1,images/Ex8.jpg,right,training,easy,2,,,,,
,,,,,57a78015454e5400015f57ec,001,,,,,2024-02-26_15h38.39.214,CRL1e,2023.2.3,Win32,7.10732054,65dbad3905fde4fe1981dc61,65dcb066f449c4ea1954853c,,,,,,,,,,,128.5987,1.1,129.6174,129.6174,130.4674,left,1,0.849,,130.4675,131.3829,3,1,25,3,1,partial,1,images/Ex6.jpg,left,training,easy,2,,,,,
,,,,,57a78015454e5400015f57ec,001,,,,,2024-02-26_15h38.39.214,CRL1e,2023.2.3,Win32,7.10732054,65dbad3905fde4fe1981dc61,65dcb066f449c4ea1954853c,,,,,,,,,,,131.3832,1.1,132.3948,132.3948,133.3806,right,0,0.9851,,133.3806,134.2643,3,2,26,2,1,partial,1,images/Ex6.jpg,left,training,easy,2,,,,,
,,,,,57a78015454e5400015f57ec,001,,,,,2024-02-26_15h38.39.214,CRL1e,2023.2.3,Win32,7.10732054,65dbad3905fde4fe1981dc61,65dcb066f449c4ea1954853c,,,,,,,,,,,134.2645,0.9,135.152,135.1521,136.6644,right,0,1.5114,,136.6645,137.555,3,3,27,0,1,partial,1,images/Ex5.jpg,left,training,easy,2,,,,,
,,,,,57a78015454e5400015f57ec,001,,,,,2024-02-26_15h38.39.214,CRL1e,2023.2.3,Win32,7.10732054,65dbad3905fde4fe1981dc61,65dcb066f449c4ea1954853c,,,,,,,,,,,137.5553,0.7,138.1488,138.1488,139.1636,left,1,1.014,,139.1636,140.0585,3,4,28,1,1,partial,1,images/Ex5.jpg,left,training,easy,2,,,,,
,,,,,57a78015454e5400015f57ec,001,,,,,2024-02-26_15h38.39.214,CRL1e,2023.2.3,Win32,7.10732054,65dbad3905fde4fe1981dc61,65dcb066f449c4ea1954853c,,,,,,,,,,,140.0587,1,141.0803,141.0804,142.4079,right,1,1.3265,,142.4079,143.3143,3,5,29,5,1,partial,1,images/Ex7.jpg,right,training,easy,2,,,,,
,,,,,57a78015454e5400015f57ec,001,,,,,2024-02-26_15h38.39.214,CRL1e,2023.2.3,Win32,7.10732054,65dbad3905fde4fe1981dc61,65dcb066f449c4ea1954853c,,,,,,,,,,,143.3145,0.6,143.8973,143.8974,145.396,right,1,1.498,,145.396,146.299,3,6,30,4,1,partial,1,images/Ex7.jpg,right,training,easy,2,,,,,
,,,,,57a78015454e5400015f57ec,001,,,,,2024-02-26_15h38.39.214,CRL1e,2023.2.3,Win32,7.10732054,65dbad3905fde4fe1981dc61,65dcb066f449c4ea1954853c,,,,,,,,,,,146.2992,1,147.1944,147.1944,148.3543,left,0,1.1589,,148.3544,149.2532,3,7,31,7,1,partial,1,images/Ex8.jpg,right,training,easy,2,,,,,
,,,,,57a78015454e5400015f57ec,001,,,,,2024-02-26_15h38.39.214,CRL1e,2023.2.3,Win32,7.10732054,65dbad3905fde4fe1981dc61,65dcb066f449c4ea1954853c,,,,,,,,,,,149.2535,0.6,149.8394,149.8394,151.3671,right,1,1.5266,,151.3672,152.4049,4,0,32,7,1,partial,1,images/Ex8.jpg,right,training,easy,2,,,,,
,,,,,57a78015454e5400015f57ec,001,,,,,2024-02-26_15h38.39.214,CRL1e,2023.2.3,Win32,7.10732054,65dbad3905fde4fe1981dc61,65dcb066f449c4ea1954853c,,,,,,,,,,,152.4052,0.6,152.9934,152.9934,153.9862,left,0,0.9916,,153.9862,155.0285,4,1,33,5,1,partial,1,images/Ex7.jpg,right,training,easy,2,,,,,
,,,,,57a78015454e5400015f57ec,001,,,,,2024-02-26_15h38.39.214,CRL1e,2023.2.3,Win32,7.10732054,65dbad3905fde4fe1981dc61,65dcb066f449c4ea1954853c,,,,,,,,,,,155.0289,1.2,156.1996,156.1996,157.3557,right,0,1.1552,,157.3557,158.3893,4,2,34,2,1,partial,1,images/Ex6.jpg,left,training,easy,2,,,,,
,,,,,57a78015454e5400015f57ec,001,,,,,2024-02-26_15h38.39.214,CRL1e,2023.2.3,Win32,7.10732054,65dbad3905fde4fe1981dc61,65dcb066f449c4ea1954853c,,,,,,,,,,,158.3895,1.3,159.7194,159.7194,161.0535,right,1,1.3333,,161.0536,162.0931,4,3,35,4,1,partial,1,images/Ex7.jpg,right,training,easy,2,,,,,
,,,,,57a78015454e5400015f57ec,001,,,,,2024-02-26_15h38.39.214,CRL1e,2023.2.3,Win32,7.10732054,65dbad3905fde4fe1981dc61,65dcb066f449c4ea1954853c,,,,,,,,,,,162.1013,1,163.121,163.121,164.4574,left,1,1.3355,,164.4575,165.3536,4,4,36,3,1,partial,1,images/Ex6.jpg,left,training,easy,2,,,,,
,,,,,57a78015454e5400015f57ec,001,,,,,2024-02-26_15h38.39.214,CRL1e,2023.2.3,Win32,7.10732054,65dbad3905fde4fe1981dc61,65dcb066f449c4ea1954853c,,,,,,,,,,,165.3539,1,166.3873,166.3873,167.5646,left,0,1.1765,,167.5646,168.5955,4,5,37,6,1,partial,1,images/Ex8.jpg,right,training,easy,2,,,,,
,,,,,57a78015454e5400015f57ec,001,,,,,2024-02-26_15h38.39.214,CRL1e,2023.2.3,Win32,7.10732054,65dbad3905fde4fe1981dc61,65dcb066f449c4ea1954853c,,,,,,,,,,,168.5958,1.3,169.9245,169.9245,171.2728,right,0,1.3474,,171.2729,172.1778,4,6,38,0,1,partial,1,images/Ex5.jpg,left,training,easy,2,,,,,
,,,,,57a78015454e5400015f57ec,001,,,,,2024-02-26_15h38.39.214,CRL1e,2023.2.3,Win32,7.10732054,65dbad3905fde4fe1981dc61,65dcb066f449c4ea1954853c,,,,,,,,,,,172.1781,0.7,172.764,172.764,174.2579,left,1,1.4933,,174.2579,175.1692,4,7,39,1,1,partial,1,images/Ex5.jpg,left,training,easy,2,,,,,
,,,,,57a78015454e5400015f57ec,001,,,,,2024-02-26_15h38.39.214,CRL1e,2023.2.3,Win32,7.10732054,65dbad3905fde4fe1981dc61,65dcb066f449c4ea1954853c,,,,,,,,,,,175.1694,0.5,175.6052,175.6053,176.6041,left,1,0.9977,,176.6041,177.4985,5,0,40,1,1,partial,1,images/Ex5.jpg,left,training,easy,2,,,,,
,,,,,57a78015454e5400015f57ec,001,,,,,2024-02-26_15h38.39.214,CRL1e,2023.2.3,Win32,7.10732054,65dbad3905fde4fe1981dc61,65dcb066f449c4ea1954853c,,,,,,,,,,,177.4988,0.6,178.0804,178.0804,179.0686,left,1,0.9874,,179.0686,179.9538,5,1,41,0,1,partial,1,images/Ex5.jpg,left,training,easy,2,,,,,
,,,,,57a78015454e5400015f57ec,001,,,,,2024-02-26_15h38.39.214,CRL1e,2023.2.3,Win32,7.10732054,65dbad3905fde4fe1981dc61,65dcb066f449c4ea1954853c,,,,,,,,,,,179.9541,1.2,181.1426,181.1426,182.1608,right,1,1.0169,,182.1608,183.1104,5,2,42,5,1,partial,1,images/Ex7.jpg,right,training,easy,2,,,,,
,,,,,57a78015454e5400015f57ec,001,,,,,2024-02-26_15h38.39.214,CRL1e,2023.2.3,Win32,7.10732054,65dbad3905fde4fe1981dc61,65dcb066f449c4ea1954853c,,,,,,,,,,,183.1107,1.1,184.201,184.2011,185.2851,left,0,1.083,,185.2851,186.2046,5,3,43,7,1,partial,1,images/Ex8.jpg,right,training,easy,2,,,,,
,,,,,57a78015454e5400015f57ec,001,,,,,2024-02-26_15h38.39.214,CRL1e,2023.2.3,Win32,7.10732054,65dbad3905fde4fe1981dc61,65dcb066f449c4ea1954853c,,,,,,,,,,,186.205,0.6,186.7991,186.7991,188.2906,right,1,1.4909,,188.2906,189.2115,5,4,44,6,1,partial,1,images/Ex8.jpg,right,training,easy,2,,,,,
,,,,,57a78015454e5400015f57ec,001,,,,,2024-02-26_15h38.39.214,CRL1e,2023.2.3,Win32,7.10732054,65dbad3905fde4fe1981dc61,65dcb066f449c4ea1954853c,,,,,,,,,,,189.2118,1.4,190.55,190.5501,192.0325,right,0,1.4815,,192.0326,193.0602,5,5,45,2,1,partial,1,images/Ex6.jpg,left,training,easy,2,,,,,
,,,,,57a78015454e5400015f57ec,001,,,,,2024-02-26_15h38.39.214,CRL1e,2023.2.3,Win32,7.10732054,65dbad3905fde4fe1981dc61,65dcb066f449c4ea1954853c,,,,,,,,,,,193.0605,0.5,193.4997,193.4997,195.0114,right,1,1.5109,,195.0114,196.0504,5,6,46,4,1,partial,1,images/Ex7.jpg,right,training,easy,2,,,,,
,,,,,57a78015454e5400015f57ec,001,,,,,2024-02-26_15h38.39.214,CRL1e,2023.2.3,Win32,7.10732054,65dbad3905fde4fe1981dc61,65dcb066f449c4ea1954853c,,,,,,,,,,,196.0506,1.2,197.2228,197.2229,198.7466,left,1,1.5229,,198.7466,199.6513,5,7,47,3,1,partial,1,images/Ex6.jpg,left,training,easy,2,,,,,
,,,,,57a78015454e5400015f57ec,001,,,,,2024-02-26_15h38.39.214,CRL1e,2023.2.3,Win32,7.10732054,65dbad3905fde4fe1981dc61,65dcb066f449c4ea1954853c,,,,,,,,,,,199.6542,0.6,200.2657,200.2657,201.2739,left,0,1.0071,,201.2739,202.3027,0,0,0,7,1,partial,2,images/Ex8.jpg,right,nonreversed,easy,2,,,,,
,,,,,57a78015454e5400015f57ec,001,,,,,2024-02-26_15h38.39.214,CRL1e,2023.2.3,Win32,7.10732054,65dbad3905fde4fe1981dc61,65dcb066f449c4ea1954853c,,,,,,,,,,,202.3029,1,203.3309,203.3309,204.6792,left,1,1.3473,,204.6792,205.5966,0,1,1,3,1,partial,2,images/Ex6.jpg,left,nonreversed,easy,2,,,,,
,,,,,57a78015454e5400015f57ec,001,,,,,2024-02-26_15h38.39.214,CRL1e,2023.2.3,Win32,7.10732054,65dbad3905fde4fe1981dc61,65dcb066f449c4ea1954853c,,,,,,,,,,,205.5968,1.2,206.8031,206.8031,208.2961,right,0,1.4922,,208.2962,209.1956,0,2,2,4,1,partial,2,images/Ex7.jpg,left,reversed,easy,2,,,,,
,,,,,57a78015454e5400015f57ec,001,,,,,2024-02-26_15h38.39.214,CRL1e,2023.2.3,Win32,7.10732054,65dbad3905fde4fe1981dc61,65dcb066f449c4ea1954853c,,,,,,,,,,,209.1959,0.7,209.7985,209.7985,210.8232,right,0,1.0237,,210.8232,211.8408,0,3,3,5,1,partial,2,images/Ex7.jpg,left,reversed,easy,2,,,,,
,,,,,57a78015454e5400015f57ec,001,,,,,2024-02-26_15h38.39.214,CRL1e,2023.2.3,Win32,7.10732054,65dbad3905fde4fe1981dc61,65dcb066f449c4ea1954853c,,,,,,,,,,,211.8411,0.8,212.5689,212.5689,222.9478,right,1,10.3779,,222.9478,223.8581,0,4,4,6,1,partial,2,images/Ex8.jpg,right,nonreversed,easy,2,,,,,
,,,,,57a78015454e5400015f57ec,001,,,,,2024-02-26_15h38.39.214,CRL1e,2023.2.3,Win32,7.10732054,65dbad3905fde4fe1981dc61,65dcb066f449c4ea1954853c,,,,,,,,,,,223.8657,1,224.8848,224.8848,226.2584,right,0,1.3725,,226.2584,227.3065,0,5,5,2,1,partial,2,images/Ex6.jpg,left,nonreversed,easy,2,,,,,
,,,,,57a78015454e5400015f57ec,001,,,,,2024-02-26_15h38.39.214,CRL1e,2023.2.3,Win32,7.10732054,65dbad3905fde4fe1981dc61,65dcb066f449c4ea1954853c,,,,,,,,,,,227.3067,0.5,227.7435,227.7435,228.9226,left,0,1.1782,,228.9226,229.8252,0,6,6,0,1,partial,2,images/Ex5.jpg,right,reversed,easy,2,,,,,
,,,,,57a78015454e5400015f57ec,001,,,,,2024-02-26_15h38.39.214,CRL1e,2023.2.3,Win32,7.10732054,65dbad3905fde4fe1981dc61,65dcb066f449c4ea1954853c,,,,,,,,,,,229.8254,1.2,231.0054,231.0054,232.0058,right,1,0.9995,,232.0058,233.0338,0,7,7,1,1,partial,2,images/Ex5.jpg,right,reversed,easy,2,,,,,
,,,,,57a78015454e5400015f57ec,001,,,,,2024-02-26_15h38.39.214,CRL1e,2023.2.3,Win32,7.10732054,65dbad3905fde4fe1981dc61,65dcb066f449c4ea1954853c,,,,,,,,,,,233.0341,1,234.0446,234.0446,234.3829,right,0,0.3373,,234.3829,235.2726,1,0,8,2,1,partial,2,images/Ex6.jpg,left,nonreversed,easy,2,,,,,
,,,,,57a78015454e5400015f57ec,001,,,,,2024-02-26_15h38.39.214,CRL1e,2023.2.3,Win32,7.10732054,65dbad3905fde4fe1981dc61,65dcb066f449c4ea1954853c,,,,,,,,,,,235.2729,1.4,236.5998,236.5998,237.8155,right,1,1.2146,,237.8155,238.863,1,1,9,6,1,partial,2,images/Ex8.jpg,right,nonreversed,easy,2,,,,,
,,,,,57a78015454e5400015f57ec,001,,,,,2024-02-26_15h38.39.214,CRL1e,2023.2.3,Win32,7.10732054,65dbad3905fde4fe1981dc61,65dcb066f449c4ea1954853c,,,,,,,,,,,238.8634,0.6,239.4728,239.4729,240.6496,left,1,1.1755,,240.6497,241.5645,1,2,10,5,1,partial,2,images/Ex7.jpg,left,reversed,easy,2,,,,,
,,,,,57a78015454e5400015f57ec,001,,,,,2024-02-26_15h38.39.214,CRL1e,2023.2.3,Win32,7.10732054,65dbad3905fde4fe1981dc61,65dcb066f449c4ea1954853c,,,,,,,,,,,241.5649,1.4,242.9478,242.9479,245.6937,right,1,2.7448,,245.6938,246.5991,1,3,11,1,1,partial,2,images/Ex5.jpg,right,reversed,easy,2,,,,,
,,,,,57a78015454e5400015f57ec,001,,,,,2024-02-26_15h38.39.214,CRL1e,2023.2.3,Win32,7.10732054,65dbad3905fde4fe1981dc61,65dcb066f449c4ea1954853c,,,,,,,,,,,246.6061,1,247.6322,247.6323,248.7916,left,1,1.1585,,248.7916,249.6942,1,4,12,3,1,partial,2,images/Ex6.jpg,left,nonreversed,easy,2,,,,,
,,,,,57a78015454e5400015f57ec,001,,,,,2024-02-26_15h38.39.214,CRL1e,2023.2.3,Win32,7.10732054,65dbad3905fde4fe1981dc61,65dcb066f449c4ea1954853c,,,,,,,,,,,249.6946,1.3,250.8931,250.8932,252.0472,right,1,1.1532,,252.0472,253.0771,1,5,13,7,1,partial,2,images/Ex8.jpg,right,nonreversed,easy,2,,,,,
,,,,,57a78015454e5400015f57ec,001,,,,,2024-02-26_15h38.39.214,CRL1e,2023.2.3,Win32,7.10732054,65dbad3905fde4fe1981dc61,65dcb066f449c4ea1954853c,,,,,,,,,,,253.0773,1.2,254.2542,254.2542,255.0815,right,1,0.8263,,255.0815,255.9845,1,6,14,0,1,partial,2,images/Ex5.jpg,right,reversed,easy,2,,,,,
,,,,,57a78015454e5400015f57ec,001,,,,,2024-02-26_15h38.39.214,CRL1e,2023.2.3,Win32,7.10732054,65dbad3905fde4fe1981dc61,65dcb066f449c4ea1954853c,,,,,,,,,,,255.9847,0.6,256.5833,256.5833,257.7383,left,1,1.1542,,257.7383,258.6506,1,7,15,4,1,partial,2,images/Ex7.jpg,left,reversed,easy,2,,,,,
,,,,,57a78015454e5400015f57ec,001,,,,,2024-02-26_15h38.39.214,CRL1e,2023.2.3,Win32,7.10732054,65dbad3905fde4fe1981dc61,65dcb066f449c4ea1954853c,,,,,,,,,,,258.651,0.8,259.4051,259.4051,260.233,left,1,0.8271,,260.233,261.2645,2,0,16,5,1,partial,2,images/Ex7.jpg,left,reversed,easy,2,,,,,
,,,,,57a78015454e5400015f57ec,001,,,,,2024-02-26_15h38.39.214,CRL1e,2023.2.3,Win32,7.10732054,65dbad3905fde4fe1981dc61,65dcb066f449c4ea1954853c,,,,,,,,,,,261.2647,1.4,262.5905,262.5905,263.4157,right,1,0.8241,,263.4157,264.3025,2,1,17,1,1,partial,2,images/Ex5.jpg,right,reversed,easy,2,,,,,
,,,,,57a78015454e5400015f57ec,001,,,,,2024-02-26_15h38.39.214,CRL1e,2023.2.3,Win32,7.10732054,65dbad3905fde4fe1981dc61,65dcb066f449c4ea1954853c,,,,,,,,,,,264.3028,1.2,265.4681,265.4682,267.9593,left,1,2.4903,,267.9594,268.8432,2,2,18,2,1,partial,2,images/Ex6.jpg,left,nonreversed,easy,2,,,,,
,,,,,57a78015454e5400015f57ec,001,,,,,2024-02-26_15h38.39.214,CRL1e,2023.2.3,Win32,7.10732054,65dbad3905fde4fe1981dc61,65dcb066f449c4ea1954853c,,,,,,,,,,,268.8503,0.6,269.4334,269.4334,270.4136,left,1,0.9794,,270.4137,271.318,2,3,19,3,1,partial,2,images/Ex6.jpg,left,nonreversed,easy,2,,,,,
,,,,,57a78015454e5400015f57ec,001,,,,,2024-02-26_15h38.39.214,CRL1e,2023.2.3,Win32,7.10732054,65dbad3905fde4fe1981dc61,65dcb066f449c4ea1954853c,,,,,,,,,,,271.3182,0.7,272.042,272.0421,273.3806,right,0,1.3378,,273.3807,274.4157,2,4,20,4,1,partial,2,images/Ex7.jpg,left,reversed,easy,2,,,,,
,,,,,57a78015454e5400015f57ec,001,,,,,2024-02-26_15h38.39.214,CRL1e,2023.2.3,Win32,7.10732054,65dbad3905fde4fe1981dc61,65dcb066f449c4ea1954853c,,,,,,,,,,,274.416,1.1,275.4474,275.4474,276.9745,left,0,1.5261,,276.9745,277.8763,2,5,21,7,1,partial,2,images/Ex8.jpg,right,nonreversed,easy,2,,,,,
,,,,,57a78015454e5400015f57ec,001,,,,,2024-02-26_15h38.39.214,CRL1e,2023.2.3,Win32,7.10732054,65dbad3905fde4fe1981dc61,65dcb066f449c4ea1954853c,,,,,,,,,,,277.8767,1.4,279.1896,279.1896,280.523,right,1,1.3325,,280.523,281.4066,2,6,22,0,1,partial,2,images/Ex5.jpg,right,reversed,easy,2,,,,,
,,,,,57a78015454e5400015f57ec,001,,,,,2024-02-26_15h38.39.214,CRL1e,2023.2.3,Win32,7.10732054,65dbad3905fde4fe1981dc61,65dcb066f449c4ea1954853c,,,,,,,,,,,281.4069,1.5,282.8746,282.8746,284.0794,left,0,1.2039,,284.0796,284.9893,2,7,23,6,1,partial,2,images/Ex8.jpg,right,nonreversed,easy,2,,,,,
,,,,,57a78015454e5400015f57ec,001,,,,,2024-02-26_15h38.39.214,CRL1e,2023.2.3,Win32,7.10732054,65dbad3905fde4fe1981dc61,65dcb066f449c4ea1954853c,,,,,,,,,,,284.9897,1.3,286.3255,286.3255,287.362,right,0,1.0352,,287.362,288.2648,3,0,24,4,1,partial,2,images/Ex7.jpg,left,reversed,easy,2,,,,,
,,,,,57a78015454e5400015f57ec,001,,,,,2024-02-26_15h38.39.214,CRL1e,2023.2.3,Win32,7.10732054,65dbad3905fde4fe1981dc61,65dcb066f449c4ea1954853c,,,,,,,,,,,288.2652,0.8,289.0183,289.0184,290.7338,right,1,1.7143,,290.7339,291.645,3,1,25,0,1,partial,2,images/Ex5.jpg,right,reversed,easy,2,,,,,
,,,,,57a78015454e5400015f57ec,001,,,,,2024-02-26_15h38.39.214,CRL1e,2023.2.3,Win32,7.10732054,65dbad3905fde4fe1981dc61,65dcb066f449c4ea1954853c,,,,,,,,,,,291.6454,0.8,292.4157,292.4157,293.2741,left,1,0.8575,,293.2742,294.2179,3,2,26,5,1,partial,2,images/Ex7.jpg,left,reversed,easy,2,,,,,
,,,,,57a78015454e5400015f57ec,001,,,,,2024-02-26_15h38.39.214,CRL1e,2023.2.3,Win32,7.10732054,65dbad3905fde4fe1981dc61,65dcb066f449c4ea1954853c,,,,,,,,,,,294.2181,0.8,294.985,294.9851,296.9702,right,1,1.9843,,296.9702,297.8778,3,3,27,1,1,partial,2,images/Ex5.jpg,right,reversed,easy,2,,,,,
,,,,,57a78015454e5400015f57ec,001,,,,,2024-02-26_15h38.39.214,CRL1e,2023.2.3,Win32,7.10732054,65dbad3905fde4fe1981dc61,65dcb066f449c4ea1954853c,,,,,,,,,,,297.885,1,298.8966,298.8966,300.4047,right,0,1.507,,300.4047,301.3055,3,4,28,2,1,partial,2,images/Ex6.jpg,left,nonreversed,easy,2,,,,,
,,,,,57a78015454e5400015f57ec,001,,,,,2024-02-26_15h38.39.214,CRL1e,2023.2.3,Win32,7.10732054,65dbad3905fde4fe1981dc61,65dcb066f449c4ea1954853c,,,,,,,,,,,301.3059,1.1,302.3459,302.3459,303.7403,left,1,1.3934,,303.7403,304.6743,3,5,29,3,1,partial,2,images/Ex6.jpg,left,nonreversed,easy,2,,,,,
,,,,,57a78015454e5400015f57ec,001,,,,,2024-02-26_15h38.39.214,CRL1e,2023.2.3,Win32,7.10732054,65dbad3905fde4fe1981dc61,65dcb066f449c4ea1954853c,,,,,,,,,,,304.6746,0.8,305.4156,305.4157,306.7666,left,0,1.3499,,306.7667,307.6641,3,6,30,7,1,partial,2,images/Ex8.jpg,right,nonreversed,easy,2,,,,,
,,,,,57a78015454e5400015f57ec,001,,,,,2024-02-26_15h38.39.214,CRL1e,2023.2.3,Win32,7.10732054,65dbad3905fde4fe1981dc61,65dcb066f449c4ea1954853c,,,,,,,,,,,307.6644,0.6,308.2469,308.247,309.4233,left,0,1.1756,,309.4233,310.3359,3,7,31,6,1,partial,2,images/Ex8.jpg,right,nonreversed,easy,2,,,,,
,,,,,57a78015454e5400015f57ec,001,,,,,2024-02-26_15h38.39.214,CRL1e,2023.2.3,Win32,7.10732054,65dbad3905fde4fe1981dc61,65dcb066f449c4ea1954853c,,,,,,,,,,,310.3363,1,311.2373,311.2373,312.2219,right,1,0.9837,,312.2219,313.1076,4,0,32,0,1,partial,2,images/Ex5.jpg,right,reversed,easy,2,,,,,
,,,,,57a78015454e5400015f57ec,001,,,,,2024-02-26_15h38.39.214,CRL1e,2023.2.3,Win32,7.10732054,65dbad3905fde4fe1981dc61,65dcb066f449c4ea1954853c,,,,,,,,,,,313.1079,1.3,314.4151,314.4151,315.5795,left,1,1.1635,,315.5795,316.4761,4,1,33,5,1,partial,2,images/Ex7.jpg,left,reversed,easy,2,,,,,
,,,,,57a78015454e5400015f57ec,001,,,,,2024-02-26_15h38.39.214,CRL1e,2023.2.3,Win32,7.10732054,65dbad3905fde4fe1981dc61,65dcb066f449c4ea1954853c,,,,,,,,,,,316.4764,1.1,317.4906,317.4906,318.8248,right,1,1.3332,,318.8248,319.7434,4,2,34,6,1,partial,2,images/Ex8.jpg,right,nonreversed,easy,2,,,,,
,,,,,57a78015454e5400015f57ec,001,,,,,2024-02-26_15h38.39.214,CRL1e,2023.2.3,Win32,7.10732054,65dbad3905fde4fe1981dc61,65dcb066f449c4ea1954853c,,,,,,,,,,,319.7437,1.2,320.9321,320.9321,321.9315,left,1,0.9984,,321.9315,322.8357,4,3,35,4,1,partial,2,images/Ex7.jpg,left,reversed,easy,2,,,,,
,,,,,57a78015454e5400015f57ec,001,,,,,2024-02-26_15h38.39.214,CRL1e,2023.2.3,Win32,7.10732054,65dbad3905fde4fe1981dc61,65dcb066f449c4ea1954853c,,,,,,,,,,,322.836,1.2,324.009,324.009,325.5199,right,1,1.5101,,325.52,326.4205,4,4,36,1,1,partial,2,images/Ex5.jpg,right,reversed,easy,2,,,,,
,,,,,57a78015454e5400015f57ec,001,,,,,2024-02-26_15h38.39.214,CRL1e,2023.2.3,Win32,7.10732054,65dbad3905fde4fe1981dc61,65dcb066f449c4ea1954853c,,,,,,,,,,,326.4207,0.7,327.0179,327.018,328.0301,left,0,1.0112,,328.0301,329.0662,4,5,37,7,1,partial,2,images/Ex8.jpg,right,nonreversed,easy,2,,,,,
,,,,,57a78015454e5400015f57ec,001,,,,,2024-02-26_15h38.39.214,CRL1e,2023.2.3,Win32,7.10732054,65dbad3905fde4fe1981dc61,65dcb066f449c4ea1954853c,,,,,,,,,,,329.0666,1.2,330.2325,330.2326,331.591,left,1,1.3575,,331.591,332.4812,4,6,38,2,1,partial,2,images/Ex6.jpg,left,nonreversed,easy,2,,,,,
,,,,,57a78015454e5400015f57ec,001,,,,,2024-02-26_15h38.39.214,CRL1e,2023.2.3,Win32,7.10732054,65dbad3905fde4fe1981dc61,65dcb066f449c4ea1954853c,,,,,,,,,,,332.4815,1.1,333.5127,333.5128,334.672,left,1,1.1583,,334.6721,335.5796,4,7,39,3,1,partial,2,images/Ex6.jpg,left,nonreversed,easy,2,,,,,
,,,,,57a78015454e5400015f57ec,001,,,,,2024-02-26_15h38.39.214,CRL1e,2023.2.3,Win32,7.10732054,65dbad3905fde4fe1981dc61,65dcb066f449c4ea1954853c,,,,,,,,,,,335.5799,1.3,336.7795,336.7795,337.958,right,1,1.1776,,337.958,338.9951,5,0,40,7,1,partial,2,images/Ex8.jpg,right,nonreversed,easy,2,,,,,
,,,,,57a78015454e5400015f57ec,001,,,,,2024-02-26_15h38.39.214,CRL1e,2023.2.3,Win32,7.10732054,65dbad3905fde4fe1981dc61,65dcb066f449c4ea1954853c,,,,,,,,,,,338.9953,1.2,340.1877,340.1877,341.5626,left,1,1.374,,341.5627,342.5981,5,1,41,3,1,partial,2,images/Ex6.jpg,left,nonreversed,easy,2,,,,,
,,,,,57a78015454e5400015f57ec,001,,,,,2024-02-26_15h38.39.214,CRL1e,2023.2.3,Win32,7.10732054,65dbad3905fde4fe1981dc61,65dcb066f449c4ea1954853c,,,,,,,,,,,342.5985,1.1,343.6631,343.6631,345.1664,left,1,1.5021,,345.1665,346.0669,5,2,42,4,1,partial,2,images/Ex7.jpg,left,reversed,easy,2,,,,,
,,,,,57a78015454e5400015f57ec,001,,,,,2024-02-26_15h38.39.214,CRL1e,2023.2.3,Win32,7.10732054,65dbad3905fde4fe1981dc61,65dcb066f449c4ea1954853c,,,,,,,,,,,346.0672,1.5,347.5381,347.5382,348.5708,left,1,1.032,,348.5708,349.4788,5,3,43,5,1,partial,2,images/Ex7.jpg,left,reversed,easy,2,,,,,
,,,,,57a78015454e5400015f57ec,001,,,,,2024-02-26_15h38.39.214,CRL1e,2023.2.3,Win32,7.10732054,65dbad3905fde4fe1981dc61,65dcb066f449c4ea1954853c,,,,,,,,,,,349.4792,0.7,350.0867,350.0868,351.5972,left,1,1.5095,,351.5972,352.5013,5,4,44,2,1,partial,2,images/Ex6.jpg,left,nonreversed,easy,2,,,,,
,,,,,57a78015454e5400015f57ec,001,,,,,2024-02-26_15h38.39.214,CRL1e,2023.2.3,Win32,7.10732054,65dbad3905fde4fe1981dc61,65dcb066f449c4ea1954853c,,,,,,,,,,,352.5017,1.4,353.8126,353.8126,354.9864,right,1,1.1726,,354.9865,355.8749,5,5,45,0,1,partial,2,images/Ex5.jpg,right,reversed,easy,2,,,,,
,,,,,57a78015454e5400015f57ec,001,,,,,2024-02-26_15h38.39.214,CRL1e,2023.2.3,Win32,7.10732054,65dbad3905fde4fe1981dc61,65dcb066f449c4ea1954853c,,,,,,,,,,,355.8751,0.6,356.4735,356.4735,357.8035,right,1,1.329,,357.8036,358.8448,5,6,46,6,1,partial,2,images/Ex8.jpg,right,nonreversed,easy,2,,,,,
,,,,,57a78015454e5400015f57ec,001,,,,,2024-02-26_15h38.39.214,CRL1e,2023.2.3,Win32,7.10732054,65dbad3905fde4fe1981dc61,65dcb066f449c4ea1954853c,,,,,,,,,,,358.845,0.5,359.278,359.278,360.9741,right,1,1.6951,,360.9742,361.8942,5,7,47,1,1,partial,2,images/Ex5.jpg,right,reversed,easy,2,,,,,
,,,,,57a78015454e5400015f57ec,001,,,,,2024-02-26_15h38.39.214,CRL1e,2023.2.3,Win32,7.10732054,65dbad3905fde4fe1981dc61,65dcb066f449c4ea1954853c,,,,,,361.895,366.1951,space,4.1527,,366.2045,1.1,367.2305,367.2306,368.2189,left,0,0.9873,,368.2189,369.1371,0,0,0,6,1,total,1,images/Ex4.jpg,right,training,easy,2,,,,,
,,,,,57a78015454e5400015f57ec,001,,,,,2024-02-26_15h38.39.214,CRL1e,2023.2.3,Win32,7.10732054,65dbad3905fde4fe1981dc61,65dcb066f449c4ea1954853c,,,,,,,,,,,369.1373,1,370.0263,370.0263,371.0612,right,0,1.034,,371.0612,371.9765,0,1,1,3,1,total,1,images/Ex2.jpg,left,training,easy,2,,,,,
,,,,,57a78015454e5400015f57ec,001,,,,,2024-02-26_15h38.39.214,CRL1e,2023.2.3,Win32,7.10732054,65dbad3905fde4fe1981dc61,65dcb066f449c4ea1954853c,,,,,,,,,,,371.9769,1.4,373.2939,373.294,374.7018,left,0,1.4069,,374.7019,375.6003,0,2,2,7,1,total,1,images/Ex4.jpg,right,training,easy,2,,,,,
,,,,,57a78015454e5400015f57ec,001,,,,,2024-02-26_15h38.39.214,CRL1e,2023.2.3,Win32,7.10732054,65dbad3905fde4fe1981dc61,65dcb066f449c4ea1954853c,,,,,,,,,,,375.6006,0.9,376.4828,376.4828,377.8577,right,0,1.374,,377.8577,378.9017,0,3,3,1,1,total,1,images/Ex1.jpg,left,training,easy,2,,,,,
,,,,,57a78015454e5400015f57ec,001,,,,,2024-02-26_15h38.39.214,CRL1e,2023.2.3,Win32,7.10732054,65dbad3905fde4fe1981dc61,65dcb066f449c4ea1954853c,,,,,,,,,,,378.9019,0.7,379.6342,379.6342,380.6349,left,0,0.9997,,380.6349,381.6705,0,4,4,5,1,total,1,images/Ex3.jpg,right,training,easy,2,,,,,
,,,,,57a78015454e5400015f57ec,001,,,,,2024-02-26_15h38.39.214,CRL1e,2023.2.3,Win32,7.10732054,65dbad3905fde4fe1981dc61,65dcb066f449c4ea1954853c,,,,,,,,,,,381.6707,1.3,382.8701,382.8701,384.7244,left,0,1.8535,,384.7246,385.6168,0,5,5,4,1,total,1,images/Ex3.jpg,right,training,easy,2,,,,,
,,,,,57a78015454e5400015f57ec,001,,,,,2024-02-26_15h38.39.214,CRL1e,2023.2.3,Win32,7.10732054,65dbad3905fde4fe1981dc61,65dcb066f449c4ea1954853c,,,,,,,,,,,385.6244,0.5,386.0564,386.0564,387.7822,right,0,1.725,,387.7822,388.6881,0,6,6,0,1,total,1,images/Ex1.jpg,left,training,easy,2,,,,,
,,,,,57a78015454e5400015f57ec,001,,,,,2024-02-26_15h38.39.214,CRL1e,2023.2.3,Win32,7.10732054,65dbad3905fde4fe1981dc61,65dcb066f449c4ea1954853c,,,,,,,,,,,388.6884,0.8,389.4324,389.4324,390.6365,right,0,1.2032,,390.6366,391.6735,0,7,7,2,1,total,1,images/Ex2.jpg,left,training,easy,2,,,,,
,,,,,57a78015454e5400015f57ec,001,,,,,2024-02-26_15h38.39.214,CRL1e,2023.2.3,Win32,7.10732054,65dbad3905fde4fe1981dc61,65dcb066f449c4ea1954853c,,,,,,,,,,,391.674,1.2,392.8642,392.8642,393.871,left,0,1.0058,,393.871,394.8988,1,0,8,5,1,total,1,images/Ex3.jpg,right,training,easy,2,,,,,
,,,,,57a78015454e5400015f57ec,001,,,,,2024-02-26_15h38.39.214,CRL1e,2023.2.3,Win32,7.10732054,65dbad3905fde4fe1981dc61,65dcb066f449c4ea1954853c,,,,,,,,,,,394.899,0.5,395.3376,395.3376,396.8425,left,1,1.5039,,396.8425,397.7508,1,1,9,2,1,total,1,images/Ex2.jpg,left,training,easy,2,,,,,
,,,,,57a78015454e5400015f57ec,001,,,,,2024-02-26_15h38.39.214,CRL1e,2023.2.3,Win32,7.10732054,65dbad3905fde4fe1981dc61,65dcb066f449c4ea1954853c,,,,,,,,,,,397.751,1,398.7806,398.7806,399.6209,left,1,0.8394,,399.621,400.5212,1,2,10,1,1,total,1,images/Ex1.jpg,left,training,easy,2,,,,,
,,,,,57a78015454e5400015f57ec,001,,,,,2024-02-26_15h38.39.214,CRL1e,2023.2.3,Win32,7.10732054,65dbad3905fde4fe1981dc61,65dcb066f449c4ea1954853c,,,,,,,,,,,400.5215,1,401.5408,401.5409,402.7185,left,1,1.1768,,402.7185,403.6271,1,3,11,0,1,total,1,images/Ex1.jpg,left,training,easy,2,,,,,
,,,,,57a78015454e5400015f57ec,001,,,,,2024-02-26_15h38.39.214,CRL1e,2023.2.3,Win32,7.10732054,65dbad3905fde4fe1981dc61,65dcb066f449c4ea1954853c,,,,,,,,,,,403.6274,1.2,404.822,404.8221,406.0028,right,0,1.1796,,406.0028,406.9368,1,4,12,3,1,total,1,images/Ex2.jpg,left,training,easy,2,,,,,
,,,,,57a78015454e5400015f57ec,001,,,,,2024-02-26_15h38.39.214,CRL1e,2023.2.3,Win32,7.10732054,65dbad3905fde4fe1981dc61,65dcb066f449c4ea1954853c,,,,,,,,,,,406.9371,0.7,407.5414,407.5414,408.5354,left,0,0.9929,,408.5354,409.4369,1,5,13,6,1,total,1,images/Ex4.jpg,right,training,easy,2,,,,,
,,,,,57a78015454e5400015f57ec,001,,,,,2024-02-26_15h38.39.214,CRL1e,2023.2.3,Win32,7.10732054,65dbad3905fde4fe1981dc61,65dcb066f449c4ea1954853c,,,,,,,,,,,409.4372,0.7,410.0613,410.0614,411.4192,right,1,1.3569,,411.4193,412.3078,1,6,14,7,1,total,1,images/Ex4.jpg,right,training,easy,2,,,,,
,,,,,57a78015454e5400015f57ec,001,,,,,2024-02-26_15h38.39.214,CRL1e,2023.2.3,Win32,7.10732054,65dbad3905fde4fe1981dc61,65dcb066f449c4ea1954853c,,,,,,,,,,,412.3081,0.6,412.8967,412.8967,414.213,right,1,1.3154,,414.2131,415.0984,1,7,15,4,1,total,1,images/Ex3.jpg,right,training,easy,2,,,,,
,,,,,57a78015454e5400015f57ec,001,,,,,2024-02-26_15h38.39.214,CRL1e,2023.2.3,Win32,7.10732054,65dbad3905fde4fe1981dc61,65dcb066f449c4ea1954853c,,,,,,,,,,,415.0987,1.2,416.2705,416.2705,417.7925,right,1,1.5212,,417.7926,418.6952,2,0,16,6,1,total,1,images/Ex4.jpg,right,training,easy,2,,,,,
,,,,,57a78015454e5400015f57ec,001,,,,,2024-02-26_15h38.39.214,CRL1e,2023.2.3,Win32,7.10732054,65dbad3905fde4fe1981dc61,65dcb066f449c4ea1954853c,,,,,,,,,,,418.6955,1,419.7289,419.7289,421.0874,left,1,1.3573,,421.0874,421.9954,2,1,17,3,1,total,1,images/Ex2.jpg,left,training,easy,2,,,,,
,,,,,57a78015454e5400015f57ec,001,,,,,2024-02-26_15h38.39.214,CRL1e,2023.2.3,Win32,7.10732054,65dbad3905fde4fe1981dc61,65dcb066f449c4ea1954853c,,,,,,,,,,,421.9956,1.2,423.2045,423.2045,424.0956,left,1,0.8901,,424.0956,425.0234,2,2,18,2,1,total,1,images/Ex2.jpg,left,training,easy,2,,,,,
,,,,,57a78015454e5400015f57ec,001,,,,,2024-02-26_15h38.39.214,CRL1e,2023.2.3,Win32,7.10732054,65dbad3905fde4fe1981dc61,65dcb066f449c4ea1954853c,,,,,,,,,,,425.0237,1,425.9296,425.9296,426.954,right,0,1.0233,,426.9542,427.8634,2,3,19,0,1,total,1,images/Ex1.jpg,left,training,easy,2,,,,,
,,,,,57a78015454e5400015f57ec,001,,,,,2024-02-26_15h38.39.214,CRL1e,2023.2.3,Win32,7.10732054,65dbad3905fde4fe1981dc61,65dcb066f449c4ea1954853c,,,,,,,,,,,427.8637,0.9,428.7457,428.7458,429.5804,left,1,0.8336,,429.5804,430.465,2,4,20,1,1,total,1,images/Ex1.jpg,left,training,easy,2,,,,,
,,,,,57a78015454e5400015f57ec,001,,,,,2024-02-26_15h38.39.214,CRL1e,2023.2.3,Win32,7.10732054,65dbad3905fde4fe1981dc61,65dcb066f449c4ea1954853c,,,,,,,,,,,430.4652,1.4,431.7812,431.7813,432.9371,right,1,1.1548,,432.9373,433.963,2,5,21,4,1,total,1,images/Ex3.jpg,right,training,easy,2,,,,,
,,,,,57a78015454e5400015f57ec,001,,,,,2024-02-26_15h38.39.214,CRL1e,2023.2.3,Win32,7.10732054,65dbad3905fde4fe1981dc61,65dcb066f449c4ea1954853c,,,,,,,,,,,433.9633,1.1,434.9904,434.9904,436.3213,left,0,1.33,,436.3214,437.2382,2,6,22,7,1,total,1,images/Ex4.jpg,right,training,easy,2,,,,,
,,,,,57a78015454e5400015f57ec,001,,,,,2024-02-26_15h38.39.214,CRL1e,2023.2.3,Win32,7.10732054,65dbad3905fde4fe1981dc61,65dcb066f449c4ea1954853c,,,,,,,,,,,437.2384,0.6,437.8296,437.8297,439.1532,right,1,1.3227,,439.1533,440.0638,2,7,23,5,1,total,1,images/Ex3.jpg,right,training,easy,2,,,,,
,,,,,57a78015454e5400015f57ec,001,,,,,2024-02-26_15h38.39.214,CRL1e,2023.2.3,Win32,7.10732054,65dbad3905fde4fe1981dc61,65dcb066f449c4ea1954853c,,,,,,,,,,,440.0641,0.8,440.7919,440.792,441.8058,left,1,1.0131,,441.8058,442.7062,3,0,24,2,1,total,1,images/Ex2.jpg,left,training,easy,2,,,,,
,,,,,57a78015454e5400015f57ec,001,,,,,2024-02-26_15h38.39.214,CRL1e,2023.2.3,Win32,7.10732054,65dbad3905fde4fe1981dc61,65dcb066f449c4ea1954853c,,,,,,,,,,,442.7066,1.2,443.8739,443.8739,445.0342,right,0,1.1594,,445.0343,445.9414,3,1,25,0,1,total,1,images/Ex1.jpg,left,training,easy,2,,,,,
,,,,,57a78015454e5400015f57ec,001,,,,,2024-02-26_15h38.39.214,CRL1e,2023.2.3,Win32,7.10732054,65dbad3905fde4fe1981dc61,65dcb066f449c4ea1954853c,,,,,,,,,,,445.9416,1.4,447.2795,447.2795,448.4606,left,0,1.1801,,448.4606,449.3568,3,2,26,6,1,total,1,images/Ex4.jpg,right,training,easy,2,,,,,
,,,,,57a78015454e5400015f57ec,001,,,,,2024-02-26_15h38.39.214,CRL1e,2023.2.3,Win32,7.10732054,65dbad3905fde4fe1981dc61,65dcb066f449c4ea1954853c,,,,,,,,,,,449.3571,1.1,450.387,450.387,451.2111,right,1,0.8232,,451.2111,452.2539,3,3,27,7,1,total,1,images/Ex4.jpg,right,training,easy,2,,,,,
,,,,,57a78015454e5400015f57ec,001,,,,,2024-02-26_15h38.39.214,CRL1e,2023.2.3,Win32,7.10732054,65dbad3905fde4fe1981dc61,65dcb066f449c4ea1954853c,,,,,,,,,,,452.2542,0.6,452.8522,452.8522,454.3792,left,1,1.5264,,454.3792,455.2686,3,4,28,3,1,total,1,images/Ex2.jpg,left,training,easy,2,,,,,
,,,,,57a78015454e5400015f57ec,001,,,,,2024-02-26_15h38.39.214,CRL1e,2023.2.3,Win32,7.10732054,65dbad3905fde4fe1981dc61,65dcb066f449c4ea1954853c,,,,,,,,,,,455.269,0.8,456.0078,456.0079,457.1885,left,1,1.1797,,457.1885,458.0835,3,5,29,1,1,total,1,images/Ex1.jpg,left,training,easy,2,,,,,
,,,,,57a78015454e5400015f57ec,001,,,,,2024-02-26_15h38.39.214,CRL1e,2023.2.3,Win32,7.10732054,65dbad3905fde4fe1981dc61,65dcb066f449c4ea1954853c,,,,,,,,,,,458.0838,0.9,458.9531,458.9531,460.1231,right,1,1.169,,460.1231,461.0185,3,6,30,5,1,total,1,images/Ex3.jpg,right,training,easy,2,,,,,
,,,,,57a78015454e5400015f57ec,001,,,,,2024-02-26_15h38.39.214,CRL1e,2023.2.3,Win32,7.10732054,65dbad3905fde4fe1981dc61,65dcb066f449c4ea1954853c,,,,,,,,,,,461.0189,1,462.0507,462.0507,463.037,right,1,0.9855,,463.037,463.9247,3,7,31,4,1,total,1,images/Ex3.jpg,right,training,easy,2,,,,,
,,,,,57a78015454e5400015f57ec,001,,,,,2024-02-26_15h38.39.214,CRL1e,2023.2.3,Win32,7.10732054,65dbad3905fde4fe1981dc61,65dcb066f449c4ea1954853c,,,,,,,,,,,463.9251,0.5,464.3543,464.3543,465.5026,left,1,1.1474,,465.5026,466.3959,4,0,32,0,1,total,1,images/Ex1.jpg,left,training,easy,2,,,,,
,,,,,57a78015454e5400015f57ec,001,,,,,2024-02-26_15h38.39.214,CRL1e,2023.2.3,Win32,7.10732054,65dbad3905fde4fe1981dc61,65dcb066f449c4ea1954853c,,,,,,,,,,,466.3963,1.5,467.8944,467.8944,468.7226,left,1,0.8273,,468.7226,469.6363,4,1,33,3,1,total,1,images/Ex2.jpg,left,training,easy,2,,,,,
,,,,,57a78015454e5400015f57ec,001,,,,,2024-02-26_15h38.39.214,CRL1e,2023.2.3,Win32,7.10732054,65dbad3905fde4fe1981dc61,65dcb066f449c4ea1954853c,,,,,,,,,,,469.6366,1.4,470.9837,470.9838,472.1468,right,1,1.1617,,472.1469,473.0435,4,2,34,4,1,total,1,images/Ex3.jpg,right,training,easy,2,,,,,
,,,,,57a78015454e5400015f57ec,001,,,,,2024-02-26_15h38.39.214,CRL1e,2023.2.3,Win32,7.10732054,65dbad3905fde4fe1981dc61,65dcb066f449c4ea1954853c,,,,,,,,,,,473.0438,1.5,474.5694,474.5694,476.3369,right,1,1.7665,,476.337,477.2758,4,3,35,6,1,total,1,images/Ex4.jpg,right,training,easy,2,,,,,
,,,,,57a78015454e5400015f57ec,001,,,,,2024-02-26_15h38.39.214,CRL1e,2023.2.3,Win32,7.10732054,65dbad3905fde4fe1981dc61,65dcb066f449c4ea1954853c,,,,,,,,,,,477.2763,1.1,478.3416,478.3417,479.7054,right,0,1.3628,,479.7054,480.6379,4,4,36,1,1,total,1,images/Ex1.jpg,left,training,easy,2,,,,,
,,,,,57a78015454e5400015f57ec,001,,,,,2024-02-26_15h38.39.214,CRL1e,2023.2.3,Win32,7.10732054,65dbad3905fde4fe1981dc61,65dcb066f449c4ea1954853c,,,,,,,,,,,480.6383,1.4,482.0392,482.0393,483.0596,left,0,1.0191,,483.0596,484.0096,4,5,37,7,1,total,1,images/Ex4.jpg,right,training,easy,2,,,,,
,,,,,57a78015454e5400015f57ec,001,,,,,2024-02-26_15h38.39.214,CRL1e,2023.2.3,Win32,7.10732054,65dbad3905fde4fe1981dc61,65dcb066f449c4ea1954853c,,,,,,,,,,,484.01,0.7,484.6332,484.6333,485.8516,left,1,1.2173,,485.8517,486.7494,4,6,38,2,1,total,1,images/Ex2.jpg,left,training,easy,2,,,,,
,,,,,57a78015454e5400015f57ec,001,,,,,2024-02-26_15h38.39.214,CRL1e,2023.2.3,Win32,7.10732054,65dbad3905fde4fe1981dc61,65dcb066f449c4ea1954853c,,,,,,,,,,,486.7497,1.3,488.0731,488.0731,489.2409,right,1,1.167,,489.241,490.1749,4,7,39,5,1,total,1,images/Ex3.jpg,right,training,easy,2,,,,,
,,,,,57a78015454e5400015f57ec,001,,,,,2024-02-26_15h38.39.214,CRL1e,2023.2.3,Win32,7.10732054,65dbad3905fde4fe1981dc61,65dcb066f449c4ea1954853c,,,,,,,,,,,490.1752,1.1,491.235,491.235,493.7576,left,1,2.5217,,493.7577,494.6435,5,0,40,3,1,total,1,images/Ex2.jpg,left,training,easy,2,,,,,
,,,,,57a78015454e5400015f57ec,001,,,,,2024-02-26_15h38.39.214,CRL1e,2023.2.3,Win32,7.10732054,65dbad3905fde4fe1981dc61,65dcb066f449c4ea1954853c,,,,,,,,,,,494.6509,1,495.6873,495.6873,497.5008,right,1,1.8127,,497.5008,498.4139,5,1,41,6,1,total,1,images/Ex4.jpg,right,training,easy,2,,,,,
,,,,,57a78015454e5400015f57ec,001,,,,,2024-02-26_15h38.39.214,CRL1e,2023.2.3,Win32,7.10732054,65dbad3905fde4fe1981dc61,65dcb066f449c4ea1954853c,,,,,,,,,,,498.4142,1.4,499.7652,499.7652,500.5978,left,1,0.8315,,500.5978,501.5026,5,2,42,2,1,total,1,images/Ex2.jpg,left,training,easy,2,,,,,
,,,,,57a78015454e5400015f57ec,001,,,,,2024-02-26_15h38.39.214,CRL1e,2023.2.3,Win32,7.10732054,65dbad3905fde4fe1981dc61,65dcb066f449c4ea1954853c,,,,,,,,,,,501.5028,1.2,502.6775,502.6776,503.8929,right,1,1.2144,,503.8929,504.8058,5,3,43,5,1,total,1,images/Ex3.jpg,right,training,easy,2,,,,,
,,,,,57a78015454e5400015f57ec,001,,,,,2024-02-26_15h38.39.214,CRL1e,2023.2.3,Win32,7.10732054,65dbad3905fde4fe1981dc61,65dcb066f449c4ea1954853c,,,,,,,,,,,504.8062,0.8,505.5461,505.5461,506.7003,left,1,1.1529,,506.7003,507.755,5,4,44,0,1,total,1,images/Ex1.jpg,left,training,easy,2,,,,,
,,,,,57a78015454e5400015f57ec,001,,,,,2024-02-26_15h38.39.214,CRL1e,2023.2.3,Win32,7.10732054,65dbad3905fde4fe1981dc61,65dcb066f449c4ea1954853c,,,,,,,,,,,507.7552,0.9,508.6414,508.6415,509.7913,left,0,1.1487,,509.7913,510.8266,5,5,45,7,1,total,1,images/Ex4.jpg,right,training,easy,2,,,,,
,,,,,57a78015454e5400015f57ec,001,,,,,2024-02-26_15h38.39.214,CRL1e,2023.2.3,Win32,7.10732054,65dbad3905fde4fe1981dc61,65dcb066f449c4ea1954853c,,,,,,,,,,,510.8269,0.8,511.5657,511.5657,512.9325,left,0,1.3657,,512.9326,513.9681,5,6,46,4,1,total,1,images/Ex3.jpg,right,training,easy,2,,,,,
,,,,,57a78015454e5400015f57ec,001,,,,,2024-02-26_15h38.39.214,CRL1e,2023.2.3,Win32,7.10732054,65dbad3905fde4fe1981dc61,65dcb066f449c4ea1954853c,,,,,,,,,,,513.9685,1.2,515.1532,515.1533,516.3197,left,1,1.1656,,516.3197,517.3572,5,7,47,1,1,total,1,images/Ex1.jpg,left,training,easy,2,,,,,
,,,,,57a78015454e5400015f57ec,001,,,,,2024-02-26_15h38.39.214,CRL1e,2023.2.3,Win32,7.10732054,65dbad3905fde4fe1981dc61,65dcb066f449c4ea1954853c,,,,,,,,,,,517.3589,1.3,518.6951,518.6951,519.6954,left,0,0.9995,,519.6954,520.5987,0,0,0,1,1,total,2,images/Ex1.jpg,right,reversed,easy,2,,,,,
,,,,,57a78015454e5400015f57ec,001,,,,,2024-02-26_15h38.39.214,CRL1e,2023.2.3,Win32,7.10732054,65dbad3905fde4fe1981dc61,65dcb066f449c4ea1954853c,,,,,,,,,,,520.599,1.4,521.9148,521.9148,522.9434,right,0,1.028,,522.9434,523.8345,0,1,1,5,1,total,2,images/Ex3.jpg,left,reversed,easy,2,,,,,
,,,,,57a78015454e5400015f57ec,001,,,,,2024-02-26_15h38.39.214,CRL1e,2023.2.3,Win32,7.10732054,65dbad3905fde4fe1981dc61,65dcb066f449c4ea1954853c,,,,,,,,,,,523.8348,0.6,524.4136,524.4137,525.5877,left,0,1.1729,,525.5877,526.6157,0,2,2,3,1,total,2,images/Ex2.jpg,right,reversed,easy,2,,,,,
,,,,,57a78015454e5400015f57ec,001,,,,,2024-02-26_15h38.39.214,CRL1e,2023.2.3,Win32,7.10732054,65dbad3905fde4fe1981dc61,65dcb066f449c4ea1954853c,,,,,,,,,,,526.6159,0.6,527.1957,527.1957,528.532,left,0,1.3355,,528.5321,529.4281,0,3,3,0,1,total,2,images/Ex1.jpg,right,reversed,easy,2,,,,,
,,,,,57a78015454e5400015f57ec,001,,,,,2024-02-26_15h38.39.214,CRL1e,2023.2.3,Win32,7.10732054,65dbad3905fde4fe1981dc61,65dcb066f449c4ea1954853c,,,,,,,,,,,529.4283,1.5,530.9083,530.9083,532.2597,right,1,1.3504,,532.2597,533.1668,0,4,4,2,1,total,2,images/Ex2.jpg,right,reversed,easy,2,,,,,
,,,,,57a78015454e5400015f57ec,001,,,,,2024-02-26_15h38.39.214,CRL1e,2023.2.3,Win32,7.10732054,65dbad3905fde4fe1981dc61,65dcb066f449c4ea1954853c,,,,,,,,,,,533.1671,1.3,534.491,534.491,535.8592,right,0,1.3671,,535.8592,536.8898,0,5,5,4,1,total,2,images/Ex3.jpg,left,reversed,easy,2,,,,,
,,,,,57a78015454e5400015f57ec,001,,,,,2024-02-26_15h38.39.214,CRL1e,2023.2.3,Win32,7.10732054,65dbad3905fde4fe1981dc61,65dcb066f449c4ea1954853c,,,,,,,,,,,536.8902,1.1,537.9201,537.9201,539.0985,left,1,1.1776,,539.0986,539.9903,0,6,6,6,1,total,2,images/Ex4.jpg,left,reversed,easy,2,,,,,
,,,,,57a78015454e5400015f57ec,001,,,,,2024-02-26_15h38.39.214,CRL1e,2023.2.3,Win32,7.10732054,65dbad3905fde4fe1981dc61,65dcb066f449c4ea1954853c,,,,,,,,,,,539.9906,1,540.8868,540.8869,542.4214,left,1,1.5336,,542.4214,543.3511,0,7,7,7,1,total,2,images/Ex4.jpg,left,reversed,easy,2,,,,,
,,,,,57a78015454e5400015f57ec,001,,,,,2024-02-26_15h38.39.214,CRL1e,2023.2.3,Win32,7.10732054,65dbad3905fde4fe1981dc61,65dcb066f449c4ea1954853c,,,,,,,,,,,543.3516,0.8,544.1253,544.1253,545.1547,left,0,1.0282,,545.1547,546.0688,1,0,8,2,1,total,2,images/Ex2.jpg,right,reversed,easy,2,,,,,
,,,,,57a78015454e5400015f57ec,001,,,,,2024-02-26_15h38.39.214,CRL1e,2023.2.3,Win32,7.10732054,65dbad3905fde4fe1981dc61,65dcb066f449c4ea1954853c,,,,,,,,,,,546.0691,0.9,546.9698,546.9698,548.2896,right,0,1.319,,548.2896,549.1977,1,1,9,5,1,total,2,images/Ex3.jpg,left,reversed,easy,2,,,,,
,,,,,57a78015454e5400015f57ec,001,,,,,2024-02-26_15h38.39.214,CRL1e,2023.2.3,Win32,7.10732054,65dbad3905fde4fe1981dc61,65dcb066f449c4ea1954853c,,,,,,,,,,,549.198,1.2,550.3738,550.3738,551.5327,left,1,1.1576,,551.5327,552.5737,1,2,10,7,1,total,2,images/Ex4.jpg,left,reversed,easy,2,,,,,
,,,,,57a78015454e5400015f57ec,001,,,,,2024-02-26_15h38.39.214,CRL1e,2023.2.3,Win32,7.10732054,65dbad3905fde4fe1981dc61,65dcb066f449c4ea1954853c,,,,,,,,,,,552.5741,0.6,553.1486,553.1486,554.4699,right,1,1.3204,,554.4699,555.4997,1,3,11,0,1,total,2,images/Ex1.jpg,right,reversed,easy,2,,,,,
,,,,,57a78015454e5400015f57ec,001,,,,,2024-02-26_15h38.39.214,CRL1e,2023.2.3,Win32,7.10732054,65dbad3905fde4fe1981dc61,65dcb066f449c4ea1954853c,,,,,,,,,,,555.5,0.6,556.1001,556.1002,557.0841,right,1,0.983,,557.0842,557.9693,1,4,12,1,1,total,2,images/Ex1.jpg,right,reversed,easy,2,,,,,
,,,,,57a78015454e5400015f57ec,001,,,,,2024-02-26_15h38.39.214,CRL1e,2023.2.3,Win32,7.10732054,65dbad3905fde4fe1981dc61,65dcb066f449c4ea1954853c,,,,,,,,,,,557.9696,0.6,558.5606,558.5607,559.5601,left,1,0.9984,,559.5601,560.4731,1,5,13,6,1,total,2,images/Ex4.jpg,left,reversed,easy,2,,,,,
,,,,,57a78015454e5400015f57ec,001,,,,,2024-02-26_15h38.39.214,CRL1e,2023.2.3,Win32,7.10732054,65dbad3905fde4fe1981dc61,65dcb066f449c4ea1954853c,,,,,,,,,,,560.4733,1.5,561.9419,561.9419,563.6262,left,0,1.6832,,563.6263,564.5197,1,6,14,3,1,total,2,images/Ex2.jpg,right,reversed,easy,2,,,,,
,,,,,57a78015454e5400015f57ec,001,,,,,2024-02-26_15h38.39.214,CRL1e,2023.2.3,Win32,7.10732054,65dbad3905fde4fe1981dc61,65dcb066f449c4ea1954853c,,,,,,,,,,,564.52,0.8,565.2568,565.2568,568.9243,right,0,3.6666,,568.9243,569.8169,1,7,15,4,1,total,2,images/Ex3.jpg,left,reversed,easy,2,,,,,
,,,,,57a78015454e5400015f57ec,001,,,,,2024-02-26_15h38.39.214,CRL1e,2023.2.3,Win32,7.10732054,65dbad3905fde4fe1981dc61,65dcb066f449c4ea1954853c,,,,,,,,,,,569.8239,0.5,570.2528,570.2529,573.7444,left,0,3.4902,,573.7445,574.7752,2,0,16,3,1,total,2,images/Ex2.jpg,right,reversed,easy,2,,,,,
,,,,,57a78015454e5400015f57ec,001,,,,,2024-02-26_15h38.39.214,CRL1e,2023.2.3,Win32,7.10732054,65dbad3905fde4fe1981dc61,65dcb066f449c4ea1954853c,,,,,,,,,,,574.7827,0.5,575.2277,575.2278,576.5554,left,0,1.3268,,576.5555,577.4507,2,1,17,2,1,total,2,images/Ex2.jpg,right,reversed,easy,2,,,,,
,,,,,57a78015454e5400015f57ec,001,,,,,2024-02-26_15h38.39.214,CRL1e,2023.2.3,Win32,7.10732054,65dbad3905fde4fe1981dc61,65dcb066f449c4ea1954853c,,,,,,,,,,,577.451,1.4,578.7733,578.7733,579.7685,right,0,0.994,,579.7685,580.8095,2,2,18,6,1,total,2,images/Ex4.jpg,left,reversed,easy,2,,,,,
,,,,,57a78015454e5400015f57ec,001,,,,,2024-02-26_15h38.39.214,CRL1e,2023.2.3,Win32,7.10732054,65dbad3905fde4fe1981dc61,65dcb066f449c4ea1954853c,,,,,,,,,,,580.8098,1.3,582.1186,582.1187,582.9598,left,1,0.8403,,582.9598,584.0113,2,3,19,4,1,total,2,images/Ex3.jpg,left,reversed,easy,2,,,,,
,,,,,57a78015454e5400015f57ec,001,,,,,2024-02-26_15h38.39.214,CRL1e,2023.2.3,Win32,7.10732054,65dbad3905fde4fe1981dc61,65dcb066f449c4ea1954853c,,,,,,,,,,,584.0115,0.8,584.7368,584.7368,586.0467,left,1,1.3088,0.0001,586.0467,587.0755,2,4,20,7,1,total,2,images/Ex4.jpg,left,reversed,easy,2,,,,,
,,,,,57a78015454e5400015f57ec,001,,,,,2024-02-26_15h38.39.214,CRL1e,2023.2.3,Win32,7.10732054,65dbad3905fde4fe1981dc61,65dcb066f449c4ea1954853c,,,,,,,,,,,587.0758,1.2,588.2609,588.261,589.431,right,1,1.1692,,589.431,590.3668,2,5,21,1,1,total,2,images/Ex1.jpg,right,reversed,easy,2,,,,,
,,,,,57a78015454e5400015f57ec,001,,,,,2024-02-26_15h38.39.214,CRL1e,2023.2.3,Win32,7.10732054,65dbad3905fde4fe1981dc61,65dcb066f449c4ea1954853c,,,,,,,,,,,590.3672,1.1,591.4106,591.4107,592.2365,right,1,0.8252,,592.2366,593.1202,2,6,22,0,1,total,2,images/Ex1.jpg,right,reversed,easy,2,,,,,
,,,,,57a78015454e5400015f57ec,001,,,,,2024-02-26_15h38.39.214,CRL1e,2023.2.3,Win32,7.10732054,65dbad3905fde4fe1981dc61,65dcb066f449c4ea1954853c,,,,,,,,,,,593.1204,1,594.156,594.1561,595.3102,left,1,1.1531,,595.3103,596.2112,2,7,23,5,1,total,2,images/Ex3.jpg,left,reversed,easy,2,,,,,
,,,,,57a78015454e5400015f57ec,001,,,,,2024-02-26_15h38.39.214,CRL1e,2023.2.3,Win32,7.10732054,65dbad3905fde4fe1981dc61,65dcb066f449c4ea1954853c,,,,,,,,,,,596.2115,1.3,597.513,597.513,598.6947,right,0,1.1808,,598.6948,599.5802,3,0,24,6,1,total,2,images/Ex4.jpg,left,reversed,easy,2,,,,,
,,,,,57a78015454e5400015f57ec,001,,,,,2024-02-26_15h38.39.214,CRL1e,2023.2.3,Win32,7.10732054,65dbad3905fde4fe1981dc61,65dcb066f449c4ea1954853c,,,,,,,,,,,599.5808,1.4,600.9406,600.9406,603.3246,left,0,2.3828,,603.3246,604.2736,3,1,25,0,1,total,2,images/Ex1.jpg,right,reversed,easy,2,,,,,
,,,,,57a78015454e5400015f57ec,001,,,,,2024-02-26_15h38.39.214,CRL1e,2023.2.3,Win32,7.10732054,65dbad3905fde4fe1981dc61,65dcb066f449c4ea1954853c,,,,,,,,,,,604.2738,0.8,605.049,605.049,606.5976,left,1,1.5477,,606.5977,607.4839,3,2,26,4,1,total,2,images/Ex3.jpg,left,reversed,easy,2,,,,,
,,,,,57a78015454e5400015f57ec,001,,,,,2024-02-26_15h38.39.214,CRL1e,2023.2.3,Win32,7.10732054,65dbad3905fde4fe1981dc61,65dcb066f449c4ea1954853c,,,,,,,,,,,607.4843,1.4,608.815,608.8151,609.1424,left,1,0.3265,,609.1424,610.0411,3,3,27,5,1,total,2,images/Ex3.jpg,left,reversed,easy,2,,,,,
,,,,,57a78015454e5400015f57ec,001,,,,,2024-02-26_15h38.39.214,CRL1e,2023.2.3,Win32,7.10732054,65dbad3905fde4fe1981dc61,65dcb066f449c4ea1954853c,,,,,,,,,,,610.0413,1.1,611.0759,611.0759,612.2528,right,1,1.1761,,612.2529,613.1394,3,4,28,2,1,total,2,images/Ex2.jpg,right,reversed,easy,2,,,,,
,,,,,57a78015454e5400015f57ec,001,,,,,2024-02-26_15h38.39.214,CRL1e,2023.2.3,Win32,7.10732054,65dbad3905fde4fe1981dc61,65dcb066f449c4ea1954853c,,,,,,,,,,,613.1398,1.2,614.321,614.321,615.6487,left,0,1.3269,,615.6488,616.6803,3,5,29,1,1,total,2,images/Ex1.jpg,right,reversed,easy,2,,,,,
,,,,,57a78015454e5400015f57ec,001,,,,,2024-02-26_15h38.39.214,CRL1e,2023.2.3,Win32,7.10732054,65dbad3905fde4fe1981dc61,65dcb066f449c4ea1954853c,,,,,,,,,,,616.6806,0.5,617.1307,617.1307,618.4718,right,0,1.3402,,618.4718,619.3592,3,6,30,7,1,total,2,images/Ex4.jpg,left,reversed,easy,2,,,,,
,,,,,57a78015454e5400015f57ec,001,,,,,2024-02-26_15h38.39.214,CRL1e,2023.2.3,Win32,7.10732054,65dbad3905fde4fe1981dc61,65dcb066f449c4ea1954853c,,,,,,,,,,,619.3595,1,620.2581,620.2582,621.4245,left,0,1.1652,,621.4246,622.3182,3,7,31,3,1,total,2,images/Ex2.jpg,right,reversed,easy,2,,,,,
,,,,,57a78015454e5400015f57ec,001,,,,,2024-02-26_15h38.39.214,CRL1e,2023.2.3,Win32,7.10732054,65dbad3905fde4fe1981dc61,65dcb066f449c4ea1954853c,,,,,,,,,,,622.3185,0.8,623.0482,623.0482,624.5288,right,0,1.4797,,624.5289,625.4471,4,0,32,4,1,total,2,images/Ex3.jpg,left,reversed,easy,2,,,,,
,,,,,57a78015454e5400015f57ec,001,,,,,2024-02-26_15h38.39.214,CRL1e,2023.2.3,Win32,7.10732054,65dbad3905fde4fe1981dc61,65dcb066f449c4ea1954853c,,,,,,,,,,,625.4475,0.6,626.0319,626.0319,627.1987,left,1,1.1661,,627.1987,628.1028,4,1,33,5,1,total,2,images/Ex3.jpg,left,reversed,easy,2,,,,,
,,,,,57a78015454e5400015f57ec,001,,,,,2024-02-26_15h38.39.214,CRL1e,2023.2.3,Win32,7.10732054,65dbad3905fde4fe1981dc61,65dcb066f449c4ea1954853c,,,,,,,,,,,628.103,1.4,629.432,629.432,630.4265,left,0,0.9936,,630.4265,631.3167,4,2,34,3,1,total,2,images/Ex2.jpg,right,reversed,easy,2,,,,,
,,,,,57a78015454e5400015f57ec,001,,,,,2024-02-26_15h38.39.214,CRL1e,2023.2.3,Win32,7.10732054,65dbad3905fde4fe1981dc61,65dcb066f449c4ea1954853c,,,,,,,,,,,631.317,0.5,631.7561,631.7561,633.0904,left,1,1.3333,,633.0905,633.9997,4,3,35,7,1,total,2,images/Ex4.jpg,left,reversed,easy,2,,,,,
,,,,,57a78015454e5400015f57ec,001,,,,,2024-02-26_15h38.39.214,CRL1e,2023.2.3,Win32,7.10732054,65dbad3905fde4fe1981dc61,65dcb066f449c4ea1954853c,,,,,,,,,,,634,0.7,634.5962,634.5962,635.9633,right,1,1.3662,,635.9633,636.8574,4,4,36,0,1,total,2,images/Ex1.jpg,right,reversed,easy,2,,,,,
,,,,,57a78015454e5400015f57ec,001,,,,,2024-02-26_15h38.39.214,CRL1e,2023.2.3,Win32,7.10732054,65dbad3905fde4fe1981dc61,65dcb066f449c4ea1954853c,,,,,,,,,,,636.8577,1,637.8824,637.8824,638.8927,left,1,1.0094,,638.8927,639.7884,4,5,37,6,1,total,2,images/Ex4.jpg,left,reversed,easy,2,,,,,
,,,,,57a78015454e5400015f57ec,001,,,,,2024-02-26_15h38.39.214,CRL1e,2023.2.3,Win32,7.10732054,65dbad3905fde4fe1981dc61,65dcb066f449c4ea1954853c,,,,,,,,,,,639.7887,1.4,641.1235,641.1235,642.6151,right,1,1.4907,,642.6152,643.6465,4,6,38,1,1,total,2,images/Ex1.jpg,right,reversed,easy,2,,,,,
,,,,,57a78015454e5400015f57ec,001,,,,,2024-02-26_15h38.39.214,CRL1e,2023.2.3,Win32,7.10732054,65dbad3905fde4fe1981dc61,65dcb066f449c4ea1954853c,,,,,,,,,,,643.6468,1.2,644.8352,644.8353,645.8339,left,0,0.9977,,645.8339,646.859,4,7,39,2,1,total,2,images/Ex2.jpg,right,reversed,easy,2,,,,,
,,,,,57a78015454e5400015f57ec,001,,,,,2024-02-26_15h38.39.214,CRL1e,2023.2.3,Win32,7.10732054,65dbad3905fde4fe1981dc61,65dcb066f449c4ea1954853c,,,,,,,,,,,646.8593,1.4,648.2021,648.2021,649.5369,right,1,1.3341,,649.5371,650.4473,5,0,40,3,1,total,2,images/Ex2.jpg,right,reversed,easy,2,,,,,
,,,,,57a78015454e5400015f57ec,001,,,,,2024-02-26_15h38.39.214,CRL1e,2023.2.3,Win32,7.10732054,65dbad3905fde4fe1981dc61,65dcb066f449c4ea1954853c,,,,,,,,,,,650.4475,1.1,651.4706,651.4707,653.3129,left,1,1.8413,,653.3129,654.2015,5,1,41,5,1,total,2,images/Ex3.jpg,left,reversed,easy,2,,,,,
,,,,,57a78015454e5400015f57ec,001,,,,,2024-02-26_15h38.39.214,CRL1e,2023.2.3,Win32,7.10732054,65dbad3905fde4fe1981dc61,65dcb066f449c4ea1954853c,,,,,,,,,,,654.2017,1,655.085,655.085,656.2475,right,0,1.1613,,656.2475,657.277,5,2,42,6,1,total,2,images/Ex4.jpg,left,reversed,easy,2,,,,,
,,,,,57a78015454e5400015f57ec,001,,,,,2024-02-26_15h38.39.214,CRL1e,2023.2.3,Win32,7.10732054,65dbad3905fde4fe1981dc61,65dcb066f449c4ea1954853c,,,,,,,,,,,657.2773,1,658.1766,658.1766,659.5156,left,0,1.3382,,659.5157,660.5621,5,3,43,1,1,total,2,images/Ex1.jpg,right,reversed,easy,2,,,,,
,,,,,57a78015454e5400015f57ec,001,,,,,2024-02-26_15h38.39.214,CRL1e,2023.2.3,Win32,7.10732054,65dbad3905fde4fe1981dc61,65dcb066f449c4ea1954853c,,,,,,,,,,,660.5624,1,661.4682,661.4682,662.6538,left,1,1.1846,,662.6539,663.5718,5,4,44,7,1,total,2,images/Ex4.jpg,left,reversed,easy,2,,,,,
,,,,,57a78015454e5400015f57ec,001,,,,,2024-02-26_15h38.39.214,CRL1e,2023.2.3,Win32,7.10732054,65dbad3905fde4fe1981dc61,65dcb066f449c4ea1954853c,,,,,,,,,,,663.5723,1.4,664.9335,664.9335,666.2987,left,0,1.3642,,666.2988,667.1926,5,5,45,2,1,total,2,images/Ex2.jpg,right,reversed,easy,2,,,,,
,,,,,57a78015454e5400015f57ec,001,,,,,2024-02-26_15h38.39.214,CRL1e,2023.2.3,Win32,7.10732054,65dbad3905fde4fe1981dc61,65dcb066f449c4ea1954853c,,,,,,,,,,,667.1929,0.6,667.7853,667.7853,668.7957,right,1,1.0095,,668.7958,669.6909,5,6,46,0,1,total,2,images/Ex1.jpg,right,reversed,easy,2,,,,,
,,,,,57a78015454e5400015f57ec,001,,,,,2024-02-26_15h38.39.214,CRL1e,2023.2.3,Win32,7.10732054,65dbad3905fde4fe1981dc61,65dcb066f449c4ea1954853c,,,,,,,,,,,669.6912,1,670.602,670.602,672.1058,left,1,1.5028,,672.1058,673.0181,5,7,47,4,1,total,2,images/Ex3.jpg,left,reversed,easy,2,,,,,
,,,,,57a78015454e5400015f57ec,001,,,,,2024-02-26_15h38.39.214,CRL1e,2023.2.3,Win32,7.10732054,65dbad3905fde4fe1981dc61,65dcb066f449c4ea1954853c,,,,,,,,,,,,,,,,,,,,,,,,,,,,,,,,,,673.0187,690.1095,space,16.9426,