infCons.started,infCons.stopped,resp_consent.keys,resp_consent.rt,resp_consent.duration,participant,session,Age?,Gender?,Nationality?,Highest Educational Degree?,date,expName,psychopyVersion,OS,frameRate,STUDY_ID,SESSION_ID,instructions.started,instructions.stopped,resp_instructions.keys,resp_instructions.rt,resp_instructions.duration,nextTask.started,nextTask.stopped,ready_task.keys,ready_task.rt,ready_task.duration,fixation.started,ITI,fixation.stopped,stim.started,stim.stopped,response.keys,response.corr,response.rt,response.duration,feedback.started,feedback.stopped,trials.thisRepN,trials.thisTrialN,trials.thisN,trials.thisIndex,trials.ran,task,phase,Exemplars,r_correct,condition,difficulty,set,end.started,end.stopped,resp_end.keys,resp_end.rt,resp_end.duration
0.0006,52.682,space,52.6177,,5c4d8d706b23ab0001a34af2,001,,,,,2024-02-26_20h42.42.998,CRL1e,2023.2.3,Win32,60.60606061,65dbad3905fde4fe1981dc61,65dcf7515c4c8090ce3cb410,,,,,,,,,,,,,,,,,,,,,,,,,,,,,,,,,,,,,,
,,,,,5c4d8d706b23ab0001a34af2,001,,,,,2024-02-26_20h42.42.998,CRL1e,2023.2.3,Win32,60.60606061,65dbad3905fde4fe1981dc61,65dcf7515c4c8090ce3cb410,52.6841,135.7187,space,83.0079,,,,,,,,,,,,,,,,,,,,,,,,,,,,,,,,,,
,,,,,5c4d8d706b23ab0001a34af2,001,,,,,2024-02-26_20h42.42.998,CRL1e,2023.2.3,Win32,60.60606061,65dbad3905fde4fe1981dc61,65dcf7515c4c8090ce3cb410,,,,,,135.7644,141.1622,space,5.3791,,141.1974,1.3,142.4925,142.493,144.497,left,0,1.9779,,144.4974,145.4894,0,0,0,6,1,total,1,images/Ex16.jpg,right,training,easy,8,,,,,
,,,,,5c4d8d706b23ab0001a34af2,001,,,,,2024-02-26_20h42.42.998,CRL1e,2023.2.3,Win32,60.60606061,65dbad3905fde4fe1981dc61,65dcf7515c4c8090ce3cb410,,,,,,,,,,,145.4908,0.7,146.1865,146.1866,147.4201,right,1,1.2297,,147.4203,148.4195,0,1,1,5,1,total,1,images/Ex15.jpg,right,training,easy,8,,,,,
,,,,,5c4d8d706b23ab0001a34af2,001,,,,,2024-02-26_20h42.42.998,CRL1e,2023.2.3,Win32,60.60606061,65dbad3905fde4fe1981dc61,65dcf7515c4c8090ce3cb410,,,,,,,,,,,148.4203,0.7,149.1188,149.119,149.77,left,1,0.6482,,149.7701,150.7662,0,2,2,3,1,total,1,images/Ex14.jpg,left,training,easy,8,,,,,
,,,,,5c4d8d706b23ab0001a34af2,001,,,,,2024-02-26_20h42.42.998,CRL1e,2023.2.3,Win32,60.60606061,65dbad3905fde4fe1981dc61,65dcf7515c4c8090ce3cb410,,,,,,,,,,,150.7674,1.3,152.0637,152.0637,152.5827,right,0,0.5162,,152.5828,153.5803,0,3,3,0,1,total,1,images/Ex13.jpg,left,training,easy,8,,,,,
,,,,,5c4d8d706b23ab0001a34af2,001,,,,,2024-02-26_20h42.42.998,CRL1e,2023.2.3,Win32,60.60606061,65dbad3905fde4fe1981dc61,65dcf7515c4c8090ce3cb410,,,,,,,,,,,153.5816,0.6,154.174,154.1741,155.1811,left,1,1.0043,,155.1812,156.1775,0,4,4,2,1,total,1,images/Ex14.jpg,left,training,easy,8,,,,,
,,,,,5c4d8d706b23ab0001a34af2,001,,,,,2024-02-26_20h42.42.998,CRL1e,2023.2.3,Win32,60.60606061,65dbad3905fde4fe1981dc61,65dcf7515c4c8090ce3cb410,,,,,,,,,,,156.1783,1.3,157.4694,157.4694,158.3414,right,1,0.8696,,158.3415,159.342,0,5,5,4,1,total,1,images/Ex15.jpg,right,training,easy,8,,,,,
,,,,,5c4d8d706b23ab0001a34af2,001,,,,,2024-02-26_20h42.42.998,CRL1e,2023.2.3,Win32,60.60606061,65dbad3905fde4fe1981dc61,65dcf7515c4c8090ce3cb410,,,,,,,,,,,159.3426,0.5,159.8413,159.8414,160.781,left,0,0.9348,,160.7811,161.7734,0,6,6,7,1,total,1,images/Ex16.jpg,right,training,easy,8,,,,,
,,,,,5c4d8d706b23ab0001a34af2,001,,,,,2024-02-26_20h42.42.998,CRL1e,2023.2.3,Win32,60.60606061,65dbad3905fde4fe1981dc61,65dcf7515c4c8090ce3cb410,,,,,,,,,,,161.7745,1,162.7709,162.7711,163.6541,right,0,0.8802,,163.6543,164.6448,0,7,7,1,1,total,1,images/Ex13.jpg,left,training,easy,8,,,,,
,,,,,5c4d8d706b23ab0001a34af2,001,,,,,2024-02-26_20h42.42.998,CRL1e,2023.2.3,Win32,60.60606061,65dbad3905fde4fe1981dc61,65dcf7515c4c8090ce3cb410,,,,,,,,,,,164.6456,1.4,166.034,166.034,166.9684,left,0,0.9317,,166.9685,167.9586,1,0,8,7,1,total,1,images/Ex16.jpg,right,training,easy,8,,,,,
,,,,,5c4d8d706b23ab0001a34af2,001,,,,,2024-02-26_20h42.42.998,CRL1e,2023.2.3,Win32,60.60606061,65dbad3905fde4fe1981dc61,65dcf7515c4c8090ce3cb410,,,,,,,,,,,167.9592,1.2,169.1568,169.1568,170.3401,right,1,1.177,,170.3402,171.3381,1,1,9,6,1,total,1,images/Ex16.jpg,right,training,easy,8,,,,,
,,,,,5c4d8d706b23ab0001a34af2,001,,,,,2024-02-26_20h42.42.998,CRL1e,2023.2.3,Win32,60.60606061,65dbad3905fde4fe1981dc61,65dcf7515c4c8090ce3cb410,,,,,,,,,,,171.3387,0.9,172.2368,172.2369,173.2212,left,1,0.9758,,173.2214,174.2175,1,2,10,0,1,total,1,images/Ex13.jpg,left,training,easy,8,,,,,
,,,,,5c4d8d706b23ab0001a34af2,001,,,,,2024-02-26_20h42.42.998,CRL1e,2023.2.3,Win32,60.60606061,65dbad3905fde4fe1981dc61,65dcf7515c4c8090ce3cb410,,,,,,,,,,,174.2184,1.4,175.617,175.6172,176.3012,left,1,0.6805,,176.3013,177.2992,1,3,11,1,1,total,1,images/Ex13.jpg,left,training,easy,8,,,,,
,,,,,5c4d8d706b23ab0001a34af2,001,,,,,2024-02-26_20h42.42.998,CRL1e,2023.2.3,Win32,60.60606061,65dbad3905fde4fe1981dc61,65dcf7515c4c8090ce3cb410,,,,,,,,,,,177.2998,0.6,177.8986,177.8987,178.6144,right,0,0.7087,,178.6145,179.6127,1,4,12,3,1,total,1,images/Ex14.jpg,left,training,easy,8,,,,,
,,,,,5c4d8d706b23ab0001a34af2,001,,,,,2024-02-26_20h42.42.998,CRL1e,2023.2.3,Win32,60.60606061,65dbad3905fde4fe1981dc61,65dcf7515c4c8090ce3cb410,,,,,,,,,,,179.6135,1.5,181.1121,181.1121,181.9788,left,0,0.86,,181.9789,182.9772,1,5,13,5,1,total,1,images/Ex15.jpg,right,training,easy,8,,,,,
,,,,,5c4d8d706b23ab0001a34af2,001,,,,,2024-02-26_20h42.42.998,CRL1e,2023.2.3,Win32,60.60606061,65dbad3905fde4fe1981dc61,65dcf7515c4c8090ce3cb410,,,,,,,,,,,182.9778,0.7,183.6754,183.6754,184.7278,left,1,1.0488,,184.7279,185.7232,1,6,14,2,1,total,1,images/Ex14.jpg,left,training,easy,8,,,,,
,,,,,5c4d8d706b23ab0001a34af2,001,,,,,2024-02-26_20h42.42.998,CRL1e,2023.2.3,Win32,60.60606061,65dbad3905fde4fe1981dc61,65dcf7515c4c8090ce3cb410,,,,,,,,,,,185.724,1.4,187.1168,187.1169,187.8797,right,1,0.761,,187.8797,188.8807,1,7,15,4,1,total,1,images/Ex15.jpg,right,training,easy,8,,,,,
,,,,,5c4d8d706b23ab0001a34af2,001,,,,,2024-02-26_20h42.42.998,CRL1e,2023.2.3,Win32,60.60606061,65dbad3905fde4fe1981dc61,65dcf7515c4c8090ce3cb410,,,,,,,,,,,188.8817,1.1,189.9786,189.9787,190.68,left,1,0.6987,,190.6801,191.6757,2,0,16,1,1,total,1,images/Ex13.jpg,left,training,easy,8,,,,,
,,,,,5c4d8d706b23ab0001a34af2,001,,,,,2024-02-26_20h42.42.998,CRL1e,2023.2.3,Win32,60.60606061,65dbad3905fde4fe1981dc61,65dcf7515c4c8090ce3cb410,,,,,,,,,,,191.6767,1.1,192.7771,192.7772,193.5698,right,1,0.7903,,193.5699,194.5754,2,1,17,6,1,total,1,images/Ex16.jpg,right,training,easy,8,,,,,
,,,,,5c4d8d706b23ab0001a34af2,001,,,,,2024-02-26_20h42.42.998,CRL1e,2023.2.3,Win32,60.60606061,65dbad3905fde4fe1981dc61,65dcf7515c4c8090ce3cb410,,,,,,,,,,,194.5765,1,195.5715,195.5716,196.5198,right,0,0.9367,,196.52,197.5131,2,2,18,2,1,total,1,images/Ex14.jpg,left,training,easy,8,,,,,
,,,,,5c4d8d706b23ab0001a34af2,001,,,,,2024-02-26_20h42.42.998,CRL1e,2023.2.3,Win32,60.60606061,65dbad3905fde4fe1981dc61,65dcf7515c4c8090ce3cb410,,,,,,,,,,,197.5137,0.8,198.3109,198.311,199.0948,left,1,0.7775,,199.0949,200.0924,2,3,19,3,1,total,1,images/Ex14.jpg,left,training,easy,8,,,,,
,,,,,5c4d8d706b23ab0001a34af2,001,,,,,2024-02-26_20h42.42.998,CRL1e,2023.2.3,Win32,60.60606061,65dbad3905fde4fe1981dc61,65dcf7515c4c8090ce3cb410,,,,,,,,,,,200.0933,0.9,200.9916,200.9918,201.7428,left,1,0.7466,,201.7431,202.7395,2,4,20,0,1,total,1,images/Ex13.jpg,left,training,easy,8,,,,,
,,,,,5c4d8d706b23ab0001a34af2,001,,,,,2024-02-26_20h42.42.998,CRL1e,2023.2.3,Win32,60.60606061,65dbad3905fde4fe1981dc61,65dcf7515c4c8090ce3cb410,,,,,,,,,,,202.7402,1.3,204.0382,204.0382,204.8557,right,1,0.811,,204.8557,205.853,2,5,21,7,1,total,1,images/Ex16.jpg,right,training,easy,8,,,,,
,,,,,5c4d8d706b23ab0001a34af2,001,,,,,2024-02-26_20h42.42.998,CRL1e,2023.2.3,Win32,60.60606061,65dbad3905fde4fe1981dc61,65dcf7515c4c8090ce3cb410,,,,,,,,,,,205.8538,0.8,206.6526,206.6526,207.2792,left,0,0.6247,,207.2792,208.2772,2,6,22,5,1,total,1,images/Ex15.jpg,right,training,easy,8,,,,,
,,,,,5c4d8d706b23ab0001a34af2,001,,,,,2024-02-26_20h42.42.998,CRL1e,2023.2.3,Win32,60.60606061,65dbad3905fde4fe1981dc61,65dcf7515c4c8090ce3cb410,,,,,,,,,,,208.2778,1.3,209.5759,209.5759,210.1095,right,1,0.5322,,210.1096,211.1078,2,7,23,4,1,total,1,images/Ex15.jpg,right,training,easy,8,,,,,
,,,,,5c4d8d706b23ab0001a34af2,001,,,,,2024-02-26_20h42.42.998,CRL1e,2023.2.3,Win32,60.60606061,65dbad3905fde4fe1981dc61,65dcf7515c4c8090ce3cb410,,,,,,,,,,,211.1084,1.3,212.3965,212.3966,213.0132,left,1,0.6108,,213.0134,214.0025,3,0,24,2,1,total,1,images/Ex14.jpg,left,training,easy,8,,,,,
,,,,,5c4d8d706b23ab0001a34af2,001,,,,,2024-02-26_20h42.42.998,CRL1e,2023.2.3,Win32,60.60606061,65dbad3905fde4fe1981dc61,65dcf7515c4c8090ce3cb410,,,,,,,,,,,214.0034,1.2,215.1997,215.1997,215.6141,left,1,0.4094,,215.6143,216.6092,3,1,25,0,1,total,1,images/Ex13.jpg,left,training,easy,8,,,,,
,,,,,5c4d8d706b23ab0001a34af2,001,,,,,2024-02-26_20h42.42.998,CRL1e,2023.2.3,Win32,60.60606061,65dbad3905fde4fe1981dc61,65dcf7515c4c8090ce3cb410,,,,,,,,,,,216.61,1.2,217.7988,217.7989,218.3836,left,1,0.5823,,218.3838,219.3739,3,2,26,3,1,total,1,images/Ex14.jpg,left,training,easy,8,,,,,
,,,,,5c4d8d706b23ab0001a34af2,001,,,,,2024-02-26_20h42.42.998,CRL1e,2023.2.3,Win32,60.60606061,65dbad3905fde4fe1981dc61,65dcf7515c4c8090ce3cb410,,,,,,,,,,,219.3748,1.3,220.663,220.6631,221.397,right,1,0.7315,,221.397,222.3976,3,3,27,5,1,total,1,images/Ex15.jpg,right,training,easy,8,,,,,
,,,,,5c4d8d706b23ab0001a34af2,001,,,,,2024-02-26_20h42.42.998,CRL1e,2023.2.3,Win32,60.60606061,65dbad3905fde4fe1981dc61,65dcf7515c4c8090ce3cb410,,,,,,,,,,,222.3984,0.9,223.2971,223.2973,224.0297,left,0,0.7304,,224.0298,225.0255,3,4,28,6,1,total,1,images/Ex16.jpg,right,training,easy,8,,,,,
,,,,,5c4d8d706b23ab0001a34af2,001,,,,,2024-02-26_20h42.42.998,CRL1e,2023.2.3,Win32,60.60606061,65dbad3905fde4fe1981dc61,65dcf7515c4c8090ce3cb410,,,,,,,,,,,225.0268,1.3,226.3242,226.3242,226.9575,right,1,0.6314,,226.9576,227.9578,3,5,29,7,1,total,1,images/Ex16.jpg,right,training,easy,8,,,,,
,,,,,5c4d8d706b23ab0001a34af2,001,,,,,2024-02-26_20h42.42.998,CRL1e,2023.2.3,Win32,60.60606061,65dbad3905fde4fe1981dc61,65dcf7515c4c8090ce3cb410,,,,,,,,,,,227.9584,1.4,229.358,229.3581,229.9138,left,1,0.5488,,229.9139,230.9123,3,6,30,1,1,total,1,images/Ex13.jpg,left,training,easy,8,,,,,
,,,,,5c4d8d706b23ab0001a34af2,001,,,,,2024-02-26_20h42.42.998,CRL1e,2023.2.3,Win32,60.60606061,65dbad3905fde4fe1981dc61,65dcf7515c4c8090ce3cb410,,,,,,,,,,,230.913,1,231.9112,231.9113,232.812,left,0,0.8943,,232.812,233.8097,3,7,31,4,1,total,1,images/Ex15.jpg,right,training,easy,8,,,,,
,,,,,5c4d8d706b23ab0001a34af2,001,,,,,2024-02-26_20h42.42.998,CRL1e,2023.2.3,Win32,60.60606061,65dbad3905fde4fe1981dc61,65dcf7515c4c8090ce3cb410,,,,,,,,,,,233.8102,1.3,235.1092,235.1092,235.6988,right,1,0.588,,235.6989,236.6899,4,0,32,6,1,total,1,images/Ex16.jpg,right,training,easy,8,,,,,
,,,,,5c4d8d706b23ab0001a34af2,001,,,,,2024-02-26_20h42.42.998,CRL1e,2023.2.3,Win32,60.60606061,65dbad3905fde4fe1981dc61,65dcf7515c4c8090ce3cb410,,,,,,,,,,,236.6905,1.4,238.0957,238.0958,238.8459,left,0,0.7484,,238.846,239.8383,4,1,33,5,1,total,1,images/Ex15.jpg,right,training,easy,8,,,,,
,,,,,5c4d8d706b23ab0001a34af2,001,,,,,2024-02-26_20h42.42.998,CRL1e,2023.2.3,Win32,60.60606061,65dbad3905fde4fe1981dc61,65dcf7515c4c8090ce3cb410,,,,,,,,,,,239.8388,0.9,240.7266,240.7267,241.3273,left,1,0.5986,,241.3273,242.3176,4,2,34,0,1,total,1,images/Ex13.jpg,left,training,easy,8,,,,,
,,,,,5c4d8d706b23ab0001a34af2,001,,,,,2024-02-26_20h42.42.998,CRL1e,2023.2.3,Win32,60.60606061,65dbad3905fde4fe1981dc61,65dcf7515c4c8090ce3cb410,,,,,,,,,,,242.3185,0.8,243.1107,243.1108,243.8936,right,0,0.7804,,243.8937,244.8913,4,3,35,2,1,total,1,images/Ex14.jpg,left,training,easy,8,,,,,
,,,,,5c4d8d706b23ab0001a34af2,001,,,,,2024-02-26_20h42.42.998,CRL1e,2023.2.3,Win32,60.60606061,65dbad3905fde4fe1981dc61,65dcf7515c4c8090ce3cb410,,,,,,,,,,,244.8922,1.3,246.1832,246.1832,246.8528,left,0,0.6673,,246.8528,247.8467,4,4,36,4,1,total,1,images/Ex15.jpg,right,training,easy,8,,,,,
,,,,,5c4d8d706b23ab0001a34af2,001,,,,,2024-02-26_20h42.42.998,CRL1e,2023.2.3,Win32,60.60606061,65dbad3905fde4fe1981dc61,65dcf7515c4c8090ce3cb410,,,,,,,,,,,247.8475,1.4,249.2441,249.2441,249.8296,left,1,0.5816,,249.8297,250.8271,4,5,37,1,1,total,1,images/Ex13.jpg,left,training,easy,8,,,,,
,,,,,5c4d8d706b23ab0001a34af2,001,,,,,2024-02-26_20h42.42.998,CRL1e,2023.2.3,Win32,60.60606061,65dbad3905fde4fe1981dc61,65dcf7515c4c8090ce3cb410,,,,,,,,,,,250.8277,1.3,252.1247,252.1247,252.8341,right,1,0.7074,,252.8341,253.8326,4,6,38,7,1,total,1,images/Ex16.jpg,right,training,easy,8,,,,,
,,,,,5c4d8d706b23ab0001a34af2,001,,,,,2024-02-26_20h42.42.998,CRL1e,2023.2.3,Win32,60.60606061,65dbad3905fde4fe1981dc61,65dcf7515c4c8090ce3cb410,,,,,,,,,,,253.8336,1.2,255.0322,255.0322,255.9648,right,0,0.9303,,255.965,256.9534,4,7,39,3,1,total,1,images/Ex14.jpg,left,training,easy,8,,,,,
,,,,,5c4d8d706b23ab0001a34af2,001,,,,,2024-02-26_20h42.42.998,CRL1e,2023.2.3,Win32,60.60606061,65dbad3905fde4fe1981dc61,65dcf7515c4c8090ce3cb410,,,,,,,,,,,256.9541,1.3,258.2521,258.2522,258.9367,left,0,0.6768,,258.9367,259.9348,5,0,40,5,1,total,1,images/Ex15.jpg,right,training,easy,8,,,,,
,,,,,5c4d8d706b23ab0001a34af2,001,,,,,2024-02-26_20h42.42.998,CRL1e,2023.2.3,Win32,60.60606061,65dbad3905fde4fe1981dc61,65dcf7515c4c8090ce3cb410,,,,,,,,,,,259.9354,0.9,260.8338,260.8339,261.6832,left,1,0.8436,,261.6832,262.6809,5,1,41,3,1,total,1,images/Ex14.jpg,left,training,easy,8,,,,,
,,,,,5c4d8d706b23ab0001a34af2,001,,,,,2024-02-26_20h42.42.998,CRL1e,2023.2.3,Win32,60.60606061,65dbad3905fde4fe1981dc61,65dcf7515c4c8090ce3cb410,,,,,,,,,,,262.6817,1.1,263.781,263.781,264.5072,right,1,0.7245,,264.5074,265.5023,5,2,42,4,1,total,1,images/Ex15.jpg,right,training,easy,8,,,,,
,,,,,5c4d8d706b23ab0001a34af2,001,,,,,2024-02-26_20h42.42.998,CRL1e,2023.2.3,Win32,60.60606061,65dbad3905fde4fe1981dc61,65dcf7515c4c8090ce3cb410,,,,,,,,,,,265.5031,0.9,266.4013,266.4013,266.9619,left,1,0.5535,,266.9619,267.9594,5,3,43,0,1,total,1,images/Ex13.jpg,left,training,easy,8,,,,,
,,,,,5c4d8d706b23ab0001a34af2,001,,,,,2024-02-26_20h42.42.998,CRL1e,2023.2.3,Win32,60.60606061,65dbad3905fde4fe1981dc61,65dcf7515c4c8090ce3cb410,,,,,,,,,,,267.9602,1.4,269.3588,269.3588,270.5263,right,0,1.1619,,270.5264,271.5236,5,4,44,2,1,total,1,images/Ex14.jpg,left,training,easy,8,,,,,
,,,,,5c4d8d706b23ab0001a34af2,001,,,,,2024-02-26_20h42.42.998,CRL1e,2023.2.3,Win32,60.60606061,65dbad3905fde4fe1981dc61,65dcf7515c4c8090ce3cb410,,,,,,,,,,,271.5242,0.8,272.3215,272.3216,272.8884,left,1,0.5619,,272.8884,273.8775,5,5,45,1,1,total,1,images/Ex13.jpg,left,training,easy,8,,,,,
,,,,,5c4d8d706b23ab0001a34af2,001,,,,,2024-02-26_20h42.42.998,CRL1e,2023.2.3,Win32,60.60606061,65dbad3905fde4fe1981dc61,65dcf7515c4c8090ce3cb410,,,,,,,,,,,273.8788,1.4,275.2763,275.2763,275.9118,left,0,0.6332,,275.9118,276.8998,5,6,46,6,1,total,1,images/Ex16.jpg,right,training,easy,8,,,,,
,,,,,5c4d8d706b23ab0001a34af2,001,,,,,2024-02-26_20h42.42.998,CRL1e,2023.2.3,Win32,60.60606061,65dbad3905fde4fe1981dc61,65dcf7515c4c8090ce3cb410,,,,,,,,,,,276.9004,1.5,278.3983,278.3984,278.8819,right,1,0.4801,,278.8819,279.8801,5,7,47,7,1,total,1,images/Ex16.jpg,right,training,easy,8,,,,,
,,,,,5c4d8d706b23ab0001a34af2,001,,,,,2024-02-26_20h42.42.998,CRL1e,2023.2.3,Win32,60.60606061,65dbad3905fde4fe1981dc61,65dcf7515c4c8090ce3cb410,,,,,,,,,,,279.8877,0.6,280.4853,280.4853,281.0854,left,0,0.5983,,281.0854,282.0786,0,0,0,1,1,total,2,images/Ex13.jpg,right,reversed,easy,8,,,,,
,,,,,5c4d8d706b23ab0001a34af2,001,,,,,2024-02-26_20h42.42.998,CRL1e,2023.2.3,Win32,60.60606061,65dbad3905fde4fe1981dc61,65dcf7515c4c8090ce3cb410,,,,,,,,,,,282.0793,0.5,282.578,282.5781,283.888,right,1,1.3075,,283.8881,284.883,0,1,1,3,1,total,2,images/Ex14.jpg,right,reversed,easy,8,,,,,
,,,,,5c4d8d706b23ab0001a34af2,001,,,,,2024-02-26_20h42.42.998,CRL1e,2023.2.3,Win32,60.60606061,65dbad3905fde4fe1981dc61,65dcf7515c4c8090ce3cb410,,,,,,,,,,,284.8967,0.8,285.7012,285.7013,286.3967,right,1,0.6934,,286.3969,287.3901,0,2,2,2,1,total,2,images/Ex14.jpg,right,reversed,easy,8,,,,,
,,,,,5c4d8d706b23ab0001a34af2,001,,,,,2024-02-26_20h42.42.998,CRL1e,2023.2.3,Win32,60.60606061,65dbad3905fde4fe1981dc61,65dcf7515c4c8090ce3cb410,,,,,,,,,,,287.3909,1.1,288.4826,288.4828,289.2797,left,1,0.7947,,289.2798,290.2699,0,3,3,4,1,total,2,images/Ex15.jpg,left,reversed,easy,8,,,,,
,,,,,5c4d8d706b23ab0001a34af2,001,,,,,2024-02-26_20h42.42.998,CRL1e,2023.2.3,Win32,60.60606061,65dbad3905fde4fe1981dc61,65dcf7515c4c8090ce3cb410,,,,,,,,,,,290.2706,0.9,291.1692,291.1693,292.0435,right,1,0.8727,,292.0436,293.0417,0,4,4,0,1,total,2,images/Ex13.jpg,right,reversed,easy,8,,,,,
,,,,,5c4d8d706b23ab0001a34af2,001,,,,,2024-02-26_20h42.42.998,CRL1e,2023.2.3,Win32,60.60606061,65dbad3905fde4fe1981dc61,65dcf7515c4c8090ce3cb410,,,,,,,,,,,293.0426,0.8,293.8344,293.8345,294.5515,right,0,0.7089,,294.5516,295.5492,0,5,5,5,1,total,2,images/Ex15.jpg,left,reversed,easy,8,,,,,
,,,,,5c4d8d706b23ab0001a34af2,001,,,,,2024-02-26_20h42.42.998,CRL1e,2023.2.3,Win32,60.60606061,65dbad3905fde4fe1981dc61,65dcf7515c4c8090ce3cb410,,,,,,,,,,,295.5505,0.8,296.3477,296.3478,297.0412,right,0,0.6915,,297.0412,298.0388,0,6,6,6,1,total,2,images/Ex16.jpg,left,reversed,easy,8,,,,,
,,,,,5c4d8d706b23ab0001a34af2,001,,,,,2024-02-26_20h42.42.998,CRL1e,2023.2.3,Win32,60.60606061,65dbad3905fde4fe1981dc61,65dcf7515c4c8090ce3cb410,,,,,,,,,,,298.0394,1.2,299.2373,299.2374,299.9965,left,1,0.7492,,299.9965,300.9865,0,7,7,7,1,total,2,images/Ex16.jpg,left,reversed,easy,8,,,,,
,,,,,5c4d8d706b23ab0001a34af2,001,,,,,2024-02-26_20h42.42.998,CRL1e,2023.2.3,Win32,60.60606061,65dbad3905fde4fe1981dc61,65dcf7515c4c8090ce3cb410,,,,,,,,,,,300.9874,0.8,301.7857,301.7858,302.3697,left,0,0.5814,,302.3698,303.3623,1,0,8,1,1,total,2,images/Ex13.jpg,right,reversed,easy,8,,,,,
,,,,,5c4d8d706b23ab0001a34af2,001,,,,,2024-02-26_20h42.42.998,CRL1e,2023.2.3,Win32,60.60606061,65dbad3905fde4fe1981dc61,65dcf7515c4c8090ce3cb410,,,,,,,,,,,303.3629,1.1,304.4642,304.4643,305.177,right,0,0.7089,,305.1771,306.1715,1,1,9,7,1,total,2,images/Ex16.jpg,left,reversed,easy,8,,,,,
,,,,,5c4d8d706b23ab0001a34af2,001,,,,,2024-02-26_20h42.42.998,CRL1e,2023.2.3,Win32,60.60606061,65dbad3905fde4fe1981dc61,65dcf7515c4c8090ce3cb410,,,,,,,,,,,306.1724,0.6,306.771,306.7711,307.5213,left,0,0.7429,,307.5213,308.5192,1,2,10,3,1,total,2,images/Ex14.jpg,right,reversed,easy,8,,,,,
,,,,,5c4d8d706b23ab0001a34af2,001,,,,,2024-02-26_20h42.42.998,CRL1e,2023.2.3,Win32,60.60606061,65dbad3905fde4fe1981dc61,65dcf7515c4c8090ce3cb410,,,,,,,,,,,308.52,1.2,309.7188,309.7188,310.3724,right,0,0.6454,,310.3725,311.3668,1,3,11,6,1,total,2,images/Ex16.jpg,left,reversed,easy,8,,,,,
,,,,,5c4d8d706b23ab0001a34af2,001,,,,,2024-02-26_20h42.42.998,CRL1e,2023.2.3,Win32,60.60606061,65dbad3905fde4fe1981dc61,65dcf7515c4c8090ce3cb410,,,,,,,,,,,311.3675,0.8,312.1662,312.1663,312.8089,left,1,0.6413,,312.8091,313.8071,1,4,12,4,1,total,2,images/Ex15.jpg,left,reversed,easy,8,,,,,
,,,,,5c4d8d706b23ab0001a34af2,001,,,,,2024-02-26_20h42.42.998,CRL1e,2023.2.3,Win32,60.60606061,65dbad3905fde4fe1981dc61,65dcf7515c4c8090ce3cb410,,,,,,,,,,,313.808,1.3,315.0961,315.0963,315.7876,left,0,0.6891,,315.7877,316.7837,1,5,13,2,1,total,2,images/Ex14.jpg,right,reversed,easy,8,,,,,
,,,,,5c4d8d706b23ab0001a34af2,001,,,,,2024-02-26_20h42.42.998,CRL1e,2023.2.3,Win32,60.60606061,65dbad3905fde4fe1981dc61,65dcf7515c4c8090ce3cb410,,,,,,,,,,,316.7847,0.9,317.6763,317.6764,318.5038,right,1,0.8255,,318.5039,319.5024,1,6,14,0,1,total,2,images/Ex13.jpg,right,reversed,easy,8,,,,,
,,,,,5c4d8d706b23ab0001a34af2,001,,,,,2024-02-26_20h42.42.998,CRL1e,2023.2.3,Win32,60.60606061,65dbad3905fde4fe1981dc61,65dcf7515c4c8090ce3cb410,,,,,,,,,,,319.5032,0.8,320.3007,320.3008,320.9416,right,0,0.6336,,320.9416,321.9391,1,7,15,5,1,total,2,images/Ex15.jpg,left,reversed,easy,8,,,,,
,,,,,5c4d8d706b23ab0001a34af2,001,,,,,2024-02-26_20h42.42.998,CRL1e,2023.2.3,Win32,60.60606061,65dbad3905fde4fe1981dc61,65dcf7515c4c8090ce3cb410,,,,,,,,,,,321.9399,1.5,323.4379,323.4381,324.1226,left,0,0.6819,,324.1226,325.1127,2,0,16,2,1,total,2,images/Ex14.jpg,right,reversed,easy,8,,,,,
,,,,,5c4d8d706b23ab0001a34af2,001,,,,,2024-02-26_20h42.42.998,CRL1e,2023.2.3,Win32,60.60606061,65dbad3905fde4fe1981dc61,65dcf7515c4c8090ce3cb410,,,,,,,,,,,325.1132,1,326.1118,326.1119,326.8764,right,1,0.7624,,326.8766,327.8723,2,1,17,1,1,total,2,images/Ex13.jpg,right,reversed,easy,8,,,,,
,,,,,5c4d8d706b23ab0001a34af2,001,,,,,2024-02-26_20h42.42.998,CRL1e,2023.2.3,Win32,60.60606061,65dbad3905fde4fe1981dc61,65dcf7515c4c8090ce3cb410,,,,,,,,,,,327.8731,1.3,329.1696,329.1697,329.7413,left,1,0.5701,,329.7413,330.7403,2,2,18,5,1,total,2,images/Ex15.jpg,left,reversed,easy,8,,,,,
,,,,,5c4d8d706b23ab0001a34af2,001,,,,,2024-02-26_20h42.42.998,CRL1e,2023.2.3,Win32,60.60606061,65dbad3905fde4fe1981dc61,65dcf7515c4c8090ce3cb410,,,,,,,,,,,330.7412,1.4,332.1389,332.139,332.8066,right,0,0.6653,,332.8067,333.8018,2,3,19,6,1,total,2,images/Ex16.jpg,left,reversed,easy,8,,,,,
,,,,,5c4d8d706b23ab0001a34af2,001,,,,,2024-02-26_20h42.42.998,CRL1e,2023.2.3,Win32,60.60606061,65dbad3905fde4fe1981dc61,65dcf7515c4c8090ce3cb410,,,,,,,,,,,333.8027,1,334.8017,334.8018,335.5296,left,1,0.726,,335.5297,336.5256,2,4,20,7,1,total,2,images/Ex16.jpg,left,reversed,easy,8,,,,,
,,,,,5c4d8d706b23ab0001a34af2,001,,,,,2024-02-26_20h42.42.998,CRL1e,2023.2.3,Win32,60.60606061,65dbad3905fde4fe1981dc61,65dcf7515c4c8090ce3cb410,,,,,,,,,,,336.5261,0.9,337.4174,337.4175,338.2836,right,0,0.8644,,338.2837,339.2779,2,5,21,4,1,total,2,images/Ex15.jpg,left,reversed,easy,8,,,,,
,,,,,5c4d8d706b23ab0001a34af2,001,,,,,2024-02-26_20h42.42.998,CRL1e,2023.2.3,Win32,60.60606061,65dbad3905fde4fe1981dc61,65dcf7515c4c8090ce3cb410,,,,,,,,,,,339.2789,0.6,339.8815,339.8817,340.5228,left,0,0.6391,,340.5229,341.5209,2,6,22,3,1,total,2,images/Ex14.jpg,right,reversed,easy,8,,,,,
,,,,,5c4d8d706b23ab0001a34af2,001,,,,,2024-02-26_20h42.42.998,CRL1e,2023.2.3,Win32,60.60606061,65dbad3905fde4fe1981dc61,65dcf7515c4c8090ce3cb410,,,,,,,,,,,341.5215,1.3,342.8195,342.8196,343.5028,right,1,0.6779,,343.5029,344.5008,2,7,23,0,1,total,2,images/Ex13.jpg,right,reversed,easy,8,,,,,
,,,,,5c4d8d706b23ab0001a34af2,001,,,,,2024-02-26_20h42.42.998,CRL1e,2023.2.3,Win32,60.60606061,65dbad3905fde4fe1981dc61,65dcf7515c4c8090ce3cb410,,,,,,,,,,,344.5015,1.1,345.5995,345.5998,346.234,right,1,0.6287,,346.234,347.2323,3,0,24,0,1,total,2,images/Ex13.jpg,right,reversed,easy,8,,,,,
,,,,,5c4d8d706b23ab0001a34af2,001,,,,,2024-02-26_20h42.42.998,CRL1e,2023.2.3,Win32,60.60606061,65dbad3905fde4fe1981dc61,65dcf7515c4c8090ce3cb410,,,,,,,,,,,347.2329,0.7,347.9308,347.9308,348.5311,left,0,0.5929,,348.5311,349.529,3,1,25,3,1,total,2,images/Ex14.jpg,right,reversed,easy,8,,,,,
,,,,,5c4d8d706b23ab0001a34af2,001,,,,,2024-02-26_20h42.42.998,CRL1e,2023.2.3,Win32,60.60606061,65dbad3905fde4fe1981dc61,65dcf7515c4c8090ce3cb410,,,,,,,,,,,349.5299,1.3,350.8277,350.8279,351.5123,right,1,0.6779,,351.5124,352.5094,3,2,26,2,1,total,2,images/Ex14.jpg,right,reversed,easy,8,,,,,
,,,,,5c4d8d706b23ab0001a34af2,001,,,,,2024-02-26_20h42.42.998,CRL1e,2023.2.3,Win32,60.60606061,65dbad3905fde4fe1981dc61,65dcf7515c4c8090ce3cb410,,,,,,,,,,,352.5103,1.3,353.8092,353.8093,354.4587,right,0,0.6429,,354.4588,355.4578,3,3,27,5,1,total,2,images/Ex15.jpg,left,reversed,easy,8,,,,,
,,,,,5c4d8d706b23ab0001a34af2,001,,,,,2024-02-26_20h42.42.998,CRL1e,2023.2.3,Win32,60.60606061,65dbad3905fde4fe1981dc61,65dcf7515c4c8090ce3cb410,,,,,,,,,,,355.4583,1.2,356.6559,356.656,357.2398,left,1,0.578,,357.24,358.2381,3,4,28,4,1,total,2,images/Ex15.jpg,left,reversed,easy,8,,,,,
,,,,,5c4d8d706b23ab0001a34af2,001,,,,,2024-02-26_20h42.42.998,CRL1e,2023.2.3,Win32,60.60606061,65dbad3905fde4fe1981dc61,65dcf7515c4c8090ce3cb410,,,,,,,,,,,358.2388,1.1,359.3362,359.3364,360.0199,right,0,0.6771,,360.02,361.0103,3,5,29,7,1,total,2,images/Ex16.jpg,left,reversed,easy,8,,,,,
,,,,,5c4d8d706b23ab0001a34af2,001,,,,,2024-02-26_20h42.42.998,CRL1e,2023.2.3,Win32,60.60606061,65dbad3905fde4fe1981dc61,65dcf7515c4c8090ce3cb410,,,,,,,,,,,361.0108,1.1,362.1075,362.1076,362.7947,right,1,0.6836,,362.7948,363.7835,3,6,30,1,1,total,2,images/Ex13.jpg,right,reversed,easy,8,,,,,
,,,,,5c4d8d706b23ab0001a34af2,001,,,,,2024-02-26_20h42.42.998,CRL1e,2023.2.3,Win32,60.60606061,65dbad3905fde4fe1981dc61,65dcf7515c4c8090ce3cb410,,,,,,,,,,,363.7847,0.9,364.6803,364.6804,365.1746,left,1,0.4925,,365.1746,366.1625,3,7,31,6,1,total,2,images/Ex16.jpg,left,reversed,easy,8,,,,,
,,,,,5c4d8d706b23ab0001a34af2,001,,,,,2024-02-26_20h42.42.998,CRL1e,2023.2.3,Win32,60.60606061,65dbad3905fde4fe1981dc61,65dcf7515c4c8090ce3cb410,,,,,,,,,,,366.163,1.4,367.5611,367.5612,368.0969,left,1,0.5281,,368.0969,369.0856,4,0,32,5,1,total,2,images/Ex15.jpg,left,reversed,easy,8,,,,,
,,,,,5c4d8d706b23ab0001a34af2,001,,,,,2024-02-26_20h42.42.998,CRL1e,2023.2.3,Win32,60.60606061,65dbad3905fde4fe1981dc61,65dcf7515c4c8090ce3cb410,,,,,,,,,,,369.0863,0.5,369.5852,369.5853,370.3,right,1,0.7129,,370.3,371.3004,4,1,33,1,1,total,2,images/Ex13.jpg,right,reversed,easy,8,,,,,
,,,,,5c4d8d706b23ab0001a34af2,001,,,,,2024-02-26_20h42.42.998,CRL1e,2023.2.3,Win32,60.60606061,65dbad3905fde4fe1981dc61,65dcf7515c4c8090ce3cb410,,,,,,,,,,,371.3013,0.5,371.7987,371.7988,372.5977,left,1,0.7967,,372.5977,373.5995,4,2,34,7,1,total,2,images/Ex16.jpg,left,reversed,easy,8,,,,,
,,,,,5c4d8d706b23ab0001a34af2,001,,,,,2024-02-26_20h42.42.998,CRL1e,2023.2.3,Win32,60.60606061,65dbad3905fde4fe1981dc61,65dcf7515c4c8090ce3cb410,,,,,,,,,,,373.6005,1.3,374.8969,374.8969,375.4148,left,1,0.5158,,375.4149,376.4099,4,3,35,6,1,total,2,images/Ex16.jpg,left,reversed,easy,8,,,,,
,,,,,5c4d8d706b23ab0001a34af2,001,,,,,2024-02-26_20h42.42.998,CRL1e,2023.2.3,Win32,60.60606061,65dbad3905fde4fe1981dc61,65dcf7515c4c8090ce3cb410,,,,,,,,,,,376.4107,1.1,377.5022,377.5022,378.0092,left,0,0.5047,,378.0093,379.0003,4,4,36,0,1,total,2,images/Ex13.jpg,right,reversed,easy,8,,,,,
,,,,,5c4d8d706b23ab0001a34af2,001,,,,,2024-02-26_20h42.42.998,CRL1e,2023.2.3,Win32,60.60606061,65dbad3905fde4fe1981dc61,65dcf7515c4c8090ce3cb410,,,,,,,,,,,379.001,1.3,380.2999,380.2999,380.9519,left,1,0.6482,,380.952,381.948,4,5,37,4,1,total,2,images/Ex15.jpg,left,reversed,easy,8,,,,,
,,,,,5c4d8d706b23ab0001a34af2,001,,,,,2024-02-26_20h42.42.998,CRL1e,2023.2.3,Win32,60.60606061,65dbad3905fde4fe1981dc61,65dcf7515c4c8090ce3cb410,,,,,,,,,,,381.9486,0.9,382.8469,382.847,383.3471,right,1,0.4932,,383.3473,384.3445,4,6,38,2,1,total,2,images/Ex14.jpg,right,reversed,easy,8,,,,,
,,,,,5c4d8d706b23ab0001a34af2,001,,,,,2024-02-26_20h42.42.998,CRL1e,2023.2.3,Win32,60.60606061,65dbad3905fde4fe1981dc61,65dcf7515c4c8090ce3cb410,,,,,,,,,,,384.3455,0.8,385.1441,385.1442,385.7109,right,1,0.5626,,385.7109,386.709,4,7,39,3,1,total,2,images/Ex14.jpg,right,reversed,easy,8,,,,,
,,,,,5c4d8d706b23ab0001a34af2,001,,,,,2024-02-26_20h42.42.998,CRL1e,2023.2.3,Win32,60.60606061,65dbad3905fde4fe1981dc61,65dcf7515c4c8090ce3cb410,,,,,,,,,,,386.7096,0.9,387.6082,387.6083,388.3428,right,0,0.7258,,388.3429,389.3319,5,0,40,7,1,total,2,images/Ex16.jpg,left,reversed,easy,8,,,,,
,,,,,5c4d8d706b23ab0001a34af2,001,,,,,2024-02-26_20h42.42.998,CRL1e,2023.2.3,Win32,60.60606061,65dbad3905fde4fe1981dc61,65dcf7515c4c8090ce3cb410,,,,,,,,,,,389.3324,0.6,389.9318,389.9318,390.5639,right,1,0.6304,,390.5639,391.5619,5,1,41,2,1,total,2,images/Ex14.jpg,right,reversed,easy,8,,,,,
,,,,,5c4d8d706b23ab0001a34af2,001,,,,,2024-02-26_20h42.42.998,CRL1e,2023.2.3,Win32,60.60606061,65dbad3905fde4fe1981dc61,65dcf7515c4c8090ce3cb410,,,,,,,,,,,391.5628,0.8,392.3608,392.3609,392.8807,right,1,0.518,,392.8808,393.879,5,2,42,3,1,total,2,images/Ex14.jpg,right,reversed,easy,8,,,,,
,,,,,5c4d8d706b23ab0001a34af2,001,,,,,2024-02-26_20h42.42.998,CRL1e,2023.2.3,Win32,60.60606061,65dbad3905fde4fe1981dc61,65dcf7515c4c8090ce3cb410,,,,,,,,,,,393.8799,1.4,395.2745,395.2745,396.004,left,1,0.7268,,396.0041,396.9994,5,3,43,6,1,total,2,images/Ex16.jpg,left,reversed,easy,8,,,,,
,,,,,5c4d8d706b23ab0001a34af2,001,,,,,2024-02-26_20h42.42.998,CRL1e,2023.2.3,Win32,60.60606061,65dbad3905fde4fe1981dc61,65dcf7515c4c8090ce3cb410,,,,,,,,,,,397.0007,1.4,398.398,398.3981,398.8661,left,1,0.4613,,398.8661,399.8642,5,4,44,4,1,total,2,images/Ex15.jpg,left,reversed,easy,8,,,,,
,,,,,5c4d8d706b23ab0001a34af2,001,,,,,2024-02-26_20h42.42.998,CRL1e,2023.2.3,Win32,60.60606061,65dbad3905fde4fe1981dc61,65dcf7515c4c8090ce3cb410,,,,,,,,,,,399.8648,1,400.8619,400.8619,401.546,right,1,0.6774,,401.5461,402.544,5,5,45,0,1,total,2,images/Ex13.jpg,right,reversed,easy,8,,,,,
,,,,,5c4d8d706b23ab0001a34af2,001,,,,,2024-02-26_20h42.42.998,CRL1e,2023.2.3,Win32,60.60606061,65dbad3905fde4fe1981dc61,65dcf7515c4c8090ce3cb410,,,,,,,,,,,402.5447,1.1,403.6426,403.6427,404.2463,right,1,0.6005,,404.2464,405.2503,5,6,46,1,1,total,2,images/Ex13.jpg,right,reversed,easy,8,,,,,
,,,,,5c4d8d706b23ab0001a34af2,001,,,,,2024-02-26_20h42.42.998,CRL1e,2023.2.3,Win32,60.60606061,65dbad3905fde4fe1981dc61,65dcf7515c4c8090ce3cb410,,,,,,,,,,,405.2508,1.2,406.4491,406.4491,407.0501,left,1,0.5994,,407.0502,408.0381,5,7,47,5,1,total,2,images/Ex15.jpg,left,reversed,easy,8,,,,,
,,,,,5c4d8d706b23ab0001a34af2,001,,,,,2024-02-26_20h42.42.998,CRL1e,2023.2.3,Win32,60.60606061,65dbad3905fde4fe1981dc61,65dcf7515c4c8090ce3cb410,,,,,,408.0397,418.7388,space,10.689,,418.784,1.1,419.8758,419.8759,420.6537,left,0,0.7757,,420.6538,421.6508,0,0,0,5,1,partial,1,images/Ex11.jpg,right,training,easy,8,,,,,
,,,,,5c4d8d706b23ab0001a34af2,001,,,,,2024-02-26_20h42.42.998,CRL1e,2023.2.3,Win32,60.60606061,65dbad3905fde4fe1981dc61,65dcf7515c4c8090ce3cb410,,,,,,,,,,,421.6515,0.7,422.3441,422.3442,423.3422,right,1,0.9923,,423.3422,424.3381,0,1,1,7,1,partial,1,images/Ex12.jpg,right,training,easy,8,,,,,
,,,,,5c4d8d706b23ab0001a34af2,001,,,,,2024-02-26_20h42.42.998,CRL1e,2023.2.3,Win32,60.60606061,65dbad3905fde4fe1981dc61,65dcf7515c4c8090ce3cb410,,,,,,,,,,,424.3386,0.6,424.9377,424.9378,425.6207,right,1,0.6761,,425.6208,426.613,0,2,2,6,1,partial,1,images/Ex12.jpg,right,training,easy,8,,,,,
,,,,,5c4d8d706b23ab0001a34af2,001,,,,,2024-02-26_20h42.42.998,CRL1e,2023.2.3,Win32,60.60606061,65dbad3905fde4fe1981dc61,65dcf7515c4c8090ce3cb410,,,,,,,,,,,426.6136,0.5,427.1083,427.1084,427.8096,left,1,0.6992,,427.8097,428.8085,0,3,3,1,1,partial,1,images/Ex9.jpg,left,training,easy,8,,,,,
,,,,,5c4d8d706b23ab0001a34af2,001,,,,,2024-02-26_20h42.42.998,CRL1e,2023.2.3,Win32,60.60606061,65dbad3905fde4fe1981dc61,65dcf7515c4c8090ce3cb410,,,,,,,,,,,428.81,1,429.8006,429.8007,430.6738,right,1,0.871,,430.6739,431.6661,0,4,4,4,1,partial,1,images/Ex11.jpg,right,training,easy,8,,,,,
,,,,,5c4d8d706b23ab0001a34af2,001,,,,,2024-02-26_20h42.42.998,CRL1e,2023.2.3,Win32,60.60606061,65dbad3905fde4fe1981dc61,65dcf7515c4c8090ce3cb410,,,,,,,,,,,431.6668,1.2,432.8644,432.8644,433.5074,left,1,0.6409,,433.5075,434.497,0,5,5,2,1,partial,1,images/Ex10.jpg,left,training,easy,8,,,,,
,,,,,5c4d8d706b23ab0001a34af2,001,,,,,2024-02-26_20h42.42.998,CRL1e,2023.2.3,Win32,60.60606061,65dbad3905fde4fe1981dc61,65dcf7515c4c8090ce3cb410,,,,,,,,,,,434.4976,1.4,435.8946,435.8946,436.6769,right,0,0.7762,,436.677,437.6666,0,6,6,0,1,partial,1,images/Ex9.jpg,left,training,easy,8,,,,,
,,,,,5c4d8d706b23ab0001a34af2,001,,,,,2024-02-26_20h42.42.998,CRL1e,2023.2.3,Win32,60.60606061,65dbad3905fde4fe1981dc61,65dcf7515c4c8090ce3cb410,,,,,,,,,,,437.6675,0.6,438.2631,438.2632,439.086,left,1,0.8198,,439.0861,440.0772,0,7,7,3,1,partial,1,images/Ex10.jpg,left,training,easy,8,,,,,
,,,,,5c4d8d706b23ab0001a34af2,001,,,,,2024-02-26_20h42.42.998,CRL1e,2023.2.3,Win32,60.60606061,65dbad3905fde4fe1981dc61,65dcf7515c4c8090ce3cb410,,,,,,,,,,,440.0782,1.1,441.181,441.1812,442.0069,right,1,0.8189,,442.007,443.0039,1,0,8,5,1,partial,1,images/Ex11.jpg,right,training,easy,8,,,,,
,,,,,5c4d8d706b23ab0001a34af2,001,,,,,2024-02-26_20h42.42.998,CRL1e,2023.2.3,Win32,60.60606061,65dbad3905fde4fe1981dc61,65dcf7515c4c8090ce3cb410,,,,,,,,,,,443.0046,0.5,443.5044,443.5045,444.2631,left,1,0.7568,,444.2632,445.2613,1,1,9,2,1,partial,1,images/Ex10.jpg,left,training,easy,8,,,,,
,,,,,5c4d8d706b23ab0001a34af2,001,,,,,2024-02-26_20h42.42.998,CRL1e,2023.2.3,Win32,60.60606061,65dbad3905fde4fe1981dc61,65dcf7515c4c8090ce3cb410,,,,,,,,,,,445.2621,1.5,446.7542,446.7542,447.3397,right,1,0.5832,,447.3398,448.3316,1,2,10,4,1,partial,1,images/Ex11.jpg,right,training,easy,8,,,,,
,,,,,5c4d8d706b23ab0001a34af2,001,,,,,2024-02-26_20h42.42.998,CRL1e,2023.2.3,Win32,60.60606061,65dbad3905fde4fe1981dc61,65dcf7515c4c8090ce3cb410,,,,,,,,,,,448.3325,1,449.3241,449.3241,450.0306,left,0,0.7022,,450.0306,451.0287,1,3,11,6,1,partial,1,images/Ex12.jpg,right,training,easy,8,,,,,
,,,,,5c4d8d706b23ab0001a34af2,001,,,,,2024-02-26_20h42.42.998,CRL1e,2023.2.3,Win32,60.60606061,65dbad3905fde4fe1981dc61,65dcf7515c4c8090ce3cb410,,,,,,,,,,,451.0293,1.2,452.2275,452.2277,452.8448,right,0,0.6122,,452.8449,453.8359,1,4,12,0,1,partial,1,images/Ex9.jpg,left,training,easy,8,,,,,
,,,,,5c4d8d706b23ab0001a34af2,001,,,,,2024-02-26_20h42.42.998,CRL1e,2023.2.3,Win32,60.60606061,65dbad3905fde4fe1981dc61,65dcf7515c4c8090ce3cb410,,,,,,,,,,,453.8365,1.1,454.935,454.9351,455.669,right,0,0.7318,,455.6691,456.6639,1,5,13,3,1,partial,1,images/Ex10.jpg,left,training,easy,8,,,,,
,,,,,5c4d8d706b23ab0001a34af2,001,,,,,2024-02-26_20h42.42.998,CRL1e,2023.2.3,Win32,60.60606061,65dbad3905fde4fe1981dc61,65dcf7515c4c8090ce3cb410,,,,,,,,,,,456.6648,0.9,457.5621,457.5622,458.2833,left,1,0.7185,,458.2833,459.278,1,6,14,1,1,partial,1,images/Ex9.jpg,left,training,easy,8,,,,,
,,,,,5c4d8d706b23ab0001a34af2,001,,,,,2024-02-26_20h42.42.998,CRL1e,2023.2.3,Win32,60.60606061,65dbad3905fde4fe1981dc61,65dcf7515c4c8090ce3cb410,,,,,,,,,,,459.2786,1.4,460.6801,460.6803,461.327,right,1,0.6446,,461.3271,462.3288,1,7,15,7,1,partial,1,images/Ex12.jpg,right,training,easy,8,,,,,
,,,,,5c4d8d706b23ab0001a34af2,001,,,,,2024-02-26_20h42.42.998,CRL1e,2023.2.3,Win32,60.60606061,65dbad3905fde4fe1981dc61,65dcf7515c4c8090ce3cb410,,,,,,,,,,,462.3296,1.4,463.7238,463.7239,464.4101,left,1,0.6835,,464.4101,465.405,2,0,16,1,1,partial,1,images/Ex9.jpg,left,training,easy,8,,,,,
,,,,,5c4d8d706b23ab0001a34af2,001,,,,,2024-02-26_20h42.42.998,CRL1e,2023.2.3,Win32,60.60606061,65dbad3905fde4fe1981dc61,65dcf7515c4c8090ce3cb410,,,,,,,,,,,465.4057,1.3,466.6971,466.6972,467.2824,right,1,0.5795,,467.2827,468.2794,2,1,17,5,1,partial,1,images/Ex11.jpg,right,training,easy,8,,,,,
,,,,,5c4d8d706b23ab0001a34af2,001,,,,,2024-02-26_20h42.42.998,CRL1e,2023.2.3,Win32,60.60606061,65dbad3905fde4fe1981dc61,65dcf7515c4c8090ce3cb410,,,,,,,,,,,468.2806,0.6,468.8788,468.8789,469.5296,right,1,0.6431,,469.5297,470.5266,2,2,18,4,1,partial,1,images/Ex11.jpg,right,training,easy,8,,,,,
,,,,,5c4d8d706b23ab0001a34af2,001,,,,,2024-02-26_20h42.42.998,CRL1e,2023.2.3,Win32,60.60606061,65dbad3905fde4fe1981dc61,65dcf7515c4c8090ce3cb410,,,,,,,,,,,470.5274,1.2,471.716,471.7161,472.4446,left,1,0.721,,472.4448,473.4406,2,3,19,2,1,partial,1,images/Ex10.jpg,left,training,easy,8,,,,,
,,,,,5c4d8d706b23ab0001a34af2,001,,,,,2024-02-26_20h42.42.998,CRL1e,2023.2.3,Win32,60.60606061,65dbad3905fde4fe1981dc61,65dcf7515c4c8090ce3cb410,,,,,,,,,,,473.4415,1,474.4399,474.4399,475.0235,right,0,0.578,,475.0235,476.0214,2,4,20,0,1,partial,1,images/Ex9.jpg,left,training,easy,8,,,,,
,,,,,5c4d8d706b23ab0001a34af2,001,,,,,2024-02-26_20h42.42.998,CRL1e,2023.2.3,Win32,60.60606061,65dbad3905fde4fe1981dc61,65dcf7515c4c8090ce3cb410,,,,,,,,,,,476.0222,0.8,476.821,476.821,477.421,right,1,0.5951,,477.4211,478.4188,2,5,21,7,1,partial,1,images/Ex12.jpg,right,training,easy,8,,,,,
,,,,,5c4d8d706b23ab0001a34af2,001,,,,,2024-02-26_20h42.42.998,CRL1e,2023.2.3,Win32,60.60606061,65dbad3905fde4fe1981dc61,65dcf7515c4c8090ce3cb410,,,,,,,,,,,478.4193,1.4,479.8182,479.8182,480.4032,right,1,0.581,,480.4033,481.3995,2,6,22,6,1,partial,1,images/Ex12.jpg,right,training,easy,8,,,,,
,,,,,5c4d8d706b23ab0001a34af2,001,,,,,2024-02-26_20h42.42.998,CRL1e,2023.2.3,Win32,60.60606061,65dbad3905fde4fe1981dc61,65dcf7515c4c8090ce3cb410,,,,,,,,,,,481.4003,1.2,482.5994,482.5994,483.2674,left,1,0.6598,,483.2675,484.2632,2,7,23,3,1,partial,1,images/Ex10.jpg,left,training,easy,8,,,,,
,,,,,5c4d8d706b23ab0001a34af2,001,,,,,2024-02-26_20h42.42.998,CRL1e,2023.2.3,Win32,60.60606061,65dbad3905fde4fe1981dc61,65dcf7515c4c8090ce3cb410,,,,,,,,,,,484.2638,1.1,485.3623,485.3624,485.8474,left,1,0.4836,,485.8474,486.8442,3,0,24,3,1,partial,1,images/Ex10.jpg,left,training,easy,8,,,,,
,,,,,5c4d8d706b23ab0001a34af2,001,,,,,2024-02-26_20h42.42.998,CRL1e,2023.2.3,Win32,60.60606061,65dbad3905fde4fe1981dc61,65dcf7515c4c8090ce3cb410,,,,,,,,,,,486.8453,1.3,488.1439,488.144,488.7285,right,1,0.5767,,488.7286,489.7262,3,1,25,4,1,partial,1,images/Ex11.jpg,right,training,easy,8,,,,,
,,,,,5c4d8d706b23ab0001a34af2,001,,,,,2024-02-26_20h42.42.998,CRL1e,2023.2.3,Win32,60.60606061,65dbad3905fde4fe1981dc61,65dcf7515c4c8090ce3cb410,,,,,,,,,,,489.7268,1.2,490.9234,490.9234,491.4924,right,1,0.5613,,491.4925,492.4886,3,2,26,7,1,partial,1,images/Ex12.jpg,right,training,easy,8,,,,,
,,,,,5c4d8d706b23ab0001a34af2,001,,,,,2024-02-26_20h42.42.998,CRL1e,2023.2.3,Win32,60.60606061,65dbad3905fde4fe1981dc61,65dcf7515c4c8090ce3cb410,,,,,,,,,,,492.4895,1.4,493.888,493.8881,494.4722,right,1,0.5799,,494.4722,495.469,3,3,27,6,1,partial,1,images/Ex12.jpg,right,training,easy,8,,,,,
,,,,,5c4d8d706b23ab0001a34af2,001,,,,,2024-02-26_20h42.42.998,CRL1e,2023.2.3,Win32,60.60606061,65dbad3905fde4fe1981dc61,65dcf7515c4c8090ce3cb410,,,,,,,,,,,495.4698,0.9,496.3692,496.3692,496.9272,right,1,0.5565,,496.9273,497.9247,3,4,28,5,1,partial,1,images/Ex11.jpg,right,training,easy,8,,,,,
,,,,,5c4d8d706b23ab0001a34af2,001,,,,,2024-02-26_20h42.42.998,CRL1e,2023.2.3,Win32,60.60606061,65dbad3905fde4fe1981dc61,65dcf7515c4c8090ce3cb410,,,,,,,,,,,497.9259,1.2,499.125,499.1251,499.7589,left,1,0.6317,,499.7591,500.7491,3,5,29,2,1,partial,1,images/Ex10.jpg,left,training,easy,8,,,,,
,,,,,5c4d8d706b23ab0001a34af2,001,,,,,2024-02-26_20h42.42.998,CRL1e,2023.2.3,Win32,60.60606061,65dbad3905fde4fe1981dc61,65dcf7515c4c8090ce3cb410,,,,,,,,,,,500.7501,0.7,501.457,501.457,502.1734,right,0,0.7141,,502.1735,503.1682,3,6,30,0,1,partial,1,images/Ex9.jpg,left,training,easy,8,,,,,
,,,,,5c4d8d706b23ab0001a34af2,001,,,,,2024-02-26_20h42.42.998,CRL1e,2023.2.3,Win32,60.60606061,65dbad3905fde4fe1981dc61,65dcf7515c4c8090ce3cb410,,,,,,,,,,,503.1688,0.9,504.0603,504.0603,504.5276,left,1,0.4589,,504.5276,505.5255,3,7,31,1,1,partial,1,images/Ex9.jpg,left,training,easy,8,,,,,
,,,,,5c4d8d706b23ab0001a34af2,001,,,,,2024-02-26_20h42.42.998,CRL1e,2023.2.3,Win32,60.60606061,65dbad3905fde4fe1981dc61,65dcf7515c4c8090ce3cb410,,,,,,,,,,,505.5266,1.2,506.724,506.724,507.3986,left,1,0.6724,,507.3986,508.3892,4,0,32,3,1,partial,1,images/Ex10.jpg,left,training,easy,8,,,,,
,,,,,5c4d8d706b23ab0001a34af2,001,,,,,2024-02-26_20h42.42.998,CRL1e,2023.2.3,Win32,60.60606061,65dbad3905fde4fe1981dc61,65dcf7515c4c8090ce3cb410,,,,,,,,,,,508.3901,0.7,509.089,509.0891,509.8146,right,1,0.7237,,509.8147,510.8138,4,1,33,4,1,partial,1,images/Ex11.jpg,right,training,easy,8,,,,,
,,,,,5c4d8d706b23ab0001a34af2,001,,,,,2024-02-26_20h42.42.998,CRL1e,2023.2.3,Win32,60.60606061,65dbad3905fde4fe1981dc61,65dcf7515c4c8090ce3cb410,,,,,,,,,,,510.8144,1.3,512.1121,512.1122,512.8119,right,1,0.6979,,512.812,513.8012,4,2,34,6,1,partial,1,images/Ex12.jpg,right,training,easy,8,,,,,
,,,,,5c4d8d706b23ab0001a34af2,001,,,,,2024-02-26_20h42.42.998,CRL1e,2023.2.3,Win32,60.60606061,65dbad3905fde4fe1981dc61,65dcf7515c4c8090ce3cb410,,,,,,,,,,,513.8021,0.5,514.2943,514.2944,514.8709,right,1,0.5744,,514.871,515.8729,4,3,35,7,1,partial,1,images/Ex12.jpg,right,training,easy,8,,,,,
,,,,,5c4d8d706b23ab0001a34af2,001,,,,,2024-02-26_20h42.42.998,CRL1e,2023.2.3,Win32,60.60606061,65dbad3905fde4fe1981dc61,65dcf7515c4c8090ce3cb410,,,,,,,,,,,515.8739,0.8,516.673,516.673,517.3246,right,0,0.6494,,517.3247,518.3228,4,4,36,0,1,partial,1,images/Ex9.jpg,left,training,easy,8,,,,,
,,,,,5c4d8d706b23ab0001a34af2,001,,,,,2024-02-26_20h42.42.998,CRL1e,2023.2.3,Win32,60.60606061,65dbad3905fde4fe1981dc61,65dcf7515c4c8090ce3cb410,,,,,,,,,,,518.3238,0.9,519.2227,519.2228,519.9199,left,1,0.6947,,519.9199,520.9219,4,5,37,2,1,partial,1,images/Ex10.jpg,left,training,easy,8,,,,,
,,,,,5c4d8d706b23ab0001a34af2,001,,,,,2024-02-26_20h42.42.998,CRL1e,2023.2.3,Win32,60.60606061,65dbad3905fde4fe1981dc61,65dcf7515c4c8090ce3cb410,,,,,,,,,,,520.9228,1.3,522.213,522.2131,523.1001,left,0,0.8839,,523.1002,524.1005,4,6,38,5,1,partial,1,images/Ex11.jpg,right,training,easy,8,,,,,
,,,,,5c4d8d706b23ab0001a34af2,001,,,,,2024-02-26_20h42.42.998,CRL1e,2023.2.3,Win32,60.60606061,65dbad3905fde4fe1981dc61,65dcf7515c4c8090ce3cb410,,,,,,,,,,,524.1014,1,525.0974,525.0975,526.0074,right,0,0.9029,,526.0076,527.0053,4,7,39,1,1,partial,1,images/Ex9.jpg,left,training,easy,8,,,,,
,,,,,5c4d8d706b23ab0001a34af2,001,,,,,2024-02-26_20h42.42.998,CRL1e,2023.2.3,Win32,60.60606061,65dbad3905fde4fe1981dc61,65dcf7515c4c8090ce3cb410,,,,,,,,,,,527.0058,0.7,527.7054,527.7055,528.3466,right,1,0.6396,,528.3467,529.3448,5,0,40,5,1,partial,1,images/Ex11.jpg,right,training,easy,8,,,,,
,,,,,5c4d8d706b23ab0001a34af2,001,,,,,2024-02-26_20h42.42.998,CRL1e,2023.2.3,Win32,60.60606061,65dbad3905fde4fe1981dc61,65dcf7515c4c8090ce3cb410,,,,,,,,,,,529.3457,0.7,530.0443,530.0444,530.762,left,1,0.7152,,530.7621,531.7553,5,1,41,1,1,partial,1,images/Ex9.jpg,left,training,easy,8,,,,,
,,,,,5c4d8d706b23ab0001a34af2,001,,,,,2024-02-26_20h42.42.998,CRL1e,2023.2.3,Win32,60.60606061,65dbad3905fde4fe1981dc61,65dcf7515c4c8090ce3cb410,,,,,,,,,,,531.756,0.9,532.6509,532.6509,533.2597,left,1,0.6069,,533.2598,534.2572,5,2,42,3,1,partial,1,images/Ex10.jpg,left,training,easy,8,,,,,
,,,,,5c4d8d706b23ab0001a34af2,001,,,,,2024-02-26_20h42.42.998,CRL1e,2023.2.3,Win32,60.60606061,65dbad3905fde4fe1981dc61,65dcf7515c4c8090ce3cb410,,,,,,,,,,,534.2581,1.4,535.6562,535.6563,536.14,left,1,0.4819,,536.1401,537.1376,5,3,43,2,1,partial,1,images/Ex10.jpg,left,training,easy,8,,,,,
,,,,,5c4d8d706b23ab0001a34af2,001,,,,,2024-02-26_20h42.42.998,CRL1e,2023.2.3,Win32,60.60606061,65dbad3905fde4fe1981dc61,65dcf7515c4c8090ce3cb410,,,,,,,,,,,537.1384,0.6,537.7344,537.7345,538.2518,right,1,0.5149,,538.2519,539.249,5,4,44,6,1,partial,1,images/Ex12.jpg,right,training,easy,8,,,,,
,,,,,5c4d8d706b23ab0001a34af2,001,,,,,2024-02-26_20h42.42.998,CRL1e,2023.2.3,Win32,60.60606061,65dbad3905fde4fe1981dc61,65dcf7515c4c8090ce3cb410,,,,,,,,,,,539.2496,0.6,539.8503,539.8504,540.3125,right,1,0.4603,,540.3126,541.307,5,5,45,7,1,partial,1,images/Ex12.jpg,right,training,easy,8,,,,,
,,,,,5c4d8d706b23ab0001a34af2,001,,,,,2024-02-26_20h42.42.998,CRL1e,2023.2.3,Win32,60.60606061,65dbad3905fde4fe1981dc61,65dcf7515c4c8090ce3cb410,,,,,,,,,,,541.3079,0.8,542.0976,542.0977,542.7928,right,0,0.6889,,542.793,543.7877,5,6,46,0,1,partial,1,images/Ex9.jpg,left,training,easy,8,,,,,
,,,,,5c4d8d706b23ab0001a34af2,001,,,,,2024-02-26_20h42.42.998,CRL1e,2023.2.3,Win32,60.60606061,65dbad3905fde4fe1981dc61,65dcf7515c4c8090ce3cb410,,,,,,,,,,,543.7882,0.5,544.2871,544.2872,544.8869,right,1,0.595,,544.8869,545.8855,5,7,47,4,1,partial,1,images/Ex11.jpg,right,training,easy,8,,,,,
,,,,,5c4d8d706b23ab0001a34af2,001,,,,,2024-02-26_20h42.42.998,CRL1e,2023.2.3,Win32,60.60606061,65dbad3905fde4fe1981dc61,65dcf7515c4c8090ce3cb410,,,,,,,,,,,545.8911,0.8,546.6851,546.6852,547.2515,left,1,0.5625,,547.2515,548.2499,0,0,0,3,1,partial,2,images/Ex10.jpg,left,nonreversed,easy,8,,,,,
,,,,,5c4d8d706b23ab0001a34af2,001,,,,,2024-02-26_20h42.42.998,CRL1e,2023.2.3,Win32,60.60606061,65dbad3905fde4fe1981dc61,65dcf7515c4c8090ce3cb410,,,,,,,,,,,548.2506,0.6,548.8493,548.8494,549.4326,right,1,0.5787,,549.4326,550.4313,0,1,1,7,1,partial,2,images/Ex12.jpg,right,nonreversed,easy,8,,,,,
,,,,,5c4d8d706b23ab0001a34af2,001,,,,,2024-02-26_20h42.42.998,CRL1e,2023.2.3,Win32,60.60606061,65dbad3905fde4fe1981dc61,65dcf7515c4c8090ce3cb410,,,,,,,,,,,550.4319,1,551.4237,551.4237,552.0765,right,0,0.65,,552.0766,553.0888,0,2,2,4,1,partial,2,images/Ex11.jpg,left,reversed,easy,8,,,,,
,,,,,5c4d8d706b23ab0001a34af2,001,,,,,2024-02-26_20h42.42.998,CRL1e,2023.2.3,Win32,60.60606061,65dbad3905fde4fe1981dc61,65dcf7515c4c8090ce3cb410,,,,,,,,,,,553.0894,0.6,553.6791,553.6791,554.3218,right,0,0.641,,554.3219,555.3154,0,3,3,5,1,partial,2,images/Ex11.jpg,left,reversed,easy,8,,,,,
,,,,,5c4d8d706b23ab0001a34af2,001,,,,,2024-02-26_20h42.42.998,CRL1e,2023.2.3,Win32,60.60606061,65dbad3905fde4fe1981dc61,65dcf7515c4c8090ce3cb410,,,,,,,,,,,555.3166,1.4,556.7137,556.7137,557.3441,left,0,0.6282,,557.3442,558.3494,0,4,4,1,1,partial,2,images/Ex9.jpg,right,reversed,easy,8,,,,,
,,,,,5c4d8d706b23ab0001a34af2,001,,,,,2024-02-26_20h42.42.998,CRL1e,2023.2.3,Win32,60.60606061,65dbad3905fde4fe1981dc61,65dcf7515c4c8090ce3cb410,,,,,,,,,,,558.3506,1,559.3404,559.3405,559.9148,left,1,0.5718,,559.9149,560.9064,0,5,5,2,1,partial,2,images/Ex10.jpg,left,nonreversed,easy,8,,,,,
,,,,,5c4d8d706b23ab0001a34af2,001,,,,,2024-02-26_20h42.42.998,CRL1e,2023.2.3,Win32,60.60606061,65dbad3905fde4fe1981dc61,65dcf7515c4c8090ce3cb410,,,,,,,,,,,560.907,1,561.897,561.8971,562.4034,left,0,0.5031,,562.4035,563.3919,0,6,6,0,1,partial,2,images/Ex9.jpg,right,reversed,easy,8,,,,,
,,,,,5c4d8d706b23ab0001a34af2,001,,,,,2024-02-26_20h42.42.998,CRL1e,2023.2.3,Win32,60.60606061,65dbad3905fde4fe1981dc61,65dcf7515c4c8090ce3cb410,,,,,,,,,,,563.3929,1.1,564.4875,564.4875,565.0867,right,1,0.5935,,565.0868,566.0937,0,7,7,6,1,partial,2,images/Ex12.jpg,right,nonreversed,easy,8,,,,,
,,,,,5c4d8d706b23ab0001a34af2,001,,,,,2024-02-26_20h42.42.998,CRL1e,2023.2.3,Win32,60.60606061,65dbad3905fde4fe1981dc61,65dcf7515c4c8090ce3cb410,,,,,,,,,,,566.0946,1.4,567.4911,567.4913,568.1252,right,1,0.6313,,568.1253,569.114,1,0,8,0,1,partial,2,images/Ex9.jpg,right,reversed,easy,8,,,,,
,,,,,5c4d8d706b23ab0001a34af2,001,,,,,2024-02-26_20h42.42.998,CRL1e,2023.2.3,Win32,60.60606061,65dbad3905fde4fe1981dc61,65dcf7515c4c8090ce3cb410,,,,,,,,,,,569.1149,1.5,570.6027,570.6028,571.1993,left,1,0.5945,,571.1993,572.2046,1,1,9,2,1,partial,2,images/Ex10.jpg,left,nonreversed,easy,8,,,,,
,,,,,5c4d8d706b23ab0001a34af2,001,,,,,2024-02-26_20h42.42.998,CRL1e,2023.2.3,Win32,60.60606061,65dbad3905fde4fe1981dc61,65dcf7515c4c8090ce3cb410,,,,,,,,,,,572.2052,1.4,573.5976,573.5977,574.1866,left,1,0.5871,,574.1867,575.1797,1,2,10,3,1,partial,2,images/Ex10.jpg,left,nonreversed,easy,8,,,,,
,,,,,5c4d8d706b23ab0001a34af2,001,,,,,2024-02-26_20h42.42.998,CRL1e,2023.2.3,Win32,60.60606061,65dbad3905fde4fe1981dc61,65dcf7515c4c8090ce3cb410,,,,,,,,,,,575.1807,1.2,576.3816,576.3818,577.0997,right,1,0.7156,,577.0999,578.0973,1,3,11,1,1,partial,2,images/Ex9.jpg,right,reversed,easy,8,,,,,
,,,,,5c4d8d706b23ab0001a34af2,001,,,,,2024-02-26_20h42.42.998,CRL1e,2023.2.3,Win32,60.60606061,65dbad3905fde4fe1981dc61,65dcf7515c4c8090ce3cb410,,,,,,,,,,,578.0982,1.3,579.3973,579.3974,580.0913,right,0,0.6918,,580.0914,581.0838,1,4,12,4,1,partial,2,images/Ex11.jpg,left,reversed,easy,8,,,,,
,,,,,5c4d8d706b23ab0001a34af2,001,,,,,2024-02-26_20h42.42.998,CRL1e,2023.2.3,Win32,60.60606061,65dbad3905fde4fe1981dc61,65dcf7515c4c8090ce3cb410,,,,,,,,,,,581.0848,1,582.094,582.094,582.7558,right,1,0.6589,,582.7558,583.7566,1,5,13,7,1,partial,2,images/Ex12.jpg,right,nonreversed,easy,8,,,,,
,,,,,5c4d8d706b23ab0001a34af2,001,,,,,2024-02-26_20h42.42.998,CRL1e,2023.2.3,Win32,60.60606061,65dbad3905fde4fe1981dc61,65dcf7515c4c8090ce3cb410,,,,,,,,,,,583.7572,1.2,584.9476,584.9477,585.6885,right,1,0.7391,,585.6885,586.6829,1,6,14,6,1,partial,2,images/Ex12.jpg,right,nonreversed,easy,8,,,,,
,,,,,5c4d8d706b23ab0001a34af2,001,,,,,2024-02-26_20h42.42.998,CRL1e,2023.2.3,Win32,60.60606061,65dbad3905fde4fe1981dc61,65dcf7515c4c8090ce3cb410,,,,,,,,,,,586.6841,0.6,587.2729,587.273,587.939,left,1,0.6633,,587.939,588.9269,1,7,15,5,1,partial,2,images/Ex11.jpg,left,reversed,easy,8,,,,,
,,,,,5c4d8d706b23ab0001a34af2,001,,,,,2024-02-26_20h42.42.998,CRL1e,2023.2.3,Win32,60.60606061,65dbad3905fde4fe1981dc61,65dcf7515c4c8090ce3cb410,,,,,,,,,,,588.9278,1.2,590.1265,590.1266,590.7999,right,1,0.6713,,590.8,591.7911,2,0,16,6,1,partial,2,images/Ex12.jpg,right,nonreversed,easy,8,,,,,
,,,,,5c4d8d706b23ab0001a34af2,001,,,,,2024-02-26_20h42.42.998,CRL1e,2023.2.3,Win32,60.60606061,65dbad3905fde4fe1981dc61,65dcf7515c4c8090ce3cb410,,,,,,,,,,,591.7919,0.7,592.4904,592.4904,593.3406,left,1,0.8438,,593.3407,594.3386,2,1,17,5,1,partial,2,images/Ex11.jpg,left,reversed,easy,8,,,,,
,,,,,5c4d8d706b23ab0001a34af2,001,,,,,2024-02-26_20h42.42.998,CRL1e,2023.2.3,Win32,60.60606061,65dbad3905fde4fe1981dc61,65dcf7515c4c8090ce3cb410,,,,,,,,,,,594.3394,1.2,595.5374,595.5375,596.0386,right,1,0.4943,,596.0386,597.037,2,2,18,7,1,partial,2,images/Ex12.jpg,right,nonreversed,easy,8,,,,,
,,,,,5c4d8d706b23ab0001a34af2,001,,,,,2024-02-26_20h42.42.998,CRL1e,2023.2.3,Win32,60.60606061,65dbad3905fde4fe1981dc61,65dcf7515c4c8090ce3cb410,,,,,,,,,,,597.0376,1.4,598.436,598.436,599.3014,left,0,0.8589,,599.3014,600.2994,2,3,19,0,1,partial,2,images/Ex9.jpg,right,reversed,easy,8,,,,,
,,,,,5c4d8d706b23ab0001a34af2,001,,,,,2024-02-26_20h42.42.998,CRL1e,2023.2.3,Win32,60.60606061,65dbad3905fde4fe1981dc61,65dcf7515c4c8090ce3cb410,,,,,,,,,,,600.3002,1.3,601.5983,601.5985,602.3824,left,1,0.7776,,602.3826,603.3727,2,4,20,4,1,partial,2,images/Ex11.jpg,left,reversed,easy,8,,,,,
,,,,,5c4d8d706b23ab0001a34af2,001,,,,,2024-02-26_20h42.42.998,CRL1e,2023.2.3,Win32,60.60606061,65dbad3905fde4fe1981dc61,65dcf7515c4c8090ce3cb410,,,,,,,,,,,603.3733,0.7,604.0726,604.0726,604.6841,right,1,0.6096,,604.6844,605.6869,2,5,21,1,1,partial,2,images/Ex9.jpg,right,reversed,easy,8,,,,,
,,,,,5c4d8d706b23ab0001a34af2,001,,,,,2024-02-26_20h42.42.998,CRL1e,2023.2.3,Win32,60.60606061,65dbad3905fde4fe1981dc61,65dcf7515c4c8090ce3cb410,,,,,,,,,,,605.6878,0.7,606.3764,606.3765,607.1686,left,1,0.7898,,607.1686,608.1677,2,6,22,3,1,partial,2,images/Ex10.jpg,left,nonreversed,easy,8,,,,,
,,,,,5c4d8d706b23ab0001a34af2,001,,,,,2024-02-26_20h42.42.998,CRL1e,2023.2.3,Win32,60.60606061,65dbad3905fde4fe1981dc61,65dcf7515c4c8090ce3cb410,,,,,,,,,,,608.1683,0.8,608.9657,608.9658,609.4826,left,1,0.5152,,609.4828,610.4794,2,7,23,2,1,partial,2,images/Ex10.jpg,left,nonreversed,easy,8,,,,,
,,,,,5c4d8d706b23ab0001a34af2,001,,,,,2024-02-26_20h42.42.998,CRL1e,2023.2.3,Win32,60.60606061,65dbad3905fde4fe1981dc61,65dcf7515c4c8090ce3cb410,,,,,,,,,,,610.4802,1,611.4804,611.4804,612.016,right,1,0.5333,,612.0162,613.0109,3,0,24,0,1,partial,2,images/Ex9.jpg,right,reversed,easy,8,,,,,
,,,,,5c4d8d706b23ab0001a34af2,001,,,,,2024-02-26_20h42.42.998,CRL1e,2023.2.3,Win32,60.60606061,65dbad3905fde4fe1981dc61,65dcf7515c4c8090ce3cb410,,,,,,,,,,,613.0118,1.3,614.3107,614.3108,615.026,right,0,0.7131,,615.0261,616.0221,3,1,25,4,1,partial,2,images/Ex11.jpg,left,reversed,easy,8,,,,,
,,,,,5c4d8d706b23ab0001a34af2,001,,,,,2024-02-26_20h42.42.998,CRL1e,2023.2.3,Win32,60.60606061,65dbad3905fde4fe1981dc61,65dcf7515c4c8090ce3cb410,,,,,,,,,,,616.0227,1.3,617.3254,617.3255,618.2154,left,0,0.884,,618.2155,619.2059,3,2,26,7,1,partial,2,images/Ex12.jpg,right,nonreversed,easy,8,,,,,
,,,,,5c4d8d706b23ab0001a34af2,001,,,,,2024-02-26_20h42.42.998,CRL1e,2023.2.3,Win32,60.60606061,65dbad3905fde4fe1981dc61,65dcf7515c4c8090ce3cb410,,,,,,,,,,,619.2065,1.1,620.3032,620.3032,620.872,left,1,0.5673,,620.872,621.8635,3,3,27,3,1,partial,2,images/Ex10.jpg,left,nonreversed,easy,8,,,,,
,,,,,5c4d8d706b23ab0001a34af2,001,,,,,2024-02-26_20h42.42.998,CRL1e,2023.2.3,Win32,60.60606061,65dbad3905fde4fe1981dc61,65dcf7515c4c8090ce3cb410,,,,,,,,,,,621.8642,0.7,622.5703,622.5704,623.185,right,1,0.6129,,623.1851,624.1753,3,4,28,1,1,partial,2,images/Ex9.jpg,right,reversed,easy,8,,,,,
,,,,,5c4d8d706b23ab0001a34af2,001,,,,,2024-02-26_20h42.42.998,CRL1e,2023.2.3,Win32,60.60606061,65dbad3905fde4fe1981dc61,65dcf7515c4c8090ce3cb410,,,,,,,,,,,624.1758,1.4,625.5743,625.5744,626.1442,left,1,0.5682,,626.1442,627.1471,3,5,29,2,1,partial,2,images/Ex10.jpg,left,nonreversed,easy,8,,,,,
,,,,,5c4d8d706b23ab0001a34af2,001,,,,,2024-02-26_20h42.42.998,CRL1e,2023.2.3,Win32,60.60606061,65dbad3905fde4fe1981dc61,65dcf7515c4c8090ce3cb410,,,,,,,,,,,627.1478,0.7,627.8496,627.8498,628.4569,right,1,0.6052,,628.457,629.4449,3,6,30,6,1,partial,2,images/Ex12.jpg,right,nonreversed,easy,8,,,,,
,,,,,5c4d8d706b23ab0001a34af2,001,,,,,2024-02-26_20h42.42.998,CRL1e,2023.2.3,Win32,60.60606061,65dbad3905fde4fe1981dc61,65dcf7515c4c8090ce3cb410,,,,,,,,,,,629.4455,0.8,630.2439,630.2439,631.0202,left,1,0.771,,631.0203,632.0184,3,7,31,5,1,partial,2,images/Ex11.jpg,left,reversed,easy,8,,,,,
,,,,,5c4d8d706b23ab0001a34af2,001,,,,,2024-02-26_20h42.42.998,CRL1e,2023.2.3,Win32,60.60606061,65dbad3905fde4fe1981dc61,65dcf7515c4c8090ce3cb410,,,,,,,,,,,632.0191,0.7,632.7187,632.7187,633.3679,left,1,0.6425,,633.3679,634.3672,4,0,32,5,1,partial,2,images/Ex11.jpg,left,reversed,easy,8,,,,,
,,,,,5c4d8d706b23ab0001a34af2,001,,,,,2024-02-26_20h42.42.998,CRL1e,2023.2.3,Win32,60.60606061,65dbad3905fde4fe1981dc61,65dcf7515c4c8090ce3cb410,,,,,,,,,,,634.3678,0.9,635.2656,635.2656,636.0172,right,1,0.7463,,636.0173,637.0133,4,1,33,7,1,partial,2,images/Ex12.jpg,right,nonreversed,easy,8,,,,,
,,,,,5c4d8d706b23ab0001a34af2,001,,,,,2024-02-26_20h42.42.998,CRL1e,2023.2.3,Win32,60.60606061,65dbad3905fde4fe1981dc61,65dcf7515c4c8090ce3cb410,,,,,,,,,,,637.0139,0.5,637.5139,637.514,638.163,left,0,0.6436,,638.1631,639.1628,4,2,34,1,1,partial,2,images/Ex9.jpg,right,reversed,easy,8,,,,,
,,,,,5c4d8d706b23ab0001a34af2,001,,,,,2024-02-26_20h42.42.998,CRL1e,2023.2.3,Win32,60.60606061,65dbad3905fde4fe1981dc61,65dcf7515c4c8090ce3cb410,,,,,,,,,,,639.1634,1.3,640.4609,640.461,641.263,left,1,0.798,,641.2631,642.259,4,3,35,4,1,partial,2,images/Ex11.jpg,left,reversed,easy,8,,,,,
,,,,,5c4d8d706b23ab0001a34af2,001,,,,,2024-02-26_20h42.42.998,CRL1e,2023.2.3,Win32,60.60606061,65dbad3905fde4fe1981dc61,65dcf7515c4c8090ce3cb410,,,,,,,,,,,642.2596,0.7,642.9574,642.9576,643.5761,right,1,0.614,,643.5763,644.5722,4,4,36,0,1,partial,2,images/Ex9.jpg,right,reversed,easy,8,,,,,
,,,,,5c4d8d706b23ab0001a34af2,001,,,,,2024-02-26_20h42.42.998,CRL1e,2023.2.3,Win32,60.60606061,65dbad3905fde4fe1981dc61,65dcf7515c4c8090ce3cb410,,,,,,,,,,,644.573,0.5,645.0723,645.0724,645.6575,left,1,0.5822,,645.6575,646.6554,4,5,37,2,1,partial,2,images/Ex10.jpg,left,nonreversed,easy,8,,,,,
,,,,,5c4d8d706b23ab0001a34af2,001,,,,,2024-02-26_20h42.42.998,CRL1e,2023.2.3,Win32,60.60606061,65dbad3905fde4fe1981dc61,65dcf7515c4c8090ce3cb410,,,,,,,,,,,646.656,0.5,647.1534,647.1536,647.7964,right,1,0.6408,,647.7964,648.7926,4,6,38,6,1,partial,2,images/Ex12.jpg,right,nonreversed,easy,8,,,,,
,,,,,5c4d8d706b23ab0001a34af2,001,,,,,2024-02-26_20h42.42.998,CRL1e,2023.2.3,Win32,60.60606061,65dbad3905fde4fe1981dc61,65dcf7515c4c8090ce3cb410,,,,,,,,,,,648.7936,1.1,649.8836,649.8837,650.4274,left,1,0.5411,,650.4274,651.4209,4,7,39,3,1,partial,2,images/Ex10.jpg,left,nonreversed,easy,8,,,,,
,,,,,5c4d8d706b23ab0001a34af2,001,,,,,2024-02-26_20h42.42.998,CRL1e,2023.2.3,Win32,60.60606061,65dbad3905fde4fe1981dc61,65dcf7515c4c8090ce3cb410,,,,,,,,,,,651.4215,0.8,652.222,652.2221,653.0061,left,1,0.7817,,653.0064,654.0072,5,0,40,5,1,partial,2,images/Ex11.jpg,left,reversed,easy,8,,,,,
,,,,,5c4d8d706b23ab0001a34af2,001,,,,,2024-02-26_20h42.42.998,CRL1e,2023.2.3,Win32,60.60606061,65dbad3905fde4fe1981dc61,65dcf7515c4c8090ce3cb410,,,,,,,,,,,654.0082,0.8,654.8074,654.8074,655.2732,left,1,0.4638,,655.2733,656.2665,5,1,41,4,1,partial,2,images/Ex11.jpg,left,reversed,easy,8,,,,,
,,,,,5c4d8d706b23ab0001a34af2,001,,,,,2024-02-26_20h42.42.998,CRL1e,2023.2.3,Win32,60.60606061,65dbad3905fde4fe1981dc61,65dcf7515c4c8090ce3cb410,,,,,,,,,,,656.2674,1.3,657.5673,657.5673,658.2849,right,1,0.7154,,658.285,659.2837,5,2,42,7,1,partial,2,images/Ex12.jpg,right,nonreversed,easy,8,,,,,
,,,,,5c4d8d706b23ab0001a34af2,001,,,,,2024-02-26_20h42.42.998,CRL1e,2023.2.3,Win32,60.60606061,65dbad3905fde4fe1981dc61,65dcf7515c4c8090ce3cb410,,,,,,,,,,,659.2843,0.6,659.882,659.882,660.4018,left,0,0.5176,,660.4019,661.4053,5,3,43,1,1,partial,2,images/Ex9.jpg,right,reversed,easy,8,,,,,
,,,,,5c4d8d706b23ab0001a34af2,001,,,,,2024-02-26_20h42.42.998,CRL1e,2023.2.3,Win32,60.60606061,65dbad3905fde4fe1981dc61,65dcf7515c4c8090ce3cb410,,,,,,,,,,,661.406,1.3,662.7042,662.7043,663.265,left,1,0.5589,,663.2651,664.2533,5,4,44,3,1,partial,2,images/Ex10.jpg,left,nonreversed,easy,8,,,,,
,,,,,5c4d8d706b23ab0001a34af2,001,,,,,2024-02-26_20h42.42.998,CRL1e,2023.2.3,Win32,60.60606061,65dbad3905fde4fe1981dc61,65dcf7515c4c8090ce3cb410,,,,,,,,,,,664.2541,1.4,665.6523,665.6523,666.2207,left,1,0.5619,,666.2207,667.2167,5,5,45,2,1,partial,2,images/Ex10.jpg,left,nonreversed,easy,8,,,,,
,,,,,5c4d8d706b23ab0001a34af2,001,,,,,2024-02-26_20h42.42.998,CRL1e,2023.2.3,Win32,60.60606061,65dbad3905fde4fe1981dc61,65dcf7515c4c8090ce3cb410,,,,,,,,,,,667.2176,0.7,667.9161,667.9162,668.4502,right,1,0.5263,,668.4503,669.4483,5,6,46,6,1,partial,2,images/Ex12.jpg,right,nonreversed,easy,8,,,,,
,,,,,5c4d8d706b23ab0001a34af2,001,,,,,2024-02-26_20h42.42.998,CRL1e,2023.2.3,Win32,60.60606061,65dbad3905fde4fe1981dc61,65dcf7515c4c8090ce3cb410,,,,,,,,,,,669.4491,1,670.4473,670.4474,670.9647,left,0,0.5102,,670.9648,671.9634,5,7,47,0,1,partial,2,images/Ex9.jpg,right,reversed,easy,8,,,,,
,,,,,5c4d8d706b23ab0001a34af2,001,,,,,2024-02-26_20h42.42.998,CRL1e,2023.2.3,Win32,60.60606061,65dbad3905fde4fe1981dc61,65dcf7515c4c8090ce3cb410,,,,,,,,,,,,,,,,,,,,,,,,,,,,,,,,,,671.9647,697.359,space,25.3497,