infCons.started,infCons.stopped,resp_consent.keys,resp_consent.rt,resp_consent.duration,participant,session,Age?,Gender?,Nationality?,Highest Educational Degree?,date,expName,psychopyVersion,OS,frameRate,STUDY_ID,SESSION_ID,instructions.started,instructions.stopped,resp_instructions.keys,resp_instructions.rt,resp_instructions.duration,nextTask.started,nextTask.stopped,ready_task.keys,ready_task.rt,ready_task.duration,fixation.started,ITI,fixation.stopped,stim.started,stim.stopped,response.keys,response.corr,response.rt,response.duration,feedback.started,feedback.stopped,trials.thisRepN,trials.thisTrialN,trials.thisN,trials.thisIndex,trials.ran,task,phase,Exemplars,r_correct,condition,difficulty,set,end.started,end.stopped,resp_end.keys,resp_end.rt,resp_end.duration
0.0003,38.506,space,38.4623,,5ce9b0e4be5a6b00163f6870,001,57,male,United Kingdom,Bachelor ,2024-02-26_16h22.07.397,CRL1e,2023.2.3,MacIntel,59.88023952,65dbad3905fde4fe1981dc61,65dcba49fe55e98487e20ea7,,,,,,,,,,,,,,,,,,,,,,,,,,,,,,,,,,,,,,
,,,,,5ce9b0e4be5a6b00163f6870,001,57,male,United Kingdom,Bachelor ,2024-02-26_16h22.07.397,CRL1e,2023.2.3,MacIntel,59.88023952,65dbad3905fde4fe1981dc61,65dcba49fe55e98487e20ea7,38.5062,123.6597,space,85.1258,,,,,,,,,,,,,,,,,,,,,,,,,,,,,,,,,,
,,,,,5ce9b0e4be5a6b00163f6870,001,57,male,United Kingdom,Bachelor ,2024-02-26_16h22.07.397,CRL1e,2023.2.3,MacIntel,59.88023952,65dbad3905fde4fe1981dc61,65dcba49fe55e98487e20ea7,,,,,,123.6713,128.162,space,4.4703,,128.1718,0.9,129.0619,129.0621,132.9136,right,0,3.8461,,132.9205,133.9135,0,0,0,3,1,partial,1,images/Ex2.jpg,left,training,easy,3,,,,,
,,,,,5ce9b0e4be5a6b00163f6870,001,57,male,United Kingdom,Bachelor ,2024-02-26_16h22.07.397,CRL1e,2023.2.3,MacIntel,59.88023952,65dbad3905fde4fe1981dc61,65dcba49fe55e98487e20ea7,,,,,,,,,,,133.9139,0.6,134.5125,134.5126,135.5298,right,1,1.0145,,135.5299,136.53,0,1,1,4,1,partial,1,images/Ex3.jpg,right,training,easy,3,,,,,
,,,,,5ce9b0e4be5a6b00163f6870,001,57,male,United Kingdom,Bachelor ,2024-02-26_16h22.07.397,CRL1e,2023.2.3,MacIntel,59.88023952,65dbad3905fde4fe1981dc61,65dcba49fe55e98487e20ea7,,,,,,,,,,,136.5303,0.9,137.4311,137.4311,138.7653,right,0,1.3325,,138.7654,139.7651,0,2,2,0,1,partial,1,images/Ex1.jpg,left,training,easy,3,,,,,
,,,,,5ce9b0e4be5a6b00163f6870,001,57,male,United Kingdom,Bachelor ,2024-02-26_16h22.07.397,CRL1e,2023.2.3,MacIntel,59.88023952,65dbad3905fde4fe1981dc61,65dcba49fe55e98487e20ea7,,,,,,,,,,,139.7723,0.8,140.5654,140.5655,141.8325,right,1,1.2634,,141.8325,142.8319,0,3,3,5,1,partial,1,images/Ex3.jpg,right,training,easy,3,,,,,
,,,,,5ce9b0e4be5a6b00163f6870,001,57,male,United Kingdom,Bachelor ,2024-02-26_16h22.07.397,CRL1e,2023.2.3,MacIntel,59.88023952,65dbad3905fde4fe1981dc61,65dcba49fe55e98487e20ea7,,,,,,,,,,,142.8321,1,143.8331,143.8332,144.6995,left,1,0.8635,,144.6996,145.7005,0,4,4,2,1,partial,1,images/Ex2.jpg,left,training,easy,3,,,,,
,,,,,5ce9b0e4be5a6b00163f6870,001,57,male,United Kingdom,Bachelor ,2024-02-26_16h22.07.397,CRL1e,2023.2.3,MacIntel,59.88023952,65dbad3905fde4fe1981dc61,65dcba49fe55e98487e20ea7,,,,,,,,,,,145.7007,1,146.7006,146.7006,147.7513,left,0,1.0476,,147.7514,148.7506,0,5,5,7,1,partial,1,images/Ex4.jpg,right,training,easy,3,,,,,
,,,,,5ce9b0e4be5a6b00163f6870,001,57,male,United Kingdom,Bachelor ,2024-02-26_16h22.07.397,CRL1e,2023.2.3,MacIntel,59.88023952,65dbad3905fde4fe1981dc61,65dcba49fe55e98487e20ea7,,,,,,,,,,,148.7507,1.2,149.9517,149.9517,151.0191,left,1,1.0628,,151.0191,152.019,0,6,6,1,1,partial,1,images/Ex1.jpg,left,training,easy,3,,,,,
,,,,,5ce9b0e4be5a6b00163f6870,001,57,male,United Kingdom,Bachelor ,2024-02-26_16h22.07.397,CRL1e,2023.2.3,MacIntel,59.88023952,65dbad3905fde4fe1981dc61,65dcba49fe55e98487e20ea7,,,,,,,,,,,152.0192,0.7,152.7191,152.7192,154.0867,left,0,1.3644,,154.0867,155.0855,0,7,7,6,1,partial,1,images/Ex4.jpg,right,training,easy,3,,,,,
,,,,,5ce9b0e4be5a6b00163f6870,001,57,male,United Kingdom,Bachelor ,2024-02-26_16h22.07.397,CRL1e,2023.2.3,MacIntel,59.88023952,65dbad3905fde4fe1981dc61,65dcba49fe55e98487e20ea7,,,,,,,,,,,155.0858,1.2,156.287,156.287,157.1035,right,1,0.813,,157.1036,158.1041,1,0,8,7,1,partial,1,images/Ex4.jpg,right,training,easy,3,,,,,
,,,,,5ce9b0e4be5a6b00163f6870,001,57,male,United Kingdom,Bachelor ,2024-02-26_16h22.07.397,CRL1e,2023.2.3,MacIntel,59.88023952,65dbad3905fde4fe1981dc61,65dcba49fe55e98487e20ea7,,,,,,,,,,,158.1045,1,159.1035,159.1035,160.1545,left,0,1.0482,,160.1545,161.155,1,1,9,4,1,partial,1,images/Ex3.jpg,right,training,easy,3,,,,,
,,,,,5ce9b0e4be5a6b00163f6870,001,57,male,United Kingdom,Bachelor ,2024-02-26_16h22.07.397,CRL1e,2023.2.3,MacIntel,59.88023952,65dbad3905fde4fe1981dc61,65dcba49fe55e98487e20ea7,,,,,,,,,,,161.1552,0.6,161.7542,161.7542,162.9394,right,0,1.1814,,162.9394,163.9392,1,2,10,1,1,partial,1,images/Ex1.jpg,left,training,easy,3,,,,,
,,,,,5ce9b0e4be5a6b00163f6870,001,57,male,United Kingdom,Bachelor ,2024-02-26_16h22.07.397,CRL1e,2023.2.3,MacIntel,59.88023952,65dbad3905fde4fe1981dc61,65dcba49fe55e98487e20ea7,,,,,,,,,,,163.9395,0.6,164.5393,164.5394,165.6903,right,1,1.1471,,165.6903,166.6891,1,3,11,6,1,partial,1,images/Ex4.jpg,right,training,easy,3,,,,,
,,,,,5ce9b0e4be5a6b00163f6870,001,57,male,United Kingdom,Bachelor ,2024-02-26_16h22.07.397,CRL1e,2023.2.3,MacIntel,59.88023952,65dbad3905fde4fe1981dc61,65dcba49fe55e98487e20ea7,,,,,,,,,,,166.6893,0.9,167.5904,167.5904,168.5082,left,1,0.917,,168.5083,169.5076,1,4,12,0,1,partial,1,images/Ex1.jpg,left,training,easy,3,,,,,
,,,,,5ce9b0e4be5a6b00163f6870,001,57,male,United Kingdom,Bachelor ,2024-02-26_16h22.07.397,CRL1e,2023.2.3,MacIntel,59.88023952,65dbad3905fde4fe1981dc61,65dcba49fe55e98487e20ea7,,,,,,,,,,,169.5078,1,170.5079,170.5079,171.7577,right,1,1.2478,,171.7578,172.7586,1,5,13,5,1,partial,1,images/Ex3.jpg,right,training,easy,3,,,,,
,,,,,5ce9b0e4be5a6b00163f6870,001,57,male,United Kingdom,Bachelor ,2024-02-26_16h22.07.397,CRL1e,2023.2.3,MacIntel,59.88023952,65dbad3905fde4fe1981dc61,65dcba49fe55e98487e20ea7,,,,,,,,,,,172.7589,1.4,174.158,174.158,175.3421,left,1,1.182,,175.3421,176.3421,1,6,14,2,1,partial,1,images/Ex2.jpg,left,training,easy,3,,,,,
,,,,,5ce9b0e4be5a6b00163f6870,001,57,male,United Kingdom,Bachelor ,2024-02-26_16h22.07.397,CRL1e,2023.2.3,MacIntel,59.88023952,65dbad3905fde4fe1981dc61,65dcba49fe55e98487e20ea7,,,,,,,,,,,176.3424,0.7,177.0434,177.0434,177.8426,left,1,0.7959,,177.8426,178.8439,1,7,15,3,1,partial,1,images/Ex2.jpg,left,training,easy,3,,,,,
,,,,,5ce9b0e4be5a6b00163f6870,001,57,male,United Kingdom,Bachelor ,2024-02-26_16h22.07.397,CRL1e,2023.2.3,MacIntel,59.88023952,65dbad3905fde4fe1981dc61,65dcba49fe55e98487e20ea7,,,,,,,,,,,178.8441,1.5,180.3438,180.3438,181.2613,right,0,0.9156,,181.2613,182.2616,2,0,16,0,1,partial,1,images/Ex1.jpg,left,training,easy,3,,,,,
,,,,,5ce9b0e4be5a6b00163f6870,001,57,male,United Kingdom,Bachelor ,2024-02-26_16h22.07.397,CRL1e,2023.2.3,MacIntel,59.88023952,65dbad3905fde4fe1981dc61,65dcba49fe55e98487e20ea7,,,,,,,,,,,182.2619,0.9,183.1618,183.1618,183.9448,left,1,0.7806,,183.9448,184.9457,2,1,17,2,1,partial,1,images/Ex2.jpg,left,training,easy,3,,,,,
,,,,,5ce9b0e4be5a6b00163f6870,001,57,male,United Kingdom,Bachelor ,2024-02-26_16h22.07.397,CRL1e,2023.2.3,MacIntel,59.88023952,65dbad3905fde4fe1981dc61,65dcba49fe55e98487e20ea7,,,,,,,,,,,184.946,1.5,186.4452,186.4453,187.3294,right,1,0.8804,,187.3294,188.3301,2,2,18,4,1,partial,1,images/Ex3.jpg,right,training,easy,3,,,,,
,,,,,5ce9b0e4be5a6b00163f6870,001,57,male,United Kingdom,Bachelor ,2024-02-26_16h22.07.397,CRL1e,2023.2.3,MacIntel,59.88023952,65dbad3905fde4fe1981dc61,65dcba49fe55e98487e20ea7,,,,,,,,,,,188.3303,1.4,189.7295,189.7295,190.4979,right,1,0.7649,,190.4979,191.4977,2,3,19,5,1,partial,1,images/Ex3.jpg,right,training,easy,3,,,,,
,,,,,5ce9b0e4be5a6b00163f6870,001,57,male,United Kingdom,Bachelor ,2024-02-26_16h22.07.397,CRL1e,2023.2.3,MacIntel,59.88023952,65dbad3905fde4fe1981dc61,65dcba49fe55e98487e20ea7,,,,,,,,,,,191.4979,1.1,192.598,192.5981,193.4314,left,0,0.8304,,193.4314,194.4319,2,4,20,6,1,partial,1,images/Ex4.jpg,right,training,easy,3,,,,,
,,,,,5ce9b0e4be5a6b00163f6870,001,57,male,United Kingdom,Bachelor ,2024-02-26_16h22.07.397,CRL1e,2023.2.3,MacIntel,59.88023952,65dbad3905fde4fe1981dc61,65dcba49fe55e98487e20ea7,,,,,,,,,,,194.4323,1.1,195.5323,195.5323,196.5664,right,0,1.0307,,196.5665,197.5652,2,5,21,3,1,partial,1,images/Ex2.jpg,left,training,easy,3,,,,,
,,,,,5ce9b0e4be5a6b00163f6870,001,57,male,United Kingdom,Bachelor ,2024-02-26_16h22.07.397,CRL1e,2023.2.3,MacIntel,59.88023952,65dbad3905fde4fe1981dc61,65dcba49fe55e98487e20ea7,,,,,,,,,,,197.5655,1.3,198.8666,198.8666,199.834,left,0,0.9641,,199.8341,200.8339,2,6,22,7,1,partial,1,images/Ex4.jpg,right,training,easy,3,,,,,
,,,,,5ce9b0e4be5a6b00163f6870,001,57,male,United Kingdom,Bachelor ,2024-02-26_16h22.07.397,CRL1e,2023.2.3,MacIntel,59.88023952,65dbad3905fde4fe1981dc61,65dcba49fe55e98487e20ea7,,,,,,,,,,,200.8341,1.1,201.9343,201.9343,202.8675,right,0,0.9304,,202.8675,203.8681,2,7,23,1,1,partial,1,images/Ex1.jpg,left,training,easy,3,,,,,
,,,,,5ce9b0e4be5a6b00163f6870,001,57,male,United Kingdom,Bachelor ,2024-02-26_16h22.07.397,CRL1e,2023.2.3,MacIntel,59.88023952,65dbad3905fde4fe1981dc61,65dcba49fe55e98487e20ea7,,,,,,,,,,,203.8684,0.8,204.6683,204.6684,205.9692,right,1,1.2975,,205.9692,206.9692,3,0,24,5,1,partial,1,images/Ex3.jpg,right,training,easy,3,,,,,
,,,,,5ce9b0e4be5a6b00163f6870,001,57,male,United Kingdom,Bachelor ,2024-02-26_16h22.07.397,CRL1e,2023.2.3,MacIntel,59.88023952,65dbad3905fde4fe1981dc61,65dcba49fe55e98487e20ea7,,,,,,,,,,,206.9694,0.8,207.7693,207.7693,208.9201,left,1,1.1476,,208.9201,209.92,3,1,25,3,1,partial,1,images/Ex2.jpg,left,training,easy,3,,,,,
,,,,,5ce9b0e4be5a6b00163f6870,001,57,male,United Kingdom,Bachelor ,2024-02-26_16h22.07.397,CRL1e,2023.2.3,MacIntel,59.88023952,65dbad3905fde4fe1981dc61,65dcba49fe55e98487e20ea7,,,,,,,,,,,209.9203,1.2,211.1203,211.1203,212.221,right,1,1.099,,212.221,213.221,3,2,26,4,1,partial,1,images/Ex3.jpg,right,training,easy,3,,,,,
,,,,,5ce9b0e4be5a6b00163f6870,001,57,male,United Kingdom,Bachelor ,2024-02-26_16h22.07.397,CRL1e,2023.2.3,MacIntel,59.88023952,65dbad3905fde4fe1981dc61,65dcba49fe55e98487e20ea7,,,,,,,,,,,213.2213,1.4,214.6214,214.6214,215.6723,right,0,1.0471,,215.6723,216.6713,3,3,27,0,1,partial,1,images/Ex1.jpg,left,training,easy,3,,,,,
,,,,,5ce9b0e4be5a6b00163f6870,001,57,male,United Kingdom,Bachelor ,2024-02-26_16h22.07.397,CRL1e,2023.2.3,MacIntel,59.88023952,65dbad3905fde4fe1981dc61,65dcba49fe55e98487e20ea7,,,,,,,,,,,216.6716,1.4,218.0725,218.0726,219.3897,right,1,1.3135,,219.3897,220.3899,3,4,28,6,1,partial,1,images/Ex4.jpg,right,training,easy,3,,,,,
,,,,,5ce9b0e4be5a6b00163f6870,001,57,male,United Kingdom,Bachelor ,2024-02-26_16h22.07.397,CRL1e,2023.2.3,MacIntel,59.88023952,65dbad3905fde4fe1981dc61,65dcba49fe55e98487e20ea7,,,,,,,,,,,220.3901,1.1,221.4897,221.4897,222.3233,left,1,0.8315,,222.3233,223.3231,3,5,29,2,1,partial,1,images/Ex2.jpg,left,training,easy,3,,,,,
,,,,,5ce9b0e4be5a6b00163f6870,001,57,male,United Kingdom,Bachelor ,2024-02-26_16h22.07.397,CRL1e,2023.2.3,MacIntel,59.88023952,65dbad3905fde4fe1981dc61,65dcba49fe55e98487e20ea7,,,,,,,,,,,223.3235,0.8,224.1244,224.1244,225.4752,right,1,1.3472,,225.4752,226.475,3,6,30,7,1,partial,1,images/Ex4.jpg,right,training,easy,3,,,,,
,,,,,5ce9b0e4be5a6b00163f6870,001,57,male,United Kingdom,Bachelor ,2024-02-26_16h22.07.397,CRL1e,2023.2.3,MacIntel,59.88023952,65dbad3905fde4fe1981dc61,65dcba49fe55e98487e20ea7,,,,,,,,,,,226.4753,1.4,227.8748,227.8749,229.2418,right,0,1.3633,,229.2418,230.2429,3,7,31,1,1,partial,1,images/Ex1.jpg,left,training,easy,3,,,,,
,,,,,5ce9b0e4be5a6b00163f6870,001,57,male,United Kingdom,Bachelor ,2024-02-26_16h22.07.397,CRL1e,2023.2.3,MacIntel,59.88023952,65dbad3905fde4fe1981dc61,65dcba49fe55e98487e20ea7,,,,,,,,,,,230.2431,1.2,231.4428,231.4428,232.644,left,0,1.1974,,232.644,233.643,4,0,32,4,1,partial,1,images/Ex3.jpg,right,training,easy,3,,,,,
,,,,,5ce9b0e4be5a6b00163f6870,001,57,male,United Kingdom,Bachelor ,2024-02-26_16h22.07.397,CRL1e,2023.2.3,MacIntel,59.88023952,65dbad3905fde4fe1981dc61,65dcba49fe55e98487e20ea7,,,,,,,,,,,233.6432,0.5,234.144,234.1441,235.4777,left,0,1.3317,,235.4777,236.4781,4,1,33,6,1,partial,1,images/Ex4.jpg,right,training,easy,3,,,,,
,,,,,5ce9b0e4be5a6b00163f6870,001,57,male,United Kingdom,Bachelor ,2024-02-26_16h22.07.397,CRL1e,2023.2.3,MacIntel,59.88023952,65dbad3905fde4fe1981dc61,65dcba49fe55e98487e20ea7,,,,,,,,,,,236.4784,0.7,237.1784,237.1784,238.2625,left,1,1.0806,,238.2625,239.2624,4,2,34,3,1,partial,1,images/Ex2.jpg,left,training,easy,3,,,,,
,,,,,5ce9b0e4be5a6b00163f6870,001,57,male,United Kingdom,Bachelor ,2024-02-26_16h22.07.397,CRL1e,2023.2.3,MacIntel,59.88023952,65dbad3905fde4fe1981dc61,65dcba49fe55e98487e20ea7,,,,,,,,,,,239.2627,1.4,240.6629,240.6629,241.5463,right,0,0.8797,,241.5463,242.5467,4,3,35,1,1,partial,1,images/Ex1.jpg,left,training,easy,3,,,,,
,,,,,5ce9b0e4be5a6b00163f6870,001,57,male,United Kingdom,Bachelor ,2024-02-26_16h22.07.397,CRL1e,2023.2.3,MacIntel,59.88023952,65dbad3905fde4fe1981dc61,65dcba49fe55e98487e20ea7,,,,,,,,,,,242.5471,1.4,243.9461,243.9461,244.9636,left,0,1.0149,,244.9636,245.9634,4,4,36,5,1,partial,1,images/Ex3.jpg,right,training,easy,3,,,,,
,,,,,5ce9b0e4be5a6b00163f6870,001,57,male,United Kingdom,Bachelor ,2024-02-26_16h22.07.397,CRL1e,2023.2.3,MacIntel,59.88023952,65dbad3905fde4fe1981dc61,65dcba49fe55e98487e20ea7,,,,,,,,,,,245.9637,0.8,246.7644,246.7644,247.7321,left,1,0.9639,,247.7321,248.7319,4,5,37,2,1,partial,1,images/Ex2.jpg,left,training,easy,3,,,,,
,,,,,5ce9b0e4be5a6b00163f6870,001,57,male,United Kingdom,Bachelor ,2024-02-26_16h22.07.397,CRL1e,2023.2.3,MacIntel,59.88023952,65dbad3905fde4fe1981dc61,65dcba49fe55e98487e20ea7,,,,,,,,,,,248.7321,1,249.7322,249.7322,250.733,right,1,0.9967,,250.7331,251.7322,4,6,38,7,1,partial,1,images/Ex4.jpg,right,training,easy,3,,,,,
,,,,,5ce9b0e4be5a6b00163f6870,001,57,male,United Kingdom,Bachelor ,2024-02-26_16h22.07.397,CRL1e,2023.2.3,MacIntel,59.88023952,65dbad3905fde4fe1981dc61,65dcba49fe55e98487e20ea7,,,,,,,,,,,251.7324,1.2,252.9331,252.9331,254.0501,right,0,1.1141,,254.0501,255.0505,4,7,39,0,1,partial,1,images/Ex1.jpg,left,training,easy,3,,,,,
,,,,,5ce9b0e4be5a6b00163f6870,001,57,male,United Kingdom,Bachelor ,2024-02-26_16h22.07.397,CRL1e,2023.2.3,MacIntel,59.88023952,65dbad3905fde4fe1981dc61,65dcba49fe55e98487e20ea7,,,,,,,,,,,255.0507,1.4,256.45,256.45,257.4854,left,1,1.0337,,257.4855,258.4849,5,0,40,0,1,partial,1,images/Ex1.jpg,left,training,easy,3,,,,,
,,,,,5ce9b0e4be5a6b00163f6870,001,57,male,United Kingdom,Bachelor ,2024-02-26_16h22.07.397,CRL1e,2023.2.3,MacIntel,59.88023952,65dbad3905fde4fe1981dc61,65dcba49fe55e98487e20ea7,,,,,,,,,,,258.4852,1.1,259.5852,259.5852,261.103,right,1,1.5144,,261.103,262.1027,5,1,41,5,1,partial,1,images/Ex3.jpg,right,training,easy,3,,,,,
,,,,,5ce9b0e4be5a6b00163f6870,001,57,male,United Kingdom,Bachelor ,2024-02-26_16h22.07.397,CRL1e,2023.2.3,MacIntel,59.88023952,65dbad3905fde4fe1981dc61,65dcba49fe55e98487e20ea7,,,,,,,,,,,262.1095,1,263.1019,263.1019,264.1537,right,1,1.0486,,264.1537,265.1536,5,2,42,4,1,partial,1,images/Ex3.jpg,right,training,easy,3,,,,,
,,,,,5ce9b0e4be5a6b00163f6870,001,57,male,United Kingdom,Bachelor ,2024-02-26_16h22.07.397,CRL1e,2023.2.3,MacIntel,59.88023952,65dbad3905fde4fe1981dc61,65dcba49fe55e98487e20ea7,,,,,,,,,,,265.1539,1.5,266.6541,266.6541,267.3203,left,1,0.6628,,267.3204,268.3213,5,3,43,2,1,partial,1,images/Ex2.jpg,left,training,easy,3,,,,,
,,,,,5ce9b0e4be5a6b00163f6870,001,57,male,United Kingdom,Bachelor ,2024-02-26_16h22.07.397,CRL1e,2023.2.3,MacIntel,59.88023952,65dbad3905fde4fe1981dc61,65dcba49fe55e98487e20ea7,,,,,,,,,,,268.3215,1.1,269.4213,269.4214,270.6383,left,0,1.2148,,270.6383,271.638,5,4,44,6,1,partial,1,images/Ex4.jpg,right,training,easy,3,,,,,
,,,,,5ce9b0e4be5a6b00163f6870,001,57,male,United Kingdom,Bachelor ,2024-02-26_16h22.07.397,CRL1e,2023.2.3,MacIntel,59.88023952,65dbad3905fde4fe1981dc61,65dcba49fe55e98487e20ea7,,,,,,,,,,,271.6382,1.2,272.8393,272.8393,273.5567,right,1,0.7138,,273.5567,274.5565,5,5,45,7,1,partial,1,images/Ex4.jpg,right,training,easy,3,,,,,
,,,,,5ce9b0e4be5a6b00163f6870,001,57,male,United Kingdom,Bachelor ,2024-02-26_16h22.07.397,CRL1e,2023.2.3,MacIntel,59.88023952,65dbad3905fde4fe1981dc61,65dcba49fe55e98487e20ea7,,,,,,,,,,,274.5567,1,275.5568,275.5568,276.8076,right,0,1.2473,,276.8077,277.8075,5,6,46,1,1,partial,1,images/Ex1.jpg,left,training,easy,3,,,,,
,,,,,5ce9b0e4be5a6b00163f6870,001,57,male,United Kingdom,Bachelor ,2024-02-26_16h22.07.397,CRL1e,2023.2.3,MacIntel,59.88023952,65dbad3905fde4fe1981dc61,65dcba49fe55e98487e20ea7,,,,,,,,,,,277.8078,0.7,278.5078,278.5078,279.2414,left,1,0.7288,,279.2414,280.2416,5,7,47,3,1,partial,1,images/Ex2.jpg,left,training,easy,3,,,,,
,,,,,5ce9b0e4be5a6b00163f6870,001,57,male,United Kingdom,Bachelor ,2024-02-26_16h22.07.397,CRL1e,2023.2.3,MacIntel,59.88023952,65dbad3905fde4fe1981dc61,65dcba49fe55e98487e20ea7,,,,,,,,,,,280.2435,0.9,281.1419,281.1419,282.4094,left,1,1.2641,,282.4094,283.4093,0,0,0,1,1,partial,2,images/Ex1.jpg,left,nonreversed,easy,3,,,,,
,,,,,5ce9b0e4be5a6b00163f6870,001,57,male,United Kingdom,Bachelor ,2024-02-26_16h22.07.397,CRL1e,2023.2.3,MacIntel,59.88023952,65dbad3905fde4fe1981dc61,65dcba49fe55e98487e20ea7,,,,,,,,,,,283.4094,1,284.4094,284.4095,284.9935,left,1,0.5806,,284.9935,285.9933,0,1,1,0,1,partial,2,images/Ex1.jpg,left,nonreversed,easy,3,,,,,
,,,,,5ce9b0e4be5a6b00163f6870,001,57,male,United Kingdom,Bachelor ,2024-02-26_16h22.07.397,CRL1e,2023.2.3,MacIntel,59.88023952,65dbad3905fde4fe1981dc61,65dcba49fe55e98487e20ea7,,,,,,,,,,,285.9935,1.1,287.0938,287.0938,287.8777,left,0,0.7801,,287.8777,288.8775,0,2,2,3,1,partial,2,images/Ex2.jpg,right,reversed,easy,3,,,,,
,,,,,5ce9b0e4be5a6b00163f6870,001,57,male,United Kingdom,Bachelor ,2024-02-26_16h22.07.397,CRL1e,2023.2.3,MacIntel,59.88023952,65dbad3905fde4fe1981dc61,65dcba49fe55e98487e20ea7,,,,,,,,,,,288.8778,1.2,290.0768,290.0768,291.2284,left,0,1.1475,,291.2284,292.2278,0,3,3,5,1,partial,2,images/Ex3.jpg,right,nonreversed,easy,3,,,,,
,,,,,5ce9b0e4be5a6b00163f6870,001,57,male,United Kingdom,Bachelor ,2024-02-26_16h22.07.397,CRL1e,2023.2.3,MacIntel,59.88023952,65dbad3905fde4fe1981dc61,65dcba49fe55e98487e20ea7,,,,,,,,,,,292.2281,1.4,293.6279,293.6279,295.0296,right,1,1.3979,,295.0296,296.0297,0,4,4,4,1,partial,2,images/Ex3.jpg,right,nonreversed,easy,3,,,,,
,,,,,5ce9b0e4be5a6b00163f6870,001,57,male,United Kingdom,Bachelor ,2024-02-26_16h22.07.397,CRL1e,2023.2.3,MacIntel,59.88023952,65dbad3905fde4fe1981dc61,65dcba49fe55e98487e20ea7,,,,,,,,,,,296.0368,0.8,296.8301,296.8301,297.6306,left,0,0.7975,,297.6306,298.6305,0,5,5,2,1,partial,2,images/Ex2.jpg,right,reversed,easy,3,,,,,
,,,,,5ce9b0e4be5a6b00163f6870,001,57,male,United Kingdom,Bachelor ,2024-02-26_16h22.07.397,CRL1e,2023.2.3,MacIntel,59.88023952,65dbad3905fde4fe1981dc61,65dcba49fe55e98487e20ea7,,,,,,,,,,,298.6308,0.6,299.2307,299.2307,300.815,right,0,1.5809,,300.8151,301.8149,0,6,6,7,1,partial,2,images/Ex4.jpg,left,reversed,easy,3,,,,,
,,,,,5ce9b0e4be5a6b00163f6870,001,57,male,United Kingdom,Bachelor ,2024-02-26_16h22.07.397,CRL1e,2023.2.3,MacIntel,59.88023952,65dbad3905fde4fe1981dc61,65dcba49fe55e98487e20ea7,,,,,,,,,,,301.8152,1.5,303.3153,303.3153,304.3985,left,1,1.0804,,304.3986,305.3993,0,7,7,6,1,partial,2,images/Ex4.jpg,left,reversed,easy,3,,,,,
,,,,,5ce9b0e4be5a6b00163f6870,001,57,male,United Kingdom,Bachelor ,2024-02-26_16h22.07.397,CRL1e,2023.2.3,MacIntel,59.88023952,65dbad3905fde4fe1981dc61,65dcba49fe55e98487e20ea7,,,,,,,,,,,305.3996,1.2,306.5997,306.5997,308.317,right,0,1.7123,,308.317,309.3173,1,0,8,1,1,partial,2,images/Ex1.jpg,left,nonreversed,easy,3,,,,,
,,,,,5ce9b0e4be5a6b00163f6870,001,57,male,United Kingdom,Bachelor ,2024-02-26_16h22.07.397,CRL1e,2023.2.3,MacIntel,59.88023952,65dbad3905fde4fe1981dc61,65dcba49fe55e98487e20ea7,,,,,,,,,,,309.3176,0.7,310.0174,310.0174,310.8341,left,0,0.8132,,310.8341,311.8345,1,1,9,3,1,partial,2,images/Ex2.jpg,right,reversed,easy,3,,,,,
,,,,,5ce9b0e4be5a6b00163f6870,001,57,male,United Kingdom,Bachelor ,2024-02-26_16h22.07.397,CRL1e,2023.2.3,MacIntel,59.88023952,65dbad3905fde4fe1981dc61,65dcba49fe55e98487e20ea7,,,,,,,,,,,311.8348,1.2,313.0351,313.0351,313.9852,right,0,0.9465,,313.9852,314.9856,1,2,10,7,1,partial,2,images/Ex4.jpg,left,reversed,easy,3,,,,,
,,,,,5ce9b0e4be5a6b00163f6870,001,57,male,United Kingdom,Bachelor ,2024-02-26_16h22.07.397,CRL1e,2023.2.3,MacIntel,59.88023952,65dbad3905fde4fe1981dc61,65dcba49fe55e98487e20ea7,,,,,,,,,,,314.9858,1.3,316.2852,316.2852,317.8525,left,0,1.5645,,317.8525,318.8533,1,3,11,5,1,partial,2,images/Ex3.jpg,right,nonreversed,easy,3,,,,,
,,,,,5ce9b0e4be5a6b00163f6870,001,57,male,United Kingdom,Bachelor ,2024-02-26_16h22.07.397,CRL1e,2023.2.3,MacIntel,59.88023952,65dbad3905fde4fe1981dc61,65dcba49fe55e98487e20ea7,,,,,,,,,,,318.8537,0.7,319.5534,319.5535,320.5867,right,0,1.0308,,320.5868,321.5866,1,4,12,0,1,partial,2,images/Ex1.jpg,left,nonreversed,easy,3,,,,,
,,,,,5ce9b0e4be5a6b00163f6870,001,57,male,United Kingdom,Bachelor ,2024-02-26_16h22.07.397,CRL1e,2023.2.3,MacIntel,59.88023952,65dbad3905fde4fe1981dc61,65dcba49fe55e98487e20ea7,,,,,,,,,,,321.5869,1.2,322.7879,322.788,323.6215,left,0,0.8316,,323.6215,324.6209,1,5,13,2,1,partial,2,images/Ex2.jpg,right,reversed,easy,3,,,,,
,,,,,5ce9b0e4be5a6b00163f6870,001,57,male,United Kingdom,Bachelor ,2024-02-26_16h22.07.397,CRL1e,2023.2.3,MacIntel,59.88023952,65dbad3905fde4fe1981dc61,65dcba49fe55e98487e20ea7,,,,,,,,,,,324.6212,1.3,325.9223,325.9223,326.8387,right,0,0.9126,,326.8387,327.8395,1,6,14,6,1,partial,2,images/Ex4.jpg,left,reversed,easy,3,,,,,
,,,,,5ce9b0e4be5a6b00163f6870,001,57,male,United Kingdom,Bachelor ,2024-02-26_16h22.07.397,CRL1e,2023.2.3,MacIntel,59.88023952,65dbad3905fde4fe1981dc61,65dcba49fe55e98487e20ea7,,,,,,,,,,,327.8397,0.7,328.5396,328.5396,329.7896,right,1,1.2482,,329.7897,330.7905,1,7,15,4,1,partial,2,images/Ex3.jpg,right,nonreversed,easy,3,,,,,
,,,,,5ce9b0e4be5a6b00163f6870,001,57,male,United Kingdom,Bachelor ,2024-02-26_16h22.07.397,CRL1e,2023.2.3,MacIntel,59.88023952,65dbad3905fde4fe1981dc61,65dcba49fe55e98487e20ea7,,,,,,,,,,,330.7908,0.7,331.4907,331.4907,332.7082,right,0,1.2135,,332.7082,333.708,2,0,16,0,1,partial,2,images/Ex1.jpg,left,nonreversed,easy,3,,,,,
,,,,,5ce9b0e4be5a6b00163f6870,001,57,male,United Kingdom,Bachelor ,2024-02-26_16h22.07.397,CRL1e,2023.2.3,MacIntel,59.88023952,65dbad3905fde4fe1981dc61,65dcba49fe55e98487e20ea7,,,,,,,,,,,333.7083,0.8,334.5083,334.5084,335.6257,right,1,1.114,,335.6258,336.6245,2,1,17,3,1,partial,2,images/Ex2.jpg,right,reversed,easy,3,,,,,
,,,,,5ce9b0e4be5a6b00163f6870,001,57,male,United Kingdom,Bachelor ,2024-02-26_16h22.07.397,CRL1e,2023.2.3,MacIntel,59.88023952,65dbad3905fde4fe1981dc61,65dcba49fe55e98487e20ea7,,,,,,,,,,,336.6248,1.1,337.726,337.726,338.962,left,1,1.2304,,338.9621,339.9599,2,2,18,6,1,partial,2,images/Ex4.jpg,left,reversed,easy,3,,,,,
,,,,,5ce9b0e4be5a6b00163f6870,001,57,male,United Kingdom,Bachelor ,2024-02-26_16h22.07.397,CRL1e,2023.2.3,MacIntel,59.88023952,65dbad3905fde4fe1981dc61,65dcba49fe55e98487e20ea7,,,,,,,,,,,339.9672,1,340.9603,340.9603,342.2104,right,1,1.2466,,342.2104,343.2109,2,3,19,5,1,partial,2,images/Ex3.jpg,right,nonreversed,easy,3,,,,,
,,,,,5ce9b0e4be5a6b00163f6870,001,57,male,United Kingdom,Bachelor ,2024-02-26_16h22.07.397,CRL1e,2023.2.3,MacIntel,59.88023952,65dbad3905fde4fe1981dc61,65dcba49fe55e98487e20ea7,,,,,,,,,,,343.2112,1.1,344.3113,344.3113,345.512,right,0,1.1973,,345.5121,346.5115,2,4,20,1,1,partial,2,images/Ex1.jpg,left,nonreversed,easy,3,,,,,
,,,,,5ce9b0e4be5a6b00163f6870,001,57,male,United Kingdom,Bachelor ,2024-02-26_16h22.07.397,CRL1e,2023.2.3,MacIntel,59.88023952,65dbad3905fde4fe1981dc61,65dcba49fe55e98487e20ea7,,,,,,,,,,,346.5118,1,347.5122,347.5122,348.4295,right,0,0.9154,,348.4295,349.4295,2,5,21,7,1,partial,2,images/Ex4.jpg,left,reversed,easy,3,,,,,
,,,,,5ce9b0e4be5a6b00163f6870,001,57,male,United Kingdom,Bachelor ,2024-02-26_16h22.07.397,CRL1e,2023.2.3,MacIntel,59.88023952,65dbad3905fde4fe1981dc61,65dcba49fe55e98487e20ea7,,,,,,,,,,,349.4296,1.3,350.7293,350.7294,351.6464,right,1,0.914,,351.6464,352.6471,2,6,22,2,1,partial,2,images/Ex2.jpg,right,reversed,easy,3,,,,,
,,,,,5ce9b0e4be5a6b00163f6870,001,57,male,United Kingdom,Bachelor ,2024-02-26_16h22.07.397,CRL1e,2023.2.3,MacIntel,59.88023952,65dbad3905fde4fe1981dc61,65dcba49fe55e98487e20ea7,,,,,,,,,,,352.6474,1.2,353.8471,353.8471,355.0816,right,1,1.2311,,355.0817,356.0815,2,7,23,4,1,partial,2,images/Ex3.jpg,right,nonreversed,easy,3,,,,,
,,,,,5ce9b0e4be5a6b00163f6870,001,57,male,United Kingdom,Bachelor ,2024-02-26_16h22.07.397,CRL1e,2023.2.3,MacIntel,59.88023952,65dbad3905fde4fe1981dc61,65dcba49fe55e98487e20ea7,,,,,,,,,,,356.0818,0.6,356.681,356.681,357.7992,left,1,1.1142,,357.7992,358.799,3,0,24,1,1,partial,2,images/Ex1.jpg,left,nonreversed,easy,3,,,,,
,,,,,5ce9b0e4be5a6b00163f6870,001,57,male,United Kingdom,Bachelor ,2024-02-26_16h22.07.397,CRL1e,2023.2.3,MacIntel,59.88023952,65dbad3905fde4fe1981dc61,65dcba49fe55e98487e20ea7,,,,,,,,,,,358.7993,1.2,359.9982,359.9983,360.9159,right,1,0.9151,,360.916,361.9166,3,1,25,3,1,partial,2,images/Ex2.jpg,right,reversed,easy,3,,,,,
,,,,,5ce9b0e4be5a6b00163f6870,001,57,male,United Kingdom,Bachelor ,2024-02-26_16h22.07.397,CRL1e,2023.2.3,MacIntel,59.88023952,65dbad3905fde4fe1981dc61,65dcba49fe55e98487e20ea7,,,,,,,,,,,361.9168,0.9,362.8158,362.8158,363.8665,left,0,1.0486,,363.8665,364.867,3,2,26,4,1,partial,2,images/Ex3.jpg,right,nonreversed,easy,3,,,,,
,,,,,5ce9b0e4be5a6b00163f6870,001,57,male,United Kingdom,Bachelor ,2024-02-26_16h22.07.397,CRL1e,2023.2.3,MacIntel,59.88023952,65dbad3905fde4fe1981dc61,65dcba49fe55e98487e20ea7,,,,,,,,,,,364.8671,0.8,365.6678,365.6678,366.5174,right,0,0.8478,,366.5174,367.5184,3,3,27,7,1,partial,2,images/Ex4.jpg,left,reversed,easy,3,,,,,
,,,,,5ce9b0e4be5a6b00163f6870,001,57,male,United Kingdom,Bachelor ,2024-02-26_16h22.07.397,CRL1e,2023.2.3,MacIntel,59.88023952,65dbad3905fde4fe1981dc61,65dcba49fe55e98487e20ea7,,,,,,,,,,,367.5187,0.9,368.4185,368.4186,369.2851,right,1,0.8641,,369.2852,370.2858,3,4,28,2,1,partial,2,images/Ex2.jpg,right,reversed,easy,3,,,,,
,,,,,5ce9b0e4be5a6b00163f6870,001,57,male,United Kingdom,Bachelor ,2024-02-26_16h22.07.397,CRL1e,2023.2.3,MacIntel,59.88023952,65dbad3905fde4fe1981dc61,65dcba49fe55e98487e20ea7,,,,,,,,,,,370.286,0.8,371.086,371.0861,372.2694,left,0,1.1815,,372.2694,373.2702,3,5,29,5,1,partial,2,images/Ex3.jpg,right,nonreversed,easy,3,,,,,
,,,,,5ce9b0e4be5a6b00163f6870,001,57,male,United Kingdom,Bachelor ,2024-02-26_16h22.07.397,CRL1e,2023.2.3,MacIntel,59.88023952,65dbad3905fde4fe1981dc61,65dcba49fe55e98487e20ea7,,,,,,,,,,,373.2704,1.1,374.3697,374.3697,375.5878,left,1,1.2137,,375.5879,376.5875,3,6,30,6,1,partial,2,images/Ex4.jpg,left,reversed,easy,3,,,,,
,,,,,5ce9b0e4be5a6b00163f6870,001,57,male,United Kingdom,Bachelor ,2024-02-26_16h22.07.397,CRL1e,2023.2.3,MacIntel,59.88023952,65dbad3905fde4fe1981dc61,65dcba49fe55e98487e20ea7,,,,,,,,,,,376.5876,0.9,377.4872,377.4873,378.422,right,0,0.9323,,378.4221,379.4219,3,7,31,0,1,partial,2,images/Ex1.jpg,left,nonreversed,easy,3,,,,,
,,,,,5ce9b0e4be5a6b00163f6870,001,57,male,United Kingdom,Bachelor ,2024-02-26_16h22.07.397,CRL1e,2023.2.3,MacIntel,59.88023952,65dbad3905fde4fe1981dc61,65dcba49fe55e98487e20ea7,,,,,,,,,,,379.4222,1.2,380.6217,380.6218,381.5724,left,0,0.9469,,381.5724,382.5723,4,0,32,5,1,partial,2,images/Ex3.jpg,right,nonreversed,easy,3,,,,,
,,,,,5ce9b0e4be5a6b00163f6870,001,57,male,United Kingdom,Bachelor ,2024-02-26_16h22.07.397,CRL1e,2023.2.3,MacIntel,59.88023952,65dbad3905fde4fe1981dc61,65dcba49fe55e98487e20ea7,,,,,,,,,,,382.5726,1.2,383.7733,383.7733,384.6229,left,1,0.8477,,384.6229,385.6238,4,1,33,6,1,partial,2,images/Ex4.jpg,left,reversed,easy,3,,,,,
,,,,,5ce9b0e4be5a6b00163f6870,001,57,male,United Kingdom,Bachelor ,2024-02-26_16h22.07.397,CRL1e,2023.2.3,MacIntel,59.88023952,65dbad3905fde4fe1981dc61,65dcba49fe55e98487e20ea7,,,,,,,,,,,385.6241,1.2,386.8241,386.8241,387.7249,right,1,0.8971,,387.7249,388.7248,4,2,34,3,1,partial,2,images/Ex2.jpg,right,reversed,easy,3,,,,,
,,,,,5ce9b0e4be5a6b00163f6870,001,57,male,United Kingdom,Bachelor ,2024-02-26_16h22.07.397,CRL1e,2023.2.3,MacIntel,59.88023952,65dbad3905fde4fe1981dc61,65dcba49fe55e98487e20ea7,,,,,,,,,,,388.725,1.1,389.8251,389.8251,390.8425,right,0,1.0137,,390.8425,391.8418,4,3,35,1,1,partial,2,images/Ex1.jpg,left,nonreversed,easy,3,,,,,
,,,,,5ce9b0e4be5a6b00163f6870,001,57,male,United Kingdom,Bachelor ,2024-02-26_16h22.07.397,CRL1e,2023.2.3,MacIntel,59.88023952,65dbad3905fde4fe1981dc61,65dcba49fe55e98487e20ea7,,,,,,,,,,,391.8421,0.9,392.7426,392.7426,393.6767,right,0,0.9332,,393.6767,394.6767,4,4,36,7,1,partial,2,images/Ex4.jpg,left,reversed,easy,3,,,,,
,,,,,5ce9b0e4be5a6b00163f6870,001,57,male,United Kingdom,Bachelor ,2024-02-26_16h22.07.397,CRL1e,2023.2.3,MacIntel,59.88023952,65dbad3905fde4fe1981dc61,65dcba49fe55e98487e20ea7,,,,,,,,,,,394.6769,1.3,395.9761,395.9761,396.9278,right,1,0.9478,,396.9278,397.9275,4,5,37,2,1,partial,2,images/Ex2.jpg,right,reversed,easy,3,,,,,
,,,,,5ce9b0e4be5a6b00163f6870,001,57,male,United Kingdom,Bachelor ,2024-02-26_16h22.07.397,CRL1e,2023.2.3,MacIntel,59.88023952,65dbad3905fde4fe1981dc61,65dcba49fe55e98487e20ea7,,,,,,,,,,,397.9278,1,398.9279,398.928,400.2121,right,1,1.2803,,400.2121,401.2119,4,6,38,4,1,partial,2,images/Ex3.jpg,right,nonreversed,easy,3,,,,,
,,,,,5ce9b0e4be5a6b00163f6870,001,57,male,United Kingdom,Bachelor ,2024-02-26_16h22.07.397,CRL1e,2023.2.3,MacIntel,59.88023952,65dbad3905fde4fe1981dc61,65dcba49fe55e98487e20ea7,,,,,,,,,,,401.2121,1.3,402.5123,402.5124,403.4126,left,1,0.8962,,403.4126,404.4118,4,7,39,0,1,partial,2,images/Ex1.jpg,left,nonreversed,easy,3,,,,,
,,,,,5ce9b0e4be5a6b00163f6870,001,57,male,United Kingdom,Bachelor ,2024-02-26_16h22.07.397,CRL1e,2023.2.3,MacIntel,59.88023952,65dbad3905fde4fe1981dc61,65dcba49fe55e98487e20ea7,,,,,,,,,,,404.412,0.7,405.1131,405.1132,406.1467,left,1,1.0302,,406.1467,407.1472,5,0,40,1,1,partial,2,images/Ex1.jpg,left,nonreversed,easy,3,,,,,
,,,,,5ce9b0e4be5a6b00163f6870,001,57,male,United Kingdom,Bachelor ,2024-02-26_16h22.07.397,CRL1e,2023.2.3,MacIntel,59.88023952,65dbad3905fde4fe1981dc61,65dcba49fe55e98487e20ea7,,,,,,,,,,,407.1474,1.1,408.2476,408.2476,409.0982,right,0,0.8471,,409.0982,410.098,5,1,41,7,1,partial,2,images/Ex4.jpg,left,reversed,easy,3,,,,,
,,,,,5ce9b0e4be5a6b00163f6870,001,57,male,United Kingdom,Bachelor ,2024-02-26_16h22.07.397,CRL1e,2023.2.3,MacIntel,59.88023952,65dbad3905fde4fe1981dc61,65dcba49fe55e98487e20ea7,,,,,,,,,,,410.0982,0.7,410.7983,410.7983,411.7484,left,1,0.9469,,411.7484,412.7488,5,2,42,0,1,partial,2,images/Ex1.jpg,left,nonreversed,easy,3,,,,,
,,,,,5ce9b0e4be5a6b00163f6870,001,57,male,United Kingdom,Bachelor ,2024-02-26_16h22.07.397,CRL1e,2023.2.3,MacIntel,59.88023952,65dbad3905fde4fe1981dc61,65dcba49fe55e98487e20ea7,,,,,,,,,,,412.7491,0.6,413.3489,413.349,414.6331,left,0,1.2811,,414.6331,415.6331,5,3,43,5,1,partial,2,images/Ex3.jpg,right,nonreversed,easy,3,,,,,
,,,,,5ce9b0e4be5a6b00163f6870,001,57,male,United Kingdom,Bachelor ,2024-02-26_16h22.07.397,CRL1e,2023.2.3,MacIntel,59.88023952,65dbad3905fde4fe1981dc61,65dcba49fe55e98487e20ea7,,,,,,,,,,,415.6334,1.3,416.9333,416.9333,417.7675,right,1,0.8305,,417.7675,418.7664,5,4,44,3,1,partial,2,images/Ex2.jpg,right,reversed,easy,3,,,,,
,,,,,5ce9b0e4be5a6b00163f6870,001,57,male,United Kingdom,Bachelor ,2024-02-26_16h22.07.397,CRL1e,2023.2.3,MacIntel,59.88023952,65dbad3905fde4fe1981dc61,65dcba49fe55e98487e20ea7,,,,,,,,,,,418.7667,1.3,420.0668,420.0668,421.2186,left,1,1.1477,,421.2186,422.2184,5,5,45,6,1,partial,2,images/Ex4.jpg,left,reversed,easy,3,,,,,
,,,,,5ce9b0e4be5a6b00163f6870,001,57,male,United Kingdom,Bachelor ,2024-02-26_16h22.07.397,CRL1e,2023.2.3,MacIntel,59.88023952,65dbad3905fde4fe1981dc61,65dcba49fe55e98487e20ea7,,,,,,,,,,,422.2187,0.9,423.1189,423.1189,424.4693,right,1,1.3487,,424.4693,425.4693,5,6,46,4,1,partial,2,images/Ex3.jpg,right,nonreversed,easy,3,,,,,
,,,,,5ce9b0e4be5a6b00163f6870,001,57,male,United Kingdom,Bachelor ,2024-02-26_16h22.07.397,CRL1e,2023.2.3,MacIntel,59.88023952,65dbad3905fde4fe1981dc61,65dcba49fe55e98487e20ea7,,,,,,,,,,,425.4697,1.3,426.7688,426.7688,427.854,right,1,1.0815,,427.854,428.8538,5,7,47,2,1,partial,2,images/Ex2.jpg,right,reversed,easy,3,,,,,
,,,,,5ce9b0e4be5a6b00163f6870,001,57,male,United Kingdom,Bachelor ,2024-02-26_16h22.07.397,CRL1e,2023.2.3,MacIntel,59.88023952,65dbad3905fde4fe1981dc61,65dcba49fe55e98487e20ea7,,,,,,428.8544,432.921,space,4.0508,,432.9302,0.6,433.522,433.5221,435.7228,left,0,2.1966,,435.7228,436.7229,0,0,0,6,1,total,1,images/Ex8.jpg,right,training,easy,3,,,,,
,,,,,5ce9b0e4be5a6b00163f6870,001,57,male,United Kingdom,Bachelor ,2024-02-26_16h22.07.397,CRL1e,2023.2.3,MacIntel,59.88023952,65dbad3905fde4fe1981dc61,65dcba49fe55e98487e20ea7,,,,,,,,,,,436.7299,1.1,437.8221,437.8222,438.6572,right,1,0.8313,,438.6572,439.6572,0,1,1,5,1,total,1,images/Ex7.jpg,right,training,easy,3,,,,,
,,,,,5ce9b0e4be5a6b00163f6870,001,57,male,United Kingdom,Bachelor ,2024-02-26_16h22.07.397,CRL1e,2023.2.3,MacIntel,59.88023952,65dbad3905fde4fe1981dc61,65dcba49fe55e98487e20ea7,,,,,,,,,,,439.6575,0.6,440.2564,440.2565,441.2244,left,1,0.9646,,441.2244,442.2242,0,2,2,1,1,total,1,images/Ex5.jpg,left,training,easy,3,,,,,
,,,,,5ce9b0e4be5a6b00163f6870,001,57,male,United Kingdom,Bachelor ,2024-02-26_16h22.07.397,CRL1e,2023.2.3,MacIntel,59.88023952,65dbad3905fde4fe1981dc61,65dcba49fe55e98487e20ea7,,,,,,,,,,,442.2244,1.4,443.624,443.6241,444.4923,right,0,0.8646,,444.4923,445.4922,0,3,3,0,1,total,1,images/Ex5.jpg,left,training,easy,3,,,,,
,,,,,5ce9b0e4be5a6b00163f6870,001,57,male,United Kingdom,Bachelor ,2024-02-26_16h22.07.397,CRL1e,2023.2.3,MacIntel,59.88023952,65dbad3905fde4fe1981dc61,65dcba49fe55e98487e20ea7,,,,,,,,,,,445.4924,0.8,446.2925,446.2925,447.2766,right,1,0.9804,,447.2766,448.2763,0,4,4,4,1,total,1,images/Ex7.jpg,right,training,easy,3,,,,,
,,,,,5ce9b0e4be5a6b00163f6870,001,57,male,United Kingdom,Bachelor ,2024-02-26_16h22.07.397,CRL1e,2023.2.3,MacIntel,59.88023952,65dbad3905fde4fe1981dc61,65dcba49fe55e98487e20ea7,,,,,,,,,,,448.2766,0.7,448.9757,448.9758,449.7937,left,1,0.8138,,449.7937,450.7939,0,5,5,2,1,total,1,images/Ex6.jpg,left,training,easy,3,,,,,
,,,,,5ce9b0e4be5a6b00163f6870,001,57,male,United Kingdom,Bachelor ,2024-02-26_16h22.07.397,CRL1e,2023.2.3,MacIntel,59.88023952,65dbad3905fde4fe1981dc61,65dcba49fe55e98487e20ea7,,,,,,,,,,,450.7941,1.2,451.9931,451.9931,452.9607,right,1,0.9654,,452.9607,453.9614,0,6,6,7,1,total,1,images/Ex8.jpg,right,training,easy,3,,,,,
,,,,,5ce9b0e4be5a6b00163f6870,001,57,male,United Kingdom,Bachelor ,2024-02-26_16h22.07.397,CRL1e,2023.2.3,MacIntel,59.88023952,65dbad3905fde4fe1981dc61,65dcba49fe55e98487e20ea7,,,,,,,,,,,453.9617,1.5,455.4619,455.462,456.5284,left,1,1.0625,,456.5284,457.5292,0,7,7,3,1,total,1,images/Ex6.jpg,left,training,easy,3,,,,,
,,,,,5ce9b0e4be5a6b00163f6870,001,57,male,United Kingdom,Bachelor ,2024-02-26_16h22.07.397,CRL1e,2023.2.3,MacIntel,59.88023952,65dbad3905fde4fe1981dc61,65dcba49fe55e98487e20ea7,,,,,,,,,,,457.5295,1.4,458.9296,458.9297,459.7136,right,1,0.7805,,459.7137,460.7134,1,0,8,6,1,total,1,images/Ex8.jpg,right,training,easy,3,,,,,
,,,,,5ce9b0e4be5a6b00163f6870,001,57,male,United Kingdom,Bachelor ,2024-02-26_16h22.07.397,CRL1e,2023.2.3,MacIntel,59.88023952,65dbad3905fde4fe1981dc61,65dcba49fe55e98487e20ea7,,,,,,,,,,,460.7137,1.3,462.0139,462.014,462.6978,right,1,0.6808,,462.6979,463.6971,1,1,9,7,1,total,1,images/Ex8.jpg,right,training,easy,3,,,,,
,,,,,5ce9b0e4be5a6b00163f6870,001,57,male,United Kingdom,Bachelor ,2024-02-26_16h22.07.397,CRL1e,2023.2.3,MacIntel,59.88023952,65dbad3905fde4fe1981dc61,65dcba49fe55e98487e20ea7,,,,,,,,,,,463.6972,1,464.6972,464.6972,465.5646,left,0,0.8646,,465.5646,466.5653,1,2,10,4,1,total,1,images/Ex7.jpg,right,training,easy,3,,,,,
,,,,,5ce9b0e4be5a6b00163f6870,001,57,male,United Kingdom,Bachelor ,2024-02-26_16h22.07.397,CRL1e,2023.2.3,MacIntel,59.88023952,65dbad3905fde4fe1981dc61,65dcba49fe55e98487e20ea7,,,,,,,,,,,466.5656,1.2,467.7656,467.7656,468.833,right,0,1.0642,,468.833,469.8327,1,3,11,3,1,total,1,images/Ex6.jpg,left,training,easy,3,,,,,
,,,,,5ce9b0e4be5a6b00163f6870,001,57,male,United Kingdom,Bachelor ,2024-02-26_16h22.07.397,CRL1e,2023.2.3,MacIntel,59.88023952,65dbad3905fde4fe1981dc61,65dcba49fe55e98487e20ea7,,,,,,,,,,,469.833,0.8,470.6332,470.6333,471.6506,right,1,1.0136,,471.6506,472.6505,1,4,12,5,1,total,1,images/Ex7.jpg,right,training,easy,3,,,,,
,,,,,5ce9b0e4be5a6b00163f6870,001,57,male,United Kingdom,Bachelor ,2024-02-26_16h22.07.397,CRL1e,2023.2.3,MacIntel,59.88023952,65dbad3905fde4fe1981dc61,65dcba49fe55e98487e20ea7,,,,,,,,,,,472.6507,1.3,473.9506,473.9506,474.8506,left,1,0.8974,,474.8506,475.8514,1,5,13,1,1,total,1,images/Ex5.jpg,left,training,easy,3,,,,,
,,,,,5ce9b0e4be5a6b00163f6870,001,57,male,United Kingdom,Bachelor ,2024-02-26_16h22.07.397,CRL1e,2023.2.3,MacIntel,59.88023952,65dbad3905fde4fe1981dc61,65dcba49fe55e98487e20ea7,,,,,,,,,,,475.8517,1.3,477.1511,477.1511,478.552,right,0,1.3965,,478.5521,479.5523,1,6,14,2,1,total,1,images/Ex6.jpg,left,training,easy,3,,,,,
,,,,,5ce9b0e4be5a6b00163f6870,001,57,male,United Kingdom,Bachelor ,2024-02-26_16h22.07.397,CRL1e,2023.2.3,MacIntel,59.88023952,65dbad3905fde4fe1981dc61,65dcba49fe55e98487e20ea7,,,,,,,,,,,479.5525,1.2,480.752,480.7521,481.8204,left,1,1.0648,,481.8204,482.8202,1,7,15,0,1,total,1,images/Ex5.jpg,left,training,easy,3,,,,,
,,,,,5ce9b0e4be5a6b00163f6870,001,57,male,United Kingdom,Bachelor ,2024-02-26_16h22.07.397,CRL1e,2023.2.3,MacIntel,59.88023952,65dbad3905fde4fe1981dc61,65dcba49fe55e98487e20ea7,,,,,,,,,,,482.8204,1.4,484.2207,484.2207,485.0381,left,1,0.8138,,485.0381,486.038,2,0,16,3,1,total,1,images/Ex6.jpg,left,training,easy,3,,,,,
,,,,,5ce9b0e4be5a6b00163f6870,001,57,male,United Kingdom,Bachelor ,2024-02-26_16h22.07.397,CRL1e,2023.2.3,MacIntel,59.88023952,65dbad3905fde4fe1981dc61,65dcba49fe55e98487e20ea7,,,,,,,,,,,486.0383,1.1,487.1375,487.1375,488.0213,right,1,0.882,,488.0214,489.0221,2,1,17,4,1,total,1,images/Ex7.jpg,right,training,easy,3,,,,,
,,,,,5ce9b0e4be5a6b00163f6870,001,57,male,United Kingdom,Bachelor ,2024-02-26_16h22.07.397,CRL1e,2023.2.3,MacIntel,59.88023952,65dbad3905fde4fe1981dc61,65dcba49fe55e98487e20ea7,,,,,,,,,,,489.0224,0.5,489.5223,489.5223,490.4561,left,1,0.9305,,490.4561,491.4563,2,2,18,1,1,total,1,images/Ex5.jpg,left,training,easy,3,,,,,
,,,,,5ce9b0e4be5a6b00163f6870,001,57,male,United Kingdom,Bachelor ,2024-02-26_16h22.07.397,CRL1e,2023.2.3,MacIntel,59.88023952,65dbad3905fde4fe1981dc61,65dcba49fe55e98487e20ea7,,,,,,,,,,,491.4566,0.8,492.2555,492.2555,493.3073,right,1,1.0476,,493.3073,494.3067,2,3,19,6,1,total,1,images/Ex8.jpg,right,training,easy,3,,,,,
,,,,,5ce9b0e4be5a6b00163f6870,001,57,male,United Kingdom,Bachelor ,2024-02-26_16h22.07.397,CRL1e,2023.2.3,MacIntel,59.88023952,65dbad3905fde4fe1981dc61,65dcba49fe55e98487e20ea7,,,,,,,,,,,494.3069,0.9,495.2066,495.2066,496.0572,left,0,0.8482,,496.0572,497.0572,2,4,20,5,1,total,1,images/Ex7.jpg,right,training,easy,3,,,,,
,,,,,5ce9b0e4be5a6b00163f6870,001,57,male,United Kingdom,Bachelor ,2024-02-26_16h22.07.397,CRL1e,2023.2.3,MacIntel,59.88023952,65dbad3905fde4fe1981dc61,65dcba49fe55e98487e20ea7,,,,,,,,,,,497.0575,0.5,497.5573,497.5573,498.5086,left,1,0.9476,,498.5086,499.5078,2,5,21,2,1,total,1,images/Ex6.jpg,left,training,easy,3,,,,,
,,,,,5ce9b0e4be5a6b00163f6870,001,57,male,United Kingdom,Bachelor ,2024-02-26_16h22.07.397,CRL1e,2023.2.3,MacIntel,59.88023952,65dbad3905fde4fe1981dc61,65dcba49fe55e98487e20ea7,,,,,,,,,,,499.508,0.8,500.3082,500.3082,501.159,right,1,0.8478,,501.159,502.1585,2,6,22,7,1,total,1,images/Ex8.jpg,right,training,easy,3,,,,,
,,,,,5ce9b0e4be5a6b00163f6870,001,57,male,United Kingdom,Bachelor ,2024-02-26_16h22.07.397,CRL1e,2023.2.3,MacIntel,59.88023952,65dbad3905fde4fe1981dc61,65dcba49fe55e98487e20ea7,,,,,,,,,,,502.1587,0.7,502.8598,502.8598,504.0934,left,1,1.2318,,504.0935,505.0937,2,7,23,0,1,total,1,images/Ex5.jpg,left,training,easy,3,,,,,
,,,,,5ce9b0e4be5a6b00163f6870,001,57,male,United Kingdom,Bachelor ,2024-02-26_16h22.07.397,CRL1e,2023.2.3,MacIntel,59.88023952,65dbad3905fde4fe1981dc61,65dcba49fe55e98487e20ea7,,,,,,,,,,,505.094,0.6,505.6939,505.694,506.3444,left,1,0.6458,,506.3444,507.3436,3,0,24,1,1,total,1,images/Ex5.jpg,left,training,easy,3,,,,,
,,,,,5ce9b0e4be5a6b00163f6870,001,57,male,United Kingdom,Bachelor ,2024-02-26_16h22.07.397,CRL1e,2023.2.3,MacIntel,59.88023952,65dbad3905fde4fe1981dc61,65dcba49fe55e98487e20ea7,,,,,,,,,,,507.344,1.5,508.845,508.845,509.5122,left,1,0.6639,,509.5122,510.5121,3,1,25,0,1,total,1,images/Ex5.jpg,left,training,easy,3,,,,,
,,,,,5ce9b0e4be5a6b00163f6870,001,57,male,United Kingdom,Bachelor ,2024-02-26_16h22.07.397,CRL1e,2023.2.3,MacIntel,59.88023952,65dbad3905fde4fe1981dc61,65dcba49fe55e98487e20ea7,,,,,,,,,,,510.5123,1.4,511.9124,511.9124,512.5957,left,0,0.6794,,512.5957,513.5954,3,2,26,6,1,total,1,images/Ex8.jpg,right,training,easy,3,,,,,
,,,,,5ce9b0e4be5a6b00163f6870,001,57,male,United Kingdom,Bachelor ,2024-02-26_16h22.07.397,CRL1e,2023.2.3,MacIntel,59.88023952,65dbad3905fde4fe1981dc61,65dcba49fe55e98487e20ea7,,,,,,,,,,,513.5958,1.5,515.0968,515.0968,516.0641,right,1,0.9639,,516.0641,517.064,3,3,27,4,1,total,1,images/Ex7.jpg,right,training,easy,3,,,,,
,,,,,5ce9b0e4be5a6b00163f6870,001,57,male,United Kingdom,Bachelor ,2024-02-26_16h22.07.397,CRL1e,2023.2.3,MacIntel,59.88023952,65dbad3905fde4fe1981dc61,65dcba49fe55e98487e20ea7,,,,,,,,,,,517.0643,0.5,517.5643,517.5644,518.5647,left,1,0.9956,,518.5647,519.5641,3,4,28,2,1,total,1,images/Ex6.jpg,left,training,easy,3,,,,,
,,,,,5ce9b0e4be5a6b00163f6870,001,57,male,United Kingdom,Bachelor ,2024-02-26_16h22.07.397,CRL1e,2023.2.3,MacIntel,59.88023952,65dbad3905fde4fe1981dc61,65dcba49fe55e98487e20ea7,,,,,,,,,,,519.5643,1.1,520.6651,520.6652,521.7656,left,0,1.0987,,521.7656,522.7658,3,5,29,7,1,total,1,images/Ex8.jpg,right,training,easy,3,,,,,
,,,,,5ce9b0e4be5a6b00163f6870,001,57,male,United Kingdom,Bachelor ,2024-02-26_16h22.07.397,CRL1e,2023.2.3,MacIntel,59.88023952,65dbad3905fde4fe1981dc61,65dcba49fe55e98487e20ea7,,,,,,,,,,,522.7661,0.7,523.4651,523.4651,524.3164,left,1,0.8463,,524.3164,525.3158,3,6,30,3,1,total,1,images/Ex6.jpg,left,training,easy,3,,,,,
,,,,,5ce9b0e4be5a6b00163f6870,001,57,male,United Kingdom,Bachelor ,2024-02-26_16h22.07.397,CRL1e,2023.2.3,MacIntel,59.88023952,65dbad3905fde4fe1981dc61,65dcba49fe55e98487e20ea7,,,,,,,,,,,525.316,1.2,526.517,526.517,527.4511,right,1,0.9297,,527.4512,528.4499,3,7,31,5,1,total,1,images/Ex7.jpg,right,training,easy,3,,,,,
,,,,,5ce9b0e4be5a6b00163f6870,001,57,male,United Kingdom,Bachelor ,2024-02-26_16h22.07.397,CRL1e,2023.2.3,MacIntel,59.88023952,65dbad3905fde4fe1981dc61,65dcba49fe55e98487e20ea7,,,,,,,,,,,528.4503,1.1,529.5513,529.5513,530.3687,left,1,0.8139,,530.3687,531.3685,4,0,32,2,1,total,1,images/Ex6.jpg,left,training,easy,3,,,,,
,,,,,5ce9b0e4be5a6b00163f6870,001,57,male,United Kingdom,Bachelor ,2024-02-26_16h22.07.397,CRL1e,2023.2.3,MacIntel,59.88023952,65dbad3905fde4fe1981dc61,65dcba49fe55e98487e20ea7,,,,,,,,,,,531.3688,0.9,532.2688,532.2688,533.2692,right,1,0.9986,,533.2693,534.2694,4,1,33,6,1,total,1,images/Ex8.jpg,right,training,easy,3,,,,,
,,,,,5ce9b0e4be5a6b00163f6870,001,57,male,United Kingdom,Bachelor ,2024-02-26_16h22.07.397,CRL1e,2023.2.3,MacIntel,59.88023952,65dbad3905fde4fe1981dc61,65dcba49fe55e98487e20ea7,,,,,,,,,,,534.2696,1.3,535.5698,535.5698,536.4372,right,1,0.8638,,536.4372,537.437,4,2,34,4,1,total,1,images/Ex7.jpg,right,training,easy,3,,,,,
,,,,,5ce9b0e4be5a6b00163f6870,001,57,male,United Kingdom,Bachelor ,2024-02-26_16h22.07.397,CRL1e,2023.2.3,MacIntel,59.88023952,65dbad3905fde4fe1981dc61,65dcba49fe55e98487e20ea7,,,,,,,,,,,537.4373,0.5,537.9372,537.9372,538.8711,left,0,0.9299,,538.8711,539.8712,4,3,35,7,1,total,1,images/Ex8.jpg,right,training,easy,3,,,,,
,,,,,5ce9b0e4be5a6b00163f6870,001,57,male,United Kingdom,Bachelor ,2024-02-26_16h22.07.397,CRL1e,2023.2.3,MacIntel,59.88023952,65dbad3905fde4fe1981dc61,65dcba49fe55e98487e20ea7,,,,,,,,,,,539.8714,0.9,540.7714,540.7714,541.6388,left,1,0.8638,,541.6388,542.6386,4,4,36,0,1,total,1,images/Ex5.jpg,left,training,easy,3,,,,,
,,,,,5ce9b0e4be5a6b00163f6870,001,57,male,United Kingdom,Bachelor ,2024-02-26_16h22.07.397,CRL1e,2023.2.3,MacIntel,59.88023952,65dbad3905fde4fe1981dc61,65dcba49fe55e98487e20ea7,,,,,,,,,,,542.639,1,543.6389,543.6389,544.2897,left,1,0.6474,,544.2897,545.2894,4,5,37,3,1,total,1,images/Ex6.jpg,left,training,easy,3,,,,,
,,,,,5ce9b0e4be5a6b00163f6870,001,57,male,United Kingdom,Bachelor ,2024-02-26_16h22.07.397,CRL1e,2023.2.3,MacIntel,59.88023952,65dbad3905fde4fe1981dc61,65dcba49fe55e98487e20ea7,,,,,,,,,,,545.2896,0.8,546.0897,546.0897,547.1896,left,1,1.096,,547.1896,548.1904,4,6,38,1,1,total,1,images/Ex5.jpg,left,training,easy,3,,,,,
,,,,,5ce9b0e4be5a6b00163f6870,001,57,male,United Kingdom,Bachelor ,2024-02-26_16h22.07.397,CRL1e,2023.2.3,MacIntel,59.88023952,65dbad3905fde4fe1981dc61,65dcba49fe55e98487e20ea7,,,,,,,,,,,548.1906,1.2,549.3903,549.3903,550.2581,right,1,0.8644,,550.2581,551.2579,4,7,39,5,1,total,1,images/Ex7.jpg,right,training,easy,3,,,,,
,,,,,5ce9b0e4be5a6b00163f6870,001,57,male,United Kingdom,Bachelor ,2024-02-26_16h22.07.397,CRL1e,2023.2.3,MacIntel,59.88023952,65dbad3905fde4fe1981dc61,65dcba49fe55e98487e20ea7,,,,,,,,,,,551.2582,0.9,552.1582,552.1582,552.7911,right,1,0.6298,,552.7911,553.792,5,0,40,4,1,total,1,images/Ex7.jpg,right,training,easy,3,,,,,
,,,,,5ce9b0e4be5a6b00163f6870,001,57,male,United Kingdom,Bachelor ,2024-02-26_16h22.07.397,CRL1e,2023.2.3,MacIntel,59.88023952,65dbad3905fde4fe1981dc61,65dcba49fe55e98487e20ea7,,,,,,,,,,,553.7923,0.8,554.5913,554.5913,555.3582,left,1,0.7645,,555.3583,556.3595,5,1,41,0,1,total,1,images/Ex5.jpg,left,training,easy,3,,,,,
,,,,,5ce9b0e4be5a6b00163f6870,001,57,male,United Kingdom,Bachelor ,2024-02-26_16h22.07.397,CRL1e,2023.2.3,MacIntel,59.88023952,65dbad3905fde4fe1981dc61,65dcba49fe55e98487e20ea7,,,,,,,,,,,556.3598,1.2,557.5598,557.5598,558.3939,left,1,0.8304,,558.3939,559.3938,5,2,42,1,1,total,1,images/Ex5.jpg,left,training,easy,3,,,,,
,,,,,5ce9b0e4be5a6b00163f6870,001,57,male,United Kingdom,Bachelor ,2024-02-26_16h22.07.397,CRL1e,2023.2.3,MacIntel,59.88023952,65dbad3905fde4fe1981dc61,65dcba49fe55e98487e20ea7,,,,,,,,,,,559.3941,1.4,560.7942,560.7942,561.5449,left,0,0.7467,,561.5449,562.5443,5,3,43,7,1,total,1,images/Ex8.jpg,right,training,easy,3,,,,,
,,,,,5ce9b0e4be5a6b00163f6870,001,57,male,United Kingdom,Bachelor ,2024-02-26_16h22.07.397,CRL1e,2023.2.3,MacIntel,59.88023952,65dbad3905fde4fe1981dc61,65dcba49fe55e98487e20ea7,,,,,,,,,,,562.5446,0.9,563.4449,563.445,564.6626,left,0,1.2141,,564.6627,565.6618,5,4,44,5,1,total,1,images/Ex7.jpg,right,training,easy,3,,,,,
,,,,,5ce9b0e4be5a6b00163f6870,001,57,male,United Kingdom,Bachelor ,2024-02-26_16h22.07.397,CRL1e,2023.2.3,MacIntel,59.88023952,65dbad3905fde4fe1981dc61,65dcba49fe55e98487e20ea7,,,,,,,,,,,565.6621,1.1,566.7623,566.7623,567.5967,left,1,0.8308,,567.5967,568.5966,5,5,45,2,1,total,1,images/Ex6.jpg,left,training,easy,3,,,,,
,,,,,5ce9b0e4be5a6b00163f6870,001,57,male,United Kingdom,Bachelor ,2024-02-26_16h22.07.397,CRL1e,2023.2.3,MacIntel,59.88023952,65dbad3905fde4fe1981dc61,65dcba49fe55e98487e20ea7,,,,,,,,,,,568.5968,1.5,570.097,570.097,570.9144,left,1,0.8141,,570.9145,571.9134,5,6,46,3,1,total,1,images/Ex6.jpg,left,training,easy,3,,,,,
,,,,,5ce9b0e4be5a6b00163f6870,001,57,male,United Kingdom,Bachelor ,2024-02-26_16h22.07.397,CRL1e,2023.2.3,MacIntel,59.88023952,65dbad3905fde4fe1981dc61,65dcba49fe55e98487e20ea7,,,,,,,,,,,571.9136,0.6,572.5138,572.5138,573.5986,right,1,1.0809,,573.5987,574.5985,5,7,47,6,1,total,1,images/Ex8.jpg,right,training,easy,3,,,,,
,,,,,5ce9b0e4be5a6b00163f6870,001,57,male,United Kingdom,Bachelor ,2024-02-26_16h22.07.397,CRL1e,2023.2.3,MacIntel,59.88023952,65dbad3905fde4fe1981dc61,65dcba49fe55e98487e20ea7,,,,,,,,,,,574.6,1.2,575.7988,575.7988,576.6159,left,1,0.8124,,576.6159,577.6161,0,0,0,4,1,total,2,images/Ex7.jpg,left,reversed,easy,3,,,,,
,,,,,5ce9b0e4be5a6b00163f6870,001,57,male,United Kingdom,Bachelor ,2024-02-26_16h22.07.397,CRL1e,2023.2.3,MacIntel,59.88023952,65dbad3905fde4fe1981dc61,65dcba49fe55e98487e20ea7,,,,,,,,,,,577.6164,0.6,578.2159,578.2159,579.0333,left,0,0.8142,,579.0333,580.0334,0,1,1,2,1,total,2,images/Ex6.jpg,right,reversed,easy,3,,,,,
,,,,,5ce9b0e4be5a6b00163f6870,001,57,male,United Kingdom,Bachelor ,2024-02-26_16h22.07.397,CRL1e,2023.2.3,MacIntel,59.88023952,65dbad3905fde4fe1981dc61,65dcba49fe55e98487e20ea7,,,,,,,,,,,580.0337,0.8,580.8336,580.8336,581.7667,right,0,0.9293,,581.7667,582.7676,0,2,2,7,1,total,2,images/Ex8.jpg,left,reversed,easy,3,,,,,
,,,,,5ce9b0e4be5a6b00163f6870,001,57,male,United Kingdom,Bachelor ,2024-02-26_16h22.07.397,CRL1e,2023.2.3,MacIntel,59.88023952,65dbad3905fde4fe1981dc61,65dcba49fe55e98487e20ea7,,,,,,,,,,,582.7678,0.8,583.5678,583.5678,584.4518,left,0,0.8798,,584.4518,585.4509,0,3,3,0,1,total,2,images/Ex5.jpg,right,reversed,easy,3,,,,,
,,,,,5ce9b0e4be5a6b00163f6870,001,57,male,United Kingdom,Bachelor ,2024-02-26_16h22.07.397,CRL1e,2023.2.3,MacIntel,59.88023952,65dbad3905fde4fe1981dc61,65dcba49fe55e98487e20ea7,,,,,,,,,,,585.4513,0.8,586.2521,586.2521,587.0861,right,1,0.8302,,587.0861,588.0848,0,4,4,1,1,total,2,images/Ex5.jpg,right,reversed,easy,3,,,,,
,,,,,5ce9b0e4be5a6b00163f6870,001,57,male,United Kingdom,Bachelor ,2024-02-26_16h22.07.397,CRL1e,2023.2.3,MacIntel,59.88023952,65dbad3905fde4fe1981dc61,65dcba49fe55e98487e20ea7,,,,,,,,,,,588.0851,1.5,589.5864,589.5864,590.4204,left,0,0.8304,,590.4204,591.4203,0,5,5,3,1,total,2,images/Ex6.jpg,right,reversed,easy,3,,,,,
,,,,,5ce9b0e4be5a6b00163f6870,001,57,male,United Kingdom,Bachelor ,2024-02-26_16h22.07.397,CRL1e,2023.2.3,MacIntel,59.88023952,65dbad3905fde4fe1981dc61,65dcba49fe55e98487e20ea7,,,,,,,,,,,591.4204,1.4,592.8207,592.8207,593.737,right,0,0.9141,,593.737,594.7379,0,6,6,5,1,total,2,images/Ex7.jpg,left,reversed,easy,3,,,,,
,,,,,5ce9b0e4be5a6b00163f6870,001,57,male,United Kingdom,Bachelor ,2024-02-26_16h22.07.397,CRL1e,2023.2.3,MacIntel,59.88023952,65dbad3905fde4fe1981dc61,65dcba49fe55e98487e20ea7,,,,,,,,,,,594.7382,1.1,595.8383,595.8383,596.7216,left,1,0.8794,,596.7217,597.7222,0,7,7,6,1,total,2,images/Ex8.jpg,left,reversed,easy,3,,,,,
,,,,,5ce9b0e4be5a6b00163f6870,001,57,male,United Kingdom,Bachelor ,2024-02-26_16h22.07.397,CRL1e,2023.2.3,MacIntel,59.88023952,65dbad3905fde4fe1981dc61,65dcba49fe55e98487e20ea7,,,,,,,,,,,597.7225,0.7,598.4224,598.4224,599.8566,right,0,1.4304,,599.8567,600.8564,1,0,8,4,1,total,2,images/Ex7.jpg,left,reversed,easy,3,,,,,
,,,,,5ce9b0e4be5a6b00163f6870,001,57,male,United Kingdom,Bachelor ,2024-02-26_16h22.07.397,CRL1e,2023.2.3,MacIntel,59.88023952,65dbad3905fde4fe1981dc61,65dcba49fe55e98487e20ea7,,,,,,,,,,,600.8568,0.5,601.3566,601.3566,602.2904,left,0,0.9299,,602.2904,603.2895,1,1,9,0,1,total,2,images/Ex5.jpg,right,reversed,easy,3,,,,,
,,,,,5ce9b0e4be5a6b00163f6870,001,57,male,United Kingdom,Bachelor ,2024-02-26_16h22.07.397,CRL1e,2023.2.3,MacIntel,59.88023952,65dbad3905fde4fe1981dc61,65dcba49fe55e98487e20ea7,,,,,,,,,,,603.2898,0.7,603.9908,603.9908,604.857,right,0,0.8633,,604.857,605.858,1,2,10,6,1,total,2,images/Ex8.jpg,left,reversed,easy,3,,,,,
,,,,,5ce9b0e4be5a6b00163f6870,001,57,male,United Kingdom,Bachelor ,2024-02-26_16h22.07.397,CRL1e,2023.2.3,MacIntel,59.88023952,65dbad3905fde4fe1981dc61,65dcba49fe55e98487e20ea7,,,,,,,,,,,605.8583,0.6,606.4577,606.4577,607.2585,left,0,0.7974,,607.2586,608.2583,1,3,11,1,1,total,2,images/Ex5.jpg,right,reversed,easy,3,,,,,
,,,,,5ce9b0e4be5a6b00163f6870,001,57,male,United Kingdom,Bachelor ,2024-02-26_16h22.07.397,CRL1e,2023.2.3,MacIntel,59.88023952,65dbad3905fde4fe1981dc61,65dcba49fe55e98487e20ea7,,,,,,,,,,,608.2587,0.8,609.0589,609.0589,609.8593,right,0,0.796,,609.8593,610.8591,1,4,12,5,1,total,2,images/Ex7.jpg,left,reversed,easy,3,,,,,
,,,,,5ce9b0e4be5a6b00163f6870,001,57,male,United Kingdom,Bachelor ,2024-02-26_16h22.07.397,CRL1e,2023.2.3,MacIntel,59.88023952,65dbad3905fde4fe1981dc61,65dcba49fe55e98487e20ea7,,,,,,,,,,,610.8594,1.3,612.1596,612.1596,613.0273,left,0,0.8637,,613.0273,614.0272,1,5,13,3,1,total,2,images/Ex6.jpg,right,reversed,easy,3,,,,,
,,,,,5ce9b0e4be5a6b00163f6870,001,57,male,United Kingdom,Bachelor ,2024-02-26_16h22.07.397,CRL1e,2023.2.3,MacIntel,59.88023952,65dbad3905fde4fe1981dc61,65dcba49fe55e98487e20ea7,,,,,,,,,,,614.0275,1.5,615.5276,615.5277,616.2773,right,1,0.747,,616.2773,617.2782,1,6,14,2,1,total,2,images/Ex6.jpg,right,reversed,easy,3,,,,,
,,,,,5ce9b0e4be5a6b00163f6870,001,57,male,United Kingdom,Bachelor ,2024-02-26_16h22.07.397,CRL1e,2023.2.3,MacIntel,59.88023952,65dbad3905fde4fe1981dc61,65dcba49fe55e98487e20ea7,,,,,,,,,,,617.2784,1.2,618.4786,618.4786,619.1459,right,0,0.6641,,619.1459,620.1457,1,7,15,7,1,total,2,images/Ex8.jpg,left,reversed,easy,3,,,,,
,,,,,5ce9b0e4be5a6b00163f6870,001,57,male,United Kingdom,Bachelor ,2024-02-26_16h22.07.397,CRL1e,2023.2.3,MacIntel,59.88023952,65dbad3905fde4fe1981dc61,65dcba49fe55e98487e20ea7,,,,,,,,,,,620.1461,0.8,620.946,620.946,621.7623,left,1,0.8126,,621.7623,622.7632,2,0,16,5,1,total,2,images/Ex7.jpg,left,reversed,easy,3,,,,,
,,,,,5ce9b0e4be5a6b00163f6870,001,57,male,United Kingdom,Bachelor ,2024-02-26_16h22.07.397,CRL1e,2023.2.3,MacIntel,59.88023952,65dbad3905fde4fe1981dc61,65dcba49fe55e98487e20ea7,,,,,,,,,,,622.7634,1.4,624.1636,624.1636,625.0142,left,0,0.8472,,625.0143,626.0141,2,1,17,0,1,total,2,images/Ex5.jpg,right,reversed,easy,3,,,,,
,,,,,5ce9b0e4be5a6b00163f6870,001,57,male,United Kingdom,Bachelor ,2024-02-26_16h22.07.397,CRL1e,2023.2.3,MacIntel,59.88023952,65dbad3905fde4fe1981dc61,65dcba49fe55e98487e20ea7,,,,,,,,,,,626.0144,1.1,627.114,627.114,627.9976,right,1,0.8817,,627.9977,628.9983,2,2,18,3,1,total,2,images/Ex6.jpg,right,reversed,easy,3,,,,,
,,,,,5ce9b0e4be5a6b00163f6870,001,57,male,United Kingdom,Bachelor ,2024-02-26_16h22.07.397,CRL1e,2023.2.3,MacIntel,59.88023952,65dbad3905fde4fe1981dc61,65dcba49fe55e98487e20ea7,,,,,,,,,,,628.9986,0.6,629.5985,629.5986,630.6488,right,0,1.0474,,630.6488,631.6493,2,3,19,4,1,total,2,images/Ex7.jpg,left,reversed,easy,3,,,,,
,,,,,5ce9b0e4be5a6b00163f6870,001,57,male,United Kingdom,Bachelor ,2024-02-26_16h22.07.397,CRL1e,2023.2.3,MacIntel,59.88023952,65dbad3905fde4fe1981dc61,65dcba49fe55e98487e20ea7,,,,,,,,,,,631.6495,0.9,632.5495,632.5495,633.4336,left,1,0.8809,,633.4336,634.4333,2,4,20,7,1,total,2,images/Ex8.jpg,left,reversed,easy,3,,,,,
,,,,,5ce9b0e4be5a6b00163f6870,001,57,male,United Kingdom,Bachelor ,2024-02-26_16h22.07.397,CRL1e,2023.2.3,MacIntel,59.88023952,65dbad3905fde4fe1981dc61,65dcba49fe55e98487e20ea7,,,,,,,,,,,634.4336,0.6,635.0336,635.0336,635.6505,left,1,0.6131,,635.6506,636.6498,2,5,21,6,1,total,2,images/Ex8.jpg,left,reversed,easy,3,,,,,
,,,,,5ce9b0e4be5a6b00163f6870,001,57,male,United Kingdom,Bachelor ,2024-02-26_16h22.07.397,CRL1e,2023.2.3,MacIntel,59.88023952,65dbad3905fde4fe1981dc61,65dcba49fe55e98487e20ea7,,,,,,,,,,,636.6501,0.7,637.3509,637.3509,638.1514,right,1,0.7964,,638.1514,639.1515,2,6,22,1,1,total,2,images/Ex5.jpg,right,reversed,easy,3,,,,,
,,,,,5ce9b0e4be5a6b00163f6870,001,57,male,United Kingdom,Bachelor ,2024-02-26_16h22.07.397,CRL1e,2023.2.3,MacIntel,59.88023952,65dbad3905fde4fe1981dc61,65dcba49fe55e98487e20ea7,,,,,,,,,,,639.1518,1.2,640.3519,640.3519,641.2692,right,1,0.9137,,641.2693,642.2691,2,7,23,2,1,total,2,images/Ex6.jpg,right,reversed,easy,3,,,,,
,,,,,5ce9b0e4be5a6b00163f6870,001,57,male,United Kingdom,Bachelor ,2024-02-26_16h22.07.397,CRL1e,2023.2.3,MacIntel,59.88023952,65dbad3905fde4fe1981dc61,65dcba49fe55e98487e20ea7,,,,,,,,,,,642.2694,1.3,643.5696,643.5696,644.4702,right,0,0.8965,,644.4703,645.47,3,0,24,6,1,total,2,images/Ex8.jpg,left,reversed,easy,3,,,,,
,,,,,5ce9b0e4be5a6b00163f6870,001,57,male,United Kingdom,Bachelor ,2024-02-26_16h22.07.397,CRL1e,2023.2.3,MacIntel,59.88023952,65dbad3905fde4fe1981dc61,65dcba49fe55e98487e20ea7,,,,,,,,,,,645.4703,1.2,646.6711,646.6711,647.5371,right,1,0.8623,,647.5371,648.5377,3,1,25,0,1,total,2,images/Ex5.jpg,right,reversed,easy,3,,,,,
,,,,,5ce9b0e4be5a6b00163f6870,001,57,male,United Kingdom,Bachelor ,2024-02-26_16h22.07.397,CRL1e,2023.2.3,MacIntel,59.88023952,65dbad3905fde4fe1981dc61,65dcba49fe55e98487e20ea7,,,,,,,,,,,648.5381,1.2,649.7381,649.7381,650.6722,right,0,0.9305,,650.6722,651.6711,3,2,26,5,1,total,2,images/Ex7.jpg,left,reversed,easy,3,,,,,
,,,,,5ce9b0e4be5a6b00163f6870,001,57,male,United Kingdom,Bachelor ,2024-02-26_16h22.07.397,CRL1e,2023.2.3,MacIntel,59.88023952,65dbad3905fde4fe1981dc61,65dcba49fe55e98487e20ea7,,,,,,,,,,,651.6712,0.6,652.2711,652.2711,653.2216,right,1,0.9485,,653.2217,654.2225,3,3,27,1,1,total,2,images/Ex5.jpg,right,reversed,easy,3,,,,,
,,,,,5ce9b0e4be5a6b00163f6870,001,57,male,United Kingdom,Bachelor ,2024-02-26_16h22.07.397,CRL1e,2023.2.3,MacIntel,59.88023952,65dbad3905fde4fe1981dc61,65dcba49fe55e98487e20ea7,,,,,,,,,,,654.2227,1.1,655.3231,655.3231,656.0071,left,1,0.6807,,656.0071,657.007,3,4,28,4,1,total,2,images/Ex7.jpg,left,reversed,easy,3,,,,,
,,,,,5ce9b0e4be5a6b00163f6870,001,57,male,United Kingdom,Bachelor ,2024-02-26_16h22.07.397,CRL1e,2023.2.3,MacIntel,59.88023952,65dbad3905fde4fe1981dc61,65dcba49fe55e98487e20ea7,,,,,,,,,,,657.0072,1.4,658.4074,658.4074,659.3576,right,0,0.9483,,659.3576,660.358,3,5,29,7,1,total,2,images/Ex8.jpg,left,reversed,easy,3,,,,,
,,,,,5ce9b0e4be5a6b00163f6870,001,57,male,United Kingdom,Bachelor ,2024-02-26_16h22.07.397,CRL1e,2023.2.3,MacIntel,59.88023952,65dbad3905fde4fe1981dc61,65dcba49fe55e98487e20ea7,,,,,,,,,,,660.3583,0.7,661.0582,661.0582,661.8253,left,0,0.7638,,661.8253,662.8254,3,6,30,2,1,total,2,images/Ex6.jpg,right,reversed,easy,3,,,,,
,,,,,5ce9b0e4be5a6b00163f6870,001,57,male,United Kingdom,Bachelor ,2024-02-26_16h22.07.397,CRL1e,2023.2.3,MacIntel,59.88023952,65dbad3905fde4fe1981dc61,65dcba49fe55e98487e20ea7,,,,,,,,,,,662.8257,1,663.8257,663.8258,664.5597,right,1,0.7307,,664.5598,665.5595,3,7,31,3,1,total,2,images/Ex6.jpg,right,reversed,easy,3,,,,,
,,,,,5ce9b0e4be5a6b00163f6870,001,57,male,United Kingdom,Bachelor ,2024-02-26_16h22.07.397,CRL1e,2023.2.3,MacIntel,59.88023952,65dbad3905fde4fe1981dc61,65dcba49fe55e98487e20ea7,,,,,,,,,,,665.5598,1.4,666.96,666.9601,667.5932,right,1,0.6294,,667.5932,668.5938,4,0,32,2,1,total,2,images/Ex6.jpg,right,reversed,easy,3,,,,,
,,,,,5ce9b0e4be5a6b00163f6870,001,57,male,United Kingdom,Bachelor ,2024-02-26_16h22.07.397,CRL1e,2023.2.3,MacIntel,59.88023952,65dbad3905fde4fe1981dc61,65dcba49fe55e98487e20ea7,,,,,,,,,,,668.5941,1.2,669.7943,669.7943,670.6449,right,1,0.8472,,670.6449,671.6443,4,1,33,0,1,total,2,images/Ex5.jpg,right,reversed,easy,3,,,,,
,,,,,5ce9b0e4be5a6b00163f6870,001,57,male,United Kingdom,Bachelor ,2024-02-26_16h22.07.397,CRL1e,2023.2.3,MacIntel,59.88023952,65dbad3905fde4fe1981dc61,65dcba49fe55e98487e20ea7,,,,,,,,,,,671.6446,1,672.6451,672.6451,673.6453,right,0,0.9985,,673.6453,674.6448,4,2,34,4,1,total,2,images/Ex7.jpg,left,reversed,easy,3,,,,,
,,,,,5ce9b0e4be5a6b00163f6870,001,57,male,United Kingdom,Bachelor ,2024-02-26_16h22.07.397,CRL1e,2023.2.3,MacIntel,59.88023952,65dbad3905fde4fe1981dc61,65dcba49fe55e98487e20ea7,,,,,,,,,,,674.645,0.5,675.1458,675.1458,676.0628,right,0,0.914,,676.0628,677.0631,4,3,35,6,1,total,2,images/Ex8.jpg,left,reversed,easy,3,,,,,
,,,,,5ce9b0e4be5a6b00163f6870,001,57,male,United Kingdom,Bachelor ,2024-02-26_16h22.07.397,CRL1e,2023.2.3,MacIntel,59.88023952,65dbad3905fde4fe1981dc61,65dcba49fe55e98487e20ea7,,,,,,,,,,,677.0633,1.3,678.3635,678.3635,679.2809,right,0,0.9132,,679.2809,680.2808,4,4,36,5,1,total,2,images/Ex7.jpg,left,reversed,easy,3,,,,,
,,,,,5ce9b0e4be5a6b00163f6870,001,57,male,United Kingdom,Bachelor ,2024-02-26_16h22.07.397,CRL1e,2023.2.3,MacIntel,59.88023952,65dbad3905fde4fe1981dc61,65dcba49fe55e98487e20ea7,,,,,,,,,,,680.281,0.9,681.181,681.1811,682.0809,right,1,0.8973,,682.0809,683.0816,4,5,37,3,1,total,2,images/Ex6.jpg,right,reversed,easy,3,,,,,
,,,,,5ce9b0e4be5a6b00163f6870,001,57,male,United Kingdom,Bachelor ,2024-02-26_16h22.07.397,CRL1e,2023.2.3,MacIntel,59.88023952,65dbad3905fde4fe1981dc61,65dcba49fe55e98487e20ea7,,,,,,,,,,,683.0819,1.3,684.382,684.382,685.2995,right,0,0.914,,685.2995,686.2988,4,6,38,7,1,total,2,images/Ex8.jpg,left,reversed,easy,3,,,,,
,,,,,5ce9b0e4be5a6b00163f6870,001,57,male,United Kingdom,Bachelor ,2024-02-26_16h22.07.397,CRL1e,2023.2.3,MacIntel,59.88023952,65dbad3905fde4fe1981dc61,65dcba49fe55e98487e20ea7,,,,,,,,,,,686.299,0.9,687.1996,687.1996,688.1004,right,1,0.8964,,688.1004,689.0992,4,7,39,1,1,total,2,images/Ex5.jpg,right,reversed,easy,3,,,,,
,,,,,5ce9b0e4be5a6b00163f6870,001,57,male,United Kingdom,Bachelor ,2024-02-26_16h22.07.397,CRL1e,2023.2.3,MacIntel,59.88023952,65dbad3905fde4fe1981dc61,65dcba49fe55e98487e20ea7,,,,,,,,,,,689.0994,1.4,690.5006,690.5006,691.2846,left,1,0.7806,,691.2847,692.2845,5,0,40,4,1,total,2,images/Ex7.jpg,left,reversed,easy,3,,,,,
,,,,,5ce9b0e4be5a6b00163f6870,001,57,male,United Kingdom,Bachelor ,2024-02-26_16h22.07.397,CRL1e,2023.2.3,MacIntel,59.88023952,65dbad3905fde4fe1981dc61,65dcba49fe55e98487e20ea7,,,,,,,,,,,692.2848,0.9,693.1848,693.1848,693.9188,left,1,0.7306,,693.9188,694.9186,5,1,41,6,1,total,2,images/Ex8.jpg,left,reversed,easy,3,,,,,
,,,,,5ce9b0e4be5a6b00163f6870,001,57,male,United Kingdom,Bachelor ,2024-02-26_16h22.07.397,CRL1e,2023.2.3,MacIntel,59.88023952,65dbad3905fde4fe1981dc61,65dcba49fe55e98487e20ea7,,,,,,,,,,,694.9188,1.3,696.219,696.219,696.8863,left,1,0.6638,,696.8863,697.8862,5,2,42,7,1,total,2,images/Ex8.jpg,left,reversed,easy,3,,,,,
,,,,,5ce9b0e4be5a6b00163f6870,001,57,male,United Kingdom,Bachelor ,2024-02-26_16h22.07.397,CRL1e,2023.2.3,MacIntel,59.88023952,65dbad3905fde4fe1981dc61,65dcba49fe55e98487e20ea7,,,,,,,,,,,697.8864,1.5,699.3866,699.3866,700.1373,right,1,0.7471,,700.1373,701.1372,5,3,43,3,1,total,2,images/Ex6.jpg,right,reversed,easy,3,,,,,
,,,,,5ce9b0e4be5a6b00163f6870,001,57,male,United Kingdom,Bachelor ,2024-02-26_16h22.07.397,CRL1e,2023.2.3,MacIntel,59.88023952,65dbad3905fde4fe1981dc61,65dcba49fe55e98487e20ea7,,,,,,,,,,,701.1374,1.3,702.4376,702.4376,703.1382,right,1,0.6973,,703.1382,704.138,5,4,44,2,1,total,2,images/Ex6.jpg,right,reversed,easy,3,,,,,
,,,,,5ce9b0e4be5a6b00163f6870,001,57,male,United Kingdom,Bachelor ,2024-02-26_16h22.07.397,CRL1e,2023.2.3,MacIntel,59.88023952,65dbad3905fde4fe1981dc61,65dcba49fe55e98487e20ea7,,,,,,,,,,,704.1384,0.6,704.7374,704.7375,705.7713,right,1,1.0304,,705.7714,706.7722,5,5,45,0,1,total,2,images/Ex5.jpg,right,reversed,easy,3,,,,,
,,,,,5ce9b0e4be5a6b00163f6870,001,57,male,United Kingdom,Bachelor ,2024-02-26_16h22.07.397,CRL1e,2023.2.3,MacIntel,59.88023952,65dbad3905fde4fe1981dc61,65dcba49fe55e98487e20ea7,,,,,,,,,,,706.7726,1.2,707.9726,707.9726,708.6899,right,1,0.7137,,708.6899,709.6898,5,6,46,1,1,total,2,images/Ex5.jpg,right,reversed,easy,3,,,,,
,,,,,5ce9b0e4be5a6b00163f6870,001,57,male,United Kingdom,Bachelor ,2024-02-26_16h22.07.397,CRL1e,2023.2.3,MacIntel,59.88023952,65dbad3905fde4fe1981dc61,65dcba49fe55e98487e20ea7,,,,,,,,,,,709.6899,1.1,710.7891,710.7891,711.7733,right,0,0.9803,,711.7733,712.774,5,7,47,5,1,total,2,images/Ex7.jpg,left,reversed,easy,3,,,,,
,,,,,5ce9b0e4be5a6b00163f6870,001,57,male,United Kingdom,Bachelor ,2024-02-26_16h22.07.397,CRL1e,2023.2.3,MacIntel,59.88023952,65dbad3905fde4fe1981dc61,65dcba49fe55e98487e20ea7,,,,,,,,,,,,,,,,,,,,,,,,,,,,,,,,,,712.7743,736.3817,space,23.5767,