infCons.started,infCons.stopped,resp_consent.keys,resp_consent.rt,resp_consent.duration,participant,session,Age?,Gender?,Nationality?,Highest Educational Degree?,date,expName,psychopyVersion,OS,frameRate,STUDY_ID,SESSION_ID,instructions.started,instructions.stopped,resp_instructions.keys,resp_instructions.rt,resp_instructions.duration,nextTask.started,nextTask.stopped,ready_task.keys,ready_task.rt,ready_task.duration,fixation.started,ITI,fixation.stopped,stim.started,stim.stopped,response.keys,response.corr,response.rt,response.duration,feedback.started,feedback.stopped,trials.thisRepN,trials.thisTrialN,trials.thisN,trials.thisIndex,trials.ran,task,phase,Exemplars,r_correct,condition,difficulty,set,end.started,end.stopped,resp_end.keys,resp_end.rt,resp_end.duration
0.0004,6.3623,space,6.2657,,5d8cef3c28e183001a335ab0,001,36,f,UK,Bsc degree,2024-02-26_20h44.38.725,CRL1e,2023.2.3,Win32,59.52380952,65dbad3905fde4fe1981dc61,65dcf7e1b170f780eb0bd465,,,,,,,,,,,,,,,,,,,,,,,,,,,,,,,,,,,,,,
,,,,,5d8cef3c28e183001a335ab0,001,36,f,UK,Bsc degree,2024-02-26_20h44.38.725,CRL1e,2023.2.3,Win32,59.52380952,65dbad3905fde4fe1981dc61,65dcf7e1b170f780eb0bd465,6.3626,32.3777,space,25.9841,,,,,,,,,,,,,,,,,,,,,,,,,,,,,,,,,,
,,,,,5d8cef3c28e183001a335ab0,001,36,f,UK,Bsc degree,2024-02-26_20h44.38.725,CRL1e,2023.2.3,Win32,59.52380952,65dbad3905fde4fe1981dc61,65dcf7e1b170f780eb0bd465,,,,,,32.3989,34.6077,space,2.1882,,34.6173,1.2,35.8219,35.8221,36.9076,left,0,1.0744,,36.9079,37.9068,0,0,0,5,1,partial,1,images/Ex11.jpg,right,training,easy,8,,,,,
,,,,,5d8cef3c28e183001a335ab0,001,36,f,UK,Bsc degree,2024-02-26_20h44.38.725,CRL1e,2023.2.3,Win32,59.52380952,65dbad3905fde4fe1981dc61,65dcf7e1b170f780eb0bd465,,,,,,,,,,,37.9086,0.6,38.5065,38.5068,39.0085,right,1,0.4991,,39.0087,40.0038,0,1,1,4,1,partial,1,images/Ex11.jpg,right,training,easy,8,,,,,
,,,,,5d8cef3c28e183001a335ab0,001,36,f,UK,Bsc degree,2024-02-26_20h44.38.725,CRL1e,2023.2.3,Win32,59.52380952,65dbad3905fde4fe1981dc61,65dcf7e1b170f780eb0bd465,,,,,,,,,,,40.0048,0.7,40.704,40.7041,41.4258,left,1,0.7193,,41.426,42.4218,0,2,2,2,1,partial,1,images/Ex10.jpg,left,training,easy,8,,,,,
,,,,,5d8cef3c28e183001a335ab0,001,36,f,UK,Bsc degree,2024-02-26_20h44.38.725,CRL1e,2023.2.3,Win32,59.52380952,65dbad3905fde4fe1981dc61,65dcf7e1b170f780eb0bd465,,,,,,,,,,,42.4225,0.9,43.3235,43.3235,44.0097,left,0,0.6845,,44.0098,45.0041,0,3,3,6,1,partial,1,images/Ex12.jpg,right,training,easy,8,,,,,
,,,,,5d8cef3c28e183001a335ab0,001,36,f,UK,Bsc degree,2024-02-26_20h44.38.725,CRL1e,2023.2.3,Win32,59.52380952,65dbad3905fde4fe1981dc61,65dcf7e1b170f780eb0bd465,,,,,,,,,,,45.0046,1.1,46.1041,46.1041,46.898,right,0,0.7925,,46.8981,47.8879,0,4,4,0,1,partial,1,images/Ex9.jpg,left,training,easy,8,,,,,
,,,,,5d8cef3c28e183001a335ab0,001,36,f,UK,Bsc degree,2024-02-26_20h44.38.725,CRL1e,2023.2.3,Win32,59.52380952,65dbad3905fde4fe1981dc61,65dcf7e1b170f780eb0bd465,,,,,,,,,,,47.8885,0.6,48.4875,48.4876,49.3234,left,1,0.8334,,49.3235,50.3232,0,5,5,3,1,partial,1,images/Ex10.jpg,left,training,easy,8,,,,,
,,,,,5d8cef3c28e183001a335ab0,001,36,f,UK,Bsc degree,2024-02-26_20h44.38.725,CRL1e,2023.2.3,Win32,59.52380952,65dbad3905fde4fe1981dc61,65dcf7e1b170f780eb0bd465,,,,,,,,,,,50.3239,1.1,51.4232,51.4233,51.878,right,1,0.4531,,51.8782,52.8697,0,6,6,7,1,partial,1,images/Ex12.jpg,right,training,easy,8,,,,,
,,,,,5d8cef3c28e183001a335ab0,001,36,f,UK,Bsc degree,2024-02-26_20h44.38.725,CRL1e,2023.2.3,Win32,59.52380952,65dbad3905fde4fe1981dc61,65dcf7e1b170f780eb0bd465,,,,,,,,,,,52.8712,0.5,53.3693,53.3695,54.4963,left,1,1.1244,,54.4963,55.4863,0,7,7,1,1,partial,1,images/Ex9.jpg,left,training,easy,8,,,,,
,,,,,5d8cef3c28e183001a335ab0,001,36,f,UK,Bsc degree,2024-02-26_20h44.38.725,CRL1e,2023.2.3,Win32,59.52380952,65dbad3905fde4fe1981dc61,65dcf7e1b170f780eb0bd465,,,,,,,,,,,55.4877,0.8,56.2864,56.2865,56.8402,right,1,0.551,,56.8402,57.8362,1,0,8,5,1,partial,1,images/Ex11.jpg,right,training,easy,8,,,,,
,,,,,5d8cef3c28e183001a335ab0,001,36,f,UK,Bsc degree,2024-02-26_20h44.38.725,CRL1e,2023.2.3,Win32,59.52380952,65dbad3905fde4fe1981dc61,65dcf7e1b170f780eb0bd465,,,,,,,,,,,57.8371,0.6,58.4359,58.436,58.9941,right,0,0.5561,,58.9941,59.9893,1,1,9,1,1,partial,1,images/Ex9.jpg,left,training,easy,8,,,,,
,,,,,5d8cef3c28e183001a335ab0,001,36,f,UK,Bsc degree,2024-02-26_20h44.38.725,CRL1e,2023.2.3,Win32,59.52380952,65dbad3905fde4fe1981dc61,65dcf7e1b170f780eb0bd465,,,,,,,,,,,59.9898,1.1,61.0892,61.0892,61.8929,left,1,0.8011,,61.893,62.8895,1,2,10,3,1,partial,1,images/Ex10.jpg,left,training,easy,8,,,,,
,,,,,5d8cef3c28e183001a335ab0,001,36,f,UK,Bsc degree,2024-02-26_20h44.38.725,CRL1e,2023.2.3,Win32,59.52380952,65dbad3905fde4fe1981dc61,65dcf7e1b170f780eb0bd465,,,,,,,,,,,62.8901,0.5,63.3893,63.3894,63.8732,right,0,0.4781,,63.8732,64.8731,1,3,11,0,1,partial,1,images/Ex9.jpg,left,training,easy,8,,,,,
,,,,,5d8cef3c28e183001a335ab0,001,36,f,UK,Bsc degree,2024-02-26_20h44.38.725,CRL1e,2023.2.3,Win32,59.52380952,65dbad3905fde4fe1981dc61,65dcf7e1b170f780eb0bd465,,,,,,,,,,,64.8736,1.3,66.1722,66.1722,67.123,right,1,0.9468,,67.123,68.1223,1,4,12,6,1,partial,1,images/Ex12.jpg,right,training,easy,8,,,,,
,,,,,5d8cef3c28e183001a335ab0,001,36,f,UK,Bsc degree,2024-02-26_20h44.38.725,CRL1e,2023.2.3,Win32,59.52380952,65dbad3905fde4fe1981dc61,65dcf7e1b170f780eb0bd465,,,,,,,,,,,68.1228,1.2,69.3226,69.3227,69.9567,left,1,0.629,,69.9568,70.9558,1,5,13,2,1,partial,1,images/Ex10.jpg,left,training,easy,8,,,,,
,,,,,5d8cef3c28e183001a335ab0,001,36,f,UK,Bsc degree,2024-02-26_20h44.38.725,CRL1e,2023.2.3,Win32,59.52380952,65dbad3905fde4fe1981dc61,65dcf7e1b170f780eb0bd465,,,,,,,,,,,70.9564,0.9,71.8555,71.8556,72.4814,right,1,0.6237,,72.4815,73.4723,1,6,14,4,1,partial,1,images/Ex11.jpg,right,training,easy,8,,,,,
,,,,,5d8cef3c28e183001a335ab0,001,36,f,UK,Bsc degree,2024-02-26_20h44.38.725,CRL1e,2023.2.3,Win32,59.52380952,65dbad3905fde4fe1981dc61,65dcf7e1b170f780eb0bd465,,,,,,,,,,,73.4728,0.6,74.0723,74.0723,74.8397,left,0,0.7626,,74.8397,75.8398,1,7,15,7,1,partial,1,images/Ex12.jpg,right,training,easy,8,,,,,
,,,,,5d8cef3c28e183001a335ab0,001,36,f,UK,Bsc degree,2024-02-26_20h44.38.725,CRL1e,2023.2.3,Win32,59.52380952,65dbad3905fde4fe1981dc61,65dcf7e1b170f780eb0bd465,,,,,,,,,,,75.8409,0.9,76.7394,76.7395,77.5396,left,1,0.7963,,77.5396,78.5389,2,0,16,3,1,partial,1,images/Ex10.jpg,left,training,easy,8,,,,,
,,,,,5d8cef3c28e183001a335ab0,001,36,f,UK,Bsc degree,2024-02-26_20h44.38.725,CRL1e,2023.2.3,Win32,59.52380952,65dbad3905fde4fe1981dc61,65dcf7e1b170f780eb0bd465,,,,,,,,,,,78.5394,1.4,79.9388,79.9388,80.4077,right,1,0.4663,,80.4078,81.4018,2,1,17,4,1,partial,1,images/Ex11.jpg,right,training,easy,8,,,,,
,,,,,5d8cef3c28e183001a335ab0,001,36,f,UK,Bsc degree,2024-02-26_20h44.38.725,CRL1e,2023.2.3,Win32,59.52380952,65dbad3905fde4fe1981dc61,65dcf7e1b170f780eb0bd465,,,,,,,,,,,81.4024,0.9,82.3019,82.302,82.9464,right,0,0.6424,,82.9464,83.9349,2,2,18,2,1,partial,1,images/Ex10.jpg,left,training,easy,8,,,,,
,,,,,5d8cef3c28e183001a335ab0,001,36,f,UK,Bsc degree,2024-02-26_20h44.38.725,CRL1e,2023.2.3,Win32,59.52380952,65dbad3905fde4fe1981dc61,65dcf7e1b170f780eb0bd465,,,,,,,,,,,83.9359,1.3,85.2344,85.2345,86.1599,left,1,0.9234,,86.1599,87.152,2,3,19,0,1,partial,1,images/Ex9.jpg,left,training,easy,8,,,,,
,,,,,5d8cef3c28e183001a335ab0,001,36,f,UK,Bsc degree,2024-02-26_20h44.38.725,CRL1e,2023.2.3,Win32,59.52380952,65dbad3905fde4fe1981dc61,65dcf7e1b170f780eb0bd465,,,,,,,,,,,87.153,0.6,87.7518,87.7519,88.4099,left,0,0.6564,,88.41,89.4023,2,4,20,6,1,partial,1,images/Ex12.jpg,right,training,easy,8,,,,,
,,,,,5d8cef3c28e183001a335ab0,001,36,f,UK,Bsc degree,2024-02-26_20h44.38.725,CRL1e,2023.2.3,Win32,59.52380952,65dbad3905fde4fe1981dc61,65dcf7e1b170f780eb0bd465,,,,,,,,,,,89.4028,0.9,90.3046,90.3047,91.1565,right,1,0.8507,,91.1565,92.1545,2,5,21,7,1,partial,1,images/Ex12.jpg,right,training,easy,8,,,,,
,,,,,5d8cef3c28e183001a335ab0,001,36,f,UK,Bsc degree,2024-02-26_20h44.38.725,CRL1e,2023.2.3,Win32,59.52380952,65dbad3905fde4fe1981dc61,65dcf7e1b170f780eb0bd465,,,,,,,,,,,92.155,0.8,92.9546,92.9547,93.4891,right,0,0.5317,,93.4891,94.4883,2,6,22,1,1,partial,1,images/Ex9.jpg,left,training,easy,8,,,,,
,,,,,5d8cef3c28e183001a335ab0,001,36,f,UK,Bsc degree,2024-02-26_20h44.38.725,CRL1e,2023.2.3,Win32,59.52380952,65dbad3905fde4fe1981dc61,65dcf7e1b170f780eb0bd465,,,,,,,,,,,94.4888,0.9,95.3877,95.3878,95.8048,right,1,0.4123,,95.8049,96.8043,2,7,23,5,1,partial,1,images/Ex11.jpg,right,training,easy,8,,,,,
,,,,,5d8cef3c28e183001a335ab0,001,36,f,UK,Bsc degree,2024-02-26_20h44.38.725,CRL1e,2023.2.3,Win32,59.52380952,65dbad3905fde4fe1981dc61,65dcf7e1b170f780eb0bd465,,,,,,,,,,,96.8047,0.8,97.6042,97.6042,98.0224,left,1,0.4127,,98.0225,99.0211,3,0,24,0,1,partial,1,images/Ex9.jpg,left,training,easy,8,,,,,
,,,,,5d8cef3c28e183001a335ab0,001,36,f,UK,Bsc degree,2024-02-26_20h44.38.725,CRL1e,2023.2.3,Win32,59.52380952,65dbad3905fde4fe1981dc61,65dcf7e1b170f780eb0bd465,,,,,,,,,,,99.0219,0.6,99.6216,99.6216,100.3055,left,0,0.6824,,100.3056,101.3042,3,1,25,7,1,partial,1,images/Ex12.jpg,right,training,easy,8,,,,,
,,,,,5d8cef3c28e183001a335ab0,001,36,f,UK,Bsc degree,2024-02-26_20h44.38.725,CRL1e,2023.2.3,Win32,59.52380952,65dbad3905fde4fe1981dc61,65dcf7e1b170f780eb0bd465,,,,,,,,,,,101.3048,1,102.3038,102.3038,103.0071,right,1,0.7011,,103.0072,104.0039,3,2,26,5,1,partial,1,images/Ex11.jpg,right,training,easy,8,,,,,
,,,,,5d8cef3c28e183001a335ab0,001,36,f,UK,Bsc degree,2024-02-26_20h44.38.725,CRL1e,2023.2.3,Win32,59.52380952,65dbad3905fde4fe1981dc61,65dcf7e1b170f780eb0bd465,,,,,,,,,,,104.0044,0.8,104.8037,104.8037,105.3879,right,1,0.582,,105.388,106.3789,3,3,27,4,1,partial,1,images/Ex11.jpg,right,training,easy,8,,,,,
,,,,,5d8cef3c28e183001a335ab0,001,36,f,UK,Bsc degree,2024-02-26_20h44.38.725,CRL1e,2023.2.3,Win32,59.52380952,65dbad3905fde4fe1981dc61,65dcf7e1b170f780eb0bd465,,,,,,,,,,,106.3795,0.9,107.2712,107.2712,108.1044,left,1,0.83,,108.1044,109.1037,3,4,28,1,1,partial,1,images/Ex9.jpg,left,training,easy,8,,,,,
,,,,,5d8cef3c28e183001a335ab0,001,36,f,UK,Bsc degree,2024-02-26_20h44.38.725,CRL1e,2023.2.3,Win32,59.52380952,65dbad3905fde4fe1981dc61,65dcf7e1b170f780eb0bd465,,,,,,,,,,,109.1042,1,110.1036,110.1037,110.5556,left,1,0.4505,,110.5556,111.5537,3,5,29,2,1,partial,1,images/Ex10.jpg,left,training,easy,8,,,,,
,,,,,5d8cef3c28e183001a335ab0,001,36,f,UK,Bsc degree,2024-02-26_20h44.38.725,CRL1e,2023.2.3,Win32,59.52380952,65dbad3905fde4fe1981dc61,65dcf7e1b170f780eb0bd465,,,,,,,,,,,111.5541,1.1,112.6536,112.6536,113.4557,right,1,0.7999,,113.4558,114.4535,3,6,30,6,1,partial,1,images/Ex12.jpg,right,training,easy,8,,,,,
,,,,,5d8cef3c28e183001a335ab0,001,36,f,UK,Bsc degree,2024-02-26_20h44.38.725,CRL1e,2023.2.3,Win32,59.52380952,65dbad3905fde4fe1981dc61,65dcf7e1b170f780eb0bd465,,,,,,,,,,,114.4539,0.6,115.0534,115.0534,115.6705,left,1,0.6117,,115.6706,116.67,3,7,31,3,1,partial,1,images/Ex10.jpg,left,training,easy,8,,,,,
,,,,,5d8cef3c28e183001a335ab0,001,36,f,UK,Bsc degree,2024-02-26_20h44.38.725,CRL1e,2023.2.3,Win32,59.52380952,65dbad3905fde4fe1981dc61,65dcf7e1b170f780eb0bd465,,,,,,,,,,,116.671,1.4,118.0698,118.0698,118.5549,right,0,0.484,,118.5549,119.5533,4,0,32,2,1,partial,1,images/Ex10.jpg,left,training,easy,8,,,,,
,,,,,5d8cef3c28e183001a335ab0,001,36,f,UK,Bsc degree,2024-02-26_20h44.38.725,CRL1e,2023.2.3,Win32,59.52380952,65dbad3905fde4fe1981dc61,65dcf7e1b170f780eb0bd465,,,,,,,,,,,119.5538,1,120.553,120.553,121.2538,left,0,0.6965,,121.2538,122.253,4,1,33,6,1,partial,1,images/Ex12.jpg,right,training,easy,8,,,,,
,,,,,5d8cef3c28e183001a335ab0,001,36,f,UK,Bsc degree,2024-02-26_20h44.38.725,CRL1e,2023.2.3,Win32,59.52380952,65dbad3905fde4fe1981dc61,65dcf7e1b170f780eb0bd465,,,,,,,,,,,122.2535,0.8,123.0531,123.0531,123.954,left,1,0.8964,,123.954,124.953,4,2,34,0,1,partial,1,images/Ex9.jpg,left,training,easy,8,,,,,
,,,,,5d8cef3c28e183001a335ab0,001,36,f,UK,Bsc degree,2024-02-26_20h44.38.725,CRL1e,2023.2.3,Win32,59.52380952,65dbad3905fde4fe1981dc61,65dcf7e1b170f780eb0bd465,,,,,,,,,,,124.9537,0.7,125.653,125.653,126.12,right,1,0.4621,,126.12,127.1196,4,3,35,5,1,partial,1,images/Ex11.jpg,right,training,easy,8,,,,,
,,,,,5d8cef3c28e183001a335ab0,001,36,f,UK,Bsc degree,2024-02-26_20h44.38.725,CRL1e,2023.2.3,Win32,59.52380952,65dbad3905fde4fe1981dc61,65dcf7e1b170f780eb0bd465,,,,,,,,,,,127.1207,0.9,128.0198,128.0198,128.8715,left,0,0.8489,,128.8715,129.8678,4,4,36,7,1,partial,1,images/Ex12.jpg,right,training,easy,8,,,,,
,,,,,5d8cef3c28e183001a335ab0,001,36,f,UK,Bsc degree,2024-02-26_20h44.38.725,CRL1e,2023.2.3,Win32,59.52380952,65dbad3905fde4fe1981dc61,65dcf7e1b170f780eb0bd465,,,,,,,,,,,129.869,1.3,131.1696,131.1697,131.7408,right,1,0.57,,131.7409,132.7328,4,5,37,4,1,partial,1,images/Ex11.jpg,right,training,easy,8,,,,,
,,,,,5d8cef3c28e183001a335ab0,001,36,f,UK,Bsc degree,2024-02-26_20h44.38.725,CRL1e,2023.2.3,Win32,59.52380952,65dbad3905fde4fe1981dc61,65dcf7e1b170f780eb0bd465,,,,,,,,,,,132.7337,0.6,133.3326,133.3327,134.158,left,1,0.8224,,134.158,135.1516,4,6,38,3,1,partial,1,images/Ex10.jpg,left,training,easy,8,,,,,
,,,,,5d8cef3c28e183001a335ab0,001,36,f,UK,Bsc degree,2024-02-26_20h44.38.725,CRL1e,2023.2.3,Win32,59.52380952,65dbad3905fde4fe1981dc61,65dcf7e1b170f780eb0bd465,,,,,,,,,,,135.1527,1.2,136.3519,136.352,136.9544,left,1,0.6003,,136.9544,137.9487,4,7,39,1,1,partial,1,images/Ex9.jpg,left,training,easy,8,,,,,
,,,,,5d8cef3c28e183001a335ab0,001,36,f,UK,Bsc degree,2024-02-26_20h44.38.725,CRL1e,2023.2.3,Win32,59.52380952,65dbad3905fde4fe1981dc61,65dcf7e1b170f780eb0bd465,,,,,,,,,,,137.9495,0.5,138.4491,138.4491,139.1691,right,1,0.7171,,139.1692,140.1695,5,0,40,5,1,partial,1,images/Ex11.jpg,right,training,easy,8,,,,,
,,,,,5d8cef3c28e183001a335ab0,001,36,f,UK,Bsc degree,2024-02-26_20h44.38.725,CRL1e,2023.2.3,Win32,59.52380952,65dbad3905fde4fe1981dc61,65dcf7e1b170f780eb0bd465,,,,,,,,,,,140.1705,1.2,141.3693,141.3693,142.1036,left,1,0.7291,,142.1037,143.1024,5,1,41,0,1,partial,1,images/Ex9.jpg,left,training,easy,8,,,,,
,,,,,5d8cef3c28e183001a335ab0,001,36,f,UK,Bsc degree,2024-02-26_20h44.38.725,CRL1e,2023.2.3,Win32,59.52380952,65dbad3905fde4fe1981dc61,65dcf7e1b170f780eb0bd465,,,,,,,,,,,143.1031,1.3,144.4026,144.4026,145.0689,left,0,0.6635,,145.069,146.0688,5,2,42,6,1,partial,1,images/Ex12.jpg,right,training,easy,8,,,,,
,,,,,5d8cef3c28e183001a335ab0,001,36,f,UK,Bsc degree,2024-02-26_20h44.38.725,CRL1e,2023.2.3,Win32,59.52380952,65dbad3905fde4fe1981dc61,65dcf7e1b170f780eb0bd465,,,,,,,,,,,146.0695,0.9,146.966,146.966,147.439,right,0,0.4706,,147.439,148.4352,5,3,43,1,1,partial,1,images/Ex9.jpg,left,training,easy,8,,,,,
,,,,,5d8cef3c28e183001a335ab0,001,36,f,UK,Bsc degree,2024-02-26_20h44.38.725,CRL1e,2023.2.3,Win32,59.52380952,65dbad3905fde4fe1981dc61,65dcf7e1b170f780eb0bd465,,,,,,,,,,,148.4358,0.8,149.2352,149.2352,149.6853,right,1,0.4458,,149.6854,150.6852,5,4,44,4,1,partial,1,images/Ex11.jpg,right,training,easy,8,,,,,
,,,,,5d8cef3c28e183001a335ab0,001,36,f,UK,Bsc degree,2024-02-26_20h44.38.725,CRL1e,2023.2.3,Win32,59.52380952,65dbad3905fde4fe1981dc61,65dcf7e1b170f780eb0bd465,,,,,,,,,,,150.6857,1.2,151.885,151.885,152.6543,left,1,0.7678,,152.6543,153.6485,5,5,45,2,1,partial,1,images/Ex10.jpg,left,training,easy,8,,,,,
,,,,,5d8cef3c28e183001a335ab0,001,36,f,UK,Bsc degree,2024-02-26_20h44.38.725,CRL1e,2023.2.3,Win32,59.52380952,65dbad3905fde4fe1981dc61,65dcf7e1b170f780eb0bd465,,,,,,,,,,,153.6494,1.5,155.1486,155.1487,155.6872,left,1,0.5376,,155.6873,156.6824,5,6,46,3,1,partial,1,images/Ex10.jpg,left,training,easy,8,,,,,
,,,,,5d8cef3c28e183001a335ab0,001,36,f,UK,Bsc degree,2024-02-26_20h44.38.725,CRL1e,2023.2.3,Win32,59.52380952,65dbad3905fde4fe1981dc61,65dcf7e1b170f780eb0bd465,,,,,,,,,,,156.6828,0.8,157.4819,157.482,158.1363,left,0,0.6524,,158.1364,159.1319,5,7,47,7,1,partial,1,images/Ex12.jpg,right,training,easy,8,,,,,
,,,,,5d8cef3c28e183001a335ab0,001,36,f,UK,Bsc degree,2024-02-26_20h44.38.725,CRL1e,2023.2.3,Win32,59.52380952,65dbad3905fde4fe1981dc61,65dcf7e1b170f780eb0bd465,,,,,,,,,,,159.1369,1.1,160.2321,160.2321,160.839,left,1,0.6049,,160.839,161.8326,0,0,0,2,1,partial,2,images/Ex10.jpg,left,nonreversed,easy,8,,,,,
,,,,,5d8cef3c28e183001a335ab0,001,36,f,UK,Bsc degree,2024-02-26_20h44.38.725,CRL1e,2023.2.3,Win32,59.52380952,65dbad3905fde4fe1981dc61,65dcf7e1b170f780eb0bd465,,,,,,,,,,,161.8335,0.7,162.5319,162.5319,163.1029,left,0,0.5696,,163.1029,164.098,0,1,1,1,1,partial,2,images/Ex9.jpg,right,reversed,easy,8,,,,,
,,,,,5d8cef3c28e183001a335ab0,001,36,f,UK,Bsc degree,2024-02-26_20h44.38.725,CRL1e,2023.2.3,Win32,59.52380952,65dbad3905fde4fe1981dc61,65dcf7e1b170f780eb0bd465,,,,,,,,,,,164.0989,1.4,165.4978,165.4978,166.3613,right,1,0.8607,,166.3614,167.3651,0,2,2,7,1,partial,2,images/Ex12.jpg,right,nonreversed,easy,8,,,,,
,,,,,5d8cef3c28e183001a335ab0,001,36,f,UK,Bsc degree,2024-02-26_20h44.38.725,CRL1e,2023.2.3,Win32,59.52380952,65dbad3905fde4fe1981dc61,65dcf7e1b170f780eb0bd465,,,,,,,,,,,167.3656,0.9,168.2643,168.2644,169.137,right,1,0.8708,,169.137,170.1321,0,3,3,6,1,partial,2,images/Ex12.jpg,right,nonreversed,easy,8,,,,,
,,,,,5d8cef3c28e183001a335ab0,001,36,f,UK,Bsc degree,2024-02-26_20h44.38.725,CRL1e,2023.2.3,Win32,59.52380952,65dbad3905fde4fe1981dc61,65dcf7e1b170f780eb0bd465,,,,,,,,,,,170.1325,0.8,170.9314,170.9315,171.5894,left,1,0.6558,,171.5894,172.584,0,4,4,3,1,partial,2,images/Ex10.jpg,left,nonreversed,easy,8,,,,,
,,,,,5d8cef3c28e183001a335ab0,001,36,f,UK,Bsc degree,2024-02-26_20h44.38.725,CRL1e,2023.2.3,Win32,59.52380952,65dbad3905fde4fe1981dc61,65dcf7e1b170f780eb0bd465,,,,,,,,,,,172.5845,0.6,173.184,173.1841,173.6398,right,0,0.4542,,173.6398,174.6318,0,5,5,5,1,partial,2,images/Ex11.jpg,left,reversed,easy,8,,,,,
,,,,,5d8cef3c28e183001a335ab0,001,36,f,UK,Bsc degree,2024-02-26_20h44.38.725,CRL1e,2023.2.3,Win32,59.52380952,65dbad3905fde4fe1981dc61,65dcf7e1b170f780eb0bd465,,,,,,,,,,,174.6324,1.1,175.7331,175.7332,176.2212,right,0,0.485,,176.2213,177.2139,0,6,6,4,1,partial,2,images/Ex11.jpg,left,reversed,easy,8,,,,,
,,,,,5d8cef3c28e183001a335ab0,001,36,f,UK,Bsc degree,2024-02-26_20h44.38.725,CRL1e,2023.2.3,Win32,59.52380952,65dbad3905fde4fe1981dc61,65dcf7e1b170f780eb0bd465,,,,,,,,,,,177.2149,0.6,177.815,177.8151,178.6691,right,1,0.8523,,178.6691,179.6642,0,7,7,0,1,partial,2,images/Ex9.jpg,right,reversed,easy,8,,,,,
,,,,,5d8cef3c28e183001a335ab0,001,36,f,UK,Bsc degree,2024-02-26_20h44.38.725,CRL1e,2023.2.3,Win32,59.52380952,65dbad3905fde4fe1981dc61,65dcf7e1b170f780eb0bd465,,,,,,,,,,,179.665,1.3,180.9636,180.9637,181.4371,left,1,0.4715,,181.438,182.4303,1,0,8,4,1,partial,2,images/Ex11.jpg,left,reversed,easy,8,,,,,
,,,,,5d8cef3c28e183001a335ab0,001,36,f,UK,Bsc degree,2024-02-26_20h44.38.725,CRL1e,2023.2.3,Win32,59.52380952,65dbad3905fde4fe1981dc61,65dcf7e1b170f780eb0bd465,,,,,,,,,,,182.4319,0.7,183.1313,183.1314,183.8725,right,1,0.7377,,183.8725,184.8637,1,1,9,6,1,partial,2,images/Ex12.jpg,right,nonreversed,easy,8,,,,,
,,,,,5d8cef3c28e183001a335ab0,001,36,f,UK,Bsc degree,2024-02-26_20h44.38.725,CRL1e,2023.2.3,Win32,59.52380952,65dbad3905fde4fe1981dc61,65dcf7e1b170f780eb0bd465,,,,,,,,,,,184.8646,1.4,186.265,186.265,186.8896,right,0,0.6224,,186.8897,187.8815,1,2,10,3,1,partial,2,images/Ex10.jpg,left,nonreversed,easy,8,,,,,
,,,,,5d8cef3c28e183001a335ab0,001,36,f,UK,Bsc degree,2024-02-26_20h44.38.725,CRL1e,2023.2.3,Win32,59.52380952,65dbad3905fde4fe1981dc61,65dcf7e1b170f780eb0bd465,,,,,,,,,,,187.8824,1.4,189.2817,189.282,190.0382,left,0,0.754,,190.0384,191.0324,1,3,11,1,1,partial,2,images/Ex9.jpg,right,reversed,easy,8,,,,,
,,,,,5d8cef3c28e183001a335ab0,001,36,f,UK,Bsc degree,2024-02-26_20h44.38.725,CRL1e,2023.2.3,Win32,59.52380952,65dbad3905fde4fe1981dc61,65dcf7e1b170f780eb0bd465,,,,,,,,,,,191.0335,0.8,191.8333,191.8334,192.7833,right,0,0.9466,,192.7833,193.7805,1,4,12,2,1,partial,2,images/Ex10.jpg,left,nonreversed,easy,8,,,,,
,,,,,5d8cef3c28e183001a335ab0,001,36,f,UK,Bsc degree,2024-02-26_20h44.38.725,CRL1e,2023.2.3,Win32,59.52380952,65dbad3905fde4fe1981dc61,65dcf7e1b170f780eb0bd465,,,,,,,,,,,193.7813,0.9,194.6794,194.6794,195.2715,left,0,0.5889,,195.2716,196.2628,1,5,13,0,1,partial,2,images/Ex9.jpg,right,reversed,easy,8,,,,,
,,,,,5d8cef3c28e183001a335ab0,001,36,f,UK,Bsc degree,2024-02-26_20h44.38.725,CRL1e,2023.2.3,Win32,59.52380952,65dbad3905fde4fe1981dc61,65dcf7e1b170f780eb0bd465,,,,,,,,,,,196.2638,0.8,197.0639,197.0639,197.4936,right,0,0.4284,,197.4937,198.4978,1,6,14,5,1,partial,2,images/Ex11.jpg,left,reversed,easy,8,,,,,
,,,,,5d8cef3c28e183001a335ab0,001,36,f,UK,Bsc degree,2024-02-26_20h44.38.725,CRL1e,2023.2.3,Win32,59.52380952,65dbad3905fde4fe1981dc61,65dcf7e1b170f780eb0bd465,,,,,,,,,,,198.4986,1,199.4938,199.4938,200.2195,left,0,0.7241,,200.2195,201.2151,1,7,15,7,1,partial,2,images/Ex12.jpg,right,nonreversed,easy,8,,,,,
,,,,,5d8cef3c28e183001a335ab0,001,36,f,UK,Bsc degree,2024-02-26_20h44.38.725,CRL1e,2023.2.3,Win32,59.52380952,65dbad3905fde4fe1981dc61,65dcf7e1b170f780eb0bd465,,,,,,,,,,,201.2162,1.1,202.3153,202.3154,202.9715,left,1,0.653,,202.9716,203.9627,2,0,16,3,1,partial,2,images/Ex10.jpg,left,nonreversed,easy,8,,,,,
,,,,,5d8cef3c28e183001a335ab0,001,36,f,UK,Bsc degree,2024-02-26_20h44.38.725,CRL1e,2023.2.3,Win32,59.52380952,65dbad3905fde4fe1981dc61,65dcf7e1b170f780eb0bd465,,,,,,,,,,,203.9637,0.5,204.4627,204.4627,205.0162,left,1,0.5516,,205.0162,206.0149,2,1,17,2,1,partial,2,images/Ex10.jpg,left,nonreversed,easy,8,,,,,
,,,,,5d8cef3c28e183001a335ab0,001,36,f,UK,Bsc degree,2024-02-26_20h44.38.725,CRL1e,2023.2.3,Win32,59.52380952,65dbad3905fde4fe1981dc61,65dcf7e1b170f780eb0bd465,,,,,,,,,,,206.0158,0.6,206.6109,206.611,207.3079,right,0,0.6946,,207.308,208.2958,2,2,18,5,1,partial,2,images/Ex11.jpg,left,reversed,easy,8,,,,,
,,,,,5d8cef3c28e183001a335ab0,001,36,f,UK,Bsc degree,2024-02-26_20h44.38.725,CRL1e,2023.2.3,Win32,59.52380952,65dbad3905fde4fe1981dc61,65dcf7e1b170f780eb0bd465,,,,,,,,,,,208.2967,1.5,209.7948,209.7949,210.3846,left,0,0.588,,210.3846,211.3821,2,3,19,6,1,partial,2,images/Ex12.jpg,right,nonreversed,easy,8,,,,,
,,,,,5d8cef3c28e183001a335ab0,001,36,f,UK,Bsc degree,2024-02-26_20h44.38.725,CRL1e,2023.2.3,Win32,59.52380952,65dbad3905fde4fe1981dc61,65dcf7e1b170f780eb0bd465,,,,,,,,,,,211.383,1,212.3783,212.3783,213.3813,right,1,1.001,,213.3814,214.3792,2,4,20,1,1,partial,2,images/Ex9.jpg,right,reversed,easy,8,,,,,
,,,,,5d8cef3c28e183001a335ab0,001,36,f,UK,Bsc degree,2024-02-26_20h44.38.725,CRL1e,2023.2.3,Win32,59.52380952,65dbad3905fde4fe1981dc61,65dcf7e1b170f780eb0bd465,,,,,,,,,,,214.3804,0.5,214.8789,214.8789,215.9547,left,1,1.0742,,215.9548,216.9461,2,5,21,4,1,partial,2,images/Ex11.jpg,left,reversed,easy,8,,,,,
,,,,,5d8cef3c28e183001a335ab0,001,36,f,UK,Bsc degree,2024-02-26_20h44.38.725,CRL1e,2023.2.3,Win32,59.52380952,65dbad3905fde4fe1981dc61,65dcf7e1b170f780eb0bd465,,,,,,,,,,,216.9468,1.3,218.2456,218.2456,219.0516,right,1,0.8028,,219.0516,220.0459,2,6,22,0,1,partial,2,images/Ex9.jpg,right,reversed,easy,8,,,,,
,,,,,5d8cef3c28e183001a335ab0,001,36,f,UK,Bsc degree,2024-02-26_20h44.38.725,CRL1e,2023.2.3,Win32,59.52380952,65dbad3905fde4fe1981dc61,65dcf7e1b170f780eb0bd465,,,,,,,,,,,220.0464,0.6,220.6444,220.6445,221.4544,left,0,0.808,,221.4545,222.4457,2,7,23,7,1,partial,2,images/Ex12.jpg,right,nonreversed,easy,8,,,,,
,,,,,5d8cef3c28e183001a335ab0,001,36,f,UK,Bsc degree,2024-02-26_20h44.38.725,CRL1e,2023.2.3,Win32,59.52380952,65dbad3905fde4fe1981dc61,65dcf7e1b170f780eb0bd465,,,,,,,,,,,222.4462,0.9,223.3488,223.3489,224.0839,right,0,0.7323,,224.084,225.0821,3,0,24,2,1,partial,2,images/Ex10.jpg,left,nonreversed,easy,8,,,,,
,,,,,5d8cef3c28e183001a335ab0,001,36,f,UK,Bsc degree,2024-02-26_20h44.38.725,CRL1e,2023.2.3,Win32,59.52380952,65dbad3905fde4fe1981dc61,65dcf7e1b170f780eb0bd465,,,,,,,,,,,225.0826,1.2,226.2821,226.2821,226.9666,left,1,0.6833,,226.9667,227.9648,3,1,25,3,1,partial,2,images/Ex10.jpg,left,nonreversed,easy,8,,,,,
,,,,,5d8cef3c28e183001a335ab0,001,36,f,UK,Bsc degree,2024-02-26_20h44.38.725,CRL1e,2023.2.3,Win32,59.52380952,65dbad3905fde4fe1981dc61,65dcf7e1b170f780eb0bd465,,,,,,,,,,,227.9653,1.3,229.2647,229.2647,229.9447,right,1,0.6786,,229.9448,230.9437,3,2,26,6,1,partial,2,images/Ex12.jpg,right,nonreversed,easy,8,,,,,
,,,,,5d8cef3c28e183001a335ab0,001,36,f,UK,Bsc degree,2024-02-26_20h44.38.725,CRL1e,2023.2.3,Win32,59.52380952,65dbad3905fde4fe1981dc61,65dcf7e1b170f780eb0bd465,,,,,,,,,,,230.9446,1.5,232.4446,232.4447,232.9751,left,1,0.5282,,232.9751,233.9693,3,3,27,5,1,partial,2,images/Ex11.jpg,left,reversed,easy,8,,,,,
,,,,,5d8cef3c28e183001a335ab0,001,36,f,UK,Bsc degree,2024-02-26_20h44.38.725,CRL1e,2023.2.3,Win32,59.52380952,65dbad3905fde4fe1981dc61,65dcf7e1b170f780eb0bd465,,,,,,,,,,,233.9698,0.9,234.862,234.862,235.7201,right,1,0.8563,,235.7201,236.7116,3,4,28,0,1,partial,2,images/Ex9.jpg,right,reversed,easy,8,,,,,
,,,,,5d8cef3c28e183001a335ab0,001,36,f,UK,Bsc degree,2024-02-26_20h44.38.725,CRL1e,2023.2.3,Win32,59.52380952,65dbad3905fde4fe1981dc61,65dcf7e1b170f780eb0bd465,,,,,,,,,,,236.7123,1.2,237.9143,237.9144,238.8503,left,0,0.935,,238.8503,239.8478,3,5,29,1,1,partial,2,images/Ex9.jpg,right,reversed,easy,8,,,,,
,,,,,5d8cef3c28e183001a335ab0,001,36,f,UK,Bsc degree,2024-02-26_20h44.38.725,CRL1e,2023.2.3,Win32,59.52380952,65dbad3905fde4fe1981dc61,65dcf7e1b170f780eb0bd465,,,,,,,,,,,239.8483,0.7,240.5476,240.5476,241.1819,right,1,0.6285,,241.182,242.1808,3,6,30,7,1,partial,2,images/Ex12.jpg,right,nonreversed,easy,8,,,,,
,,,,,5d8cef3c28e183001a335ab0,001,36,f,UK,Bsc degree,2024-02-26_20h44.38.725,CRL1e,2023.2.3,Win32,59.52380952,65dbad3905fde4fe1981dc61,65dcf7e1b170f780eb0bd465,,,,,,,,,,,242.1817,1,243.181,243.181,243.6821,left,1,0.4953,,243.6822,244.6818,3,7,31,4,1,partial,2,images/Ex11.jpg,left,reversed,easy,8,,,,,
,,,,,5d8cef3c28e183001a335ab0,001,36,f,UK,Bsc degree,2024-02-26_20h44.38.725,CRL1e,2023.2.3,Win32,59.52380952,65dbad3905fde4fe1981dc61,65dcf7e1b170f780eb0bd465,,,,,,,,,,,244.6824,0.9,245.5814,245.5814,246.1979,right,1,0.6114,,246.1979,247.1967,4,0,32,7,1,partial,2,images/Ex12.jpg,right,nonreversed,easy,8,,,,,
,,,,,5d8cef3c28e183001a335ab0,001,36,f,UK,Bsc degree,2024-02-26_20h44.38.725,CRL1e,2023.2.3,Win32,59.52380952,65dbad3905fde4fe1981dc61,65dcf7e1b170f780eb0bd465,,,,,,,,,,,247.1983,1.4,248.5936,248.5937,249.2488,left,1,0.6522,,249.2489,250.2472,4,1,33,5,1,partial,2,images/Ex11.jpg,left,reversed,easy,8,,,,,
,,,,,5d8cef3c28e183001a335ab0,001,36,f,UK,Bsc degree,2024-02-26_20h44.38.725,CRL1e,2023.2.3,Win32,59.52380952,65dbad3905fde4fe1981dc61,65dcf7e1b170f780eb0bd465,,,,,,,,,,,250.2479,1.4,251.6472,251.6473,252.3664,right,1,0.7173,,252.3664,253.3637,4,2,34,1,1,partial,2,images/Ex9.jpg,right,reversed,easy,8,,,,,
,,,,,5d8cef3c28e183001a335ab0,001,36,f,UK,Bsc degree,2024-02-26_20h44.38.725,CRL1e,2023.2.3,Win32,59.52380952,65dbad3905fde4fe1981dc61,65dcf7e1b170f780eb0bd465,,,,,,,,,,,253.3642,0.6,253.9633,253.9634,254.8318,left,1,0.8672,,254.8319,255.8303,4,3,35,3,1,partial,2,images/Ex10.jpg,left,nonreversed,easy,8,,,,,
,,,,,5d8cef3c28e183001a335ab0,001,36,f,UK,Bsc degree,2024-02-26_20h44.38.725,CRL1e,2023.2.3,Win32,59.52380952,65dbad3905fde4fe1981dc61,65dcf7e1b170f780eb0bd465,,,,,,,,,,,255.831,0.9,256.7301,256.7302,257.5327,left,0,0.8007,,257.5329,258.5278,4,4,36,0,1,partial,2,images/Ex9.jpg,right,reversed,easy,8,,,,,
,,,,,5d8cef3c28e183001a335ab0,001,36,f,UK,Bsc degree,2024-02-26_20h44.38.725,CRL1e,2023.2.3,Win32,59.52380952,65dbad3905fde4fe1981dc61,65dcf7e1b170f780eb0bd465,,,,,,,,,,,258.5283,1.3,259.8265,259.8265,260.3809,left,1,0.5525,,260.3809,261.3793,4,5,37,4,1,partial,2,images/Ex11.jpg,left,reversed,easy,8,,,,,
,,,,,5d8cef3c28e183001a335ab0,001,36,f,UK,Bsc degree,2024-02-26_20h44.38.725,CRL1e,2023.2.3,Win32,59.52380952,65dbad3905fde4fe1981dc61,65dcf7e1b170f780eb0bd465,,,,,,,,,,,261.3806,0.9,262.2766,262.2767,263.0157,right,0,0.737,,263.0158,264.0125,4,6,38,2,1,partial,2,images/Ex10.jpg,left,nonreversed,easy,8,,,,,
,,,,,5d8cef3c28e183001a335ab0,001,36,f,UK,Bsc degree,2024-02-26_20h44.38.725,CRL1e,2023.2.3,Win32,59.52380952,65dbad3905fde4fe1981dc61,65dcf7e1b170f780eb0bd465,,,,,,,,,,,264.0136,0.5,264.5123,264.5123,265.1461,right,1,0.6318,,265.1461,266.1458,4,7,39,6,1,partial,2,images/Ex12.jpg,right,nonreversed,easy,8,,,,,
,,,,,5d8cef3c28e183001a335ab0,001,36,f,UK,Bsc degree,2024-02-26_20h44.38.725,CRL1e,2023.2.3,Win32,59.52380952,65dbad3905fde4fe1981dc61,65dcf7e1b170f780eb0bd465,,,,,,,,,,,266.1468,0.7,266.8456,266.8456,267.5133,left,1,0.6656,,267.5134,268.512,5,0,40,2,1,partial,2,images/Ex10.jpg,left,nonreversed,easy,8,,,,,
,,,,,5d8cef3c28e183001a335ab0,001,36,f,UK,Bsc degree,2024-02-26_20h44.38.725,CRL1e,2023.2.3,Win32,59.52380952,65dbad3905fde4fe1981dc61,65dcf7e1b170f780eb0bd465,,,,,,,,,,,268.5129,1.4,269.9121,269.9121,270.5634,right,1,0.6494,,270.5635,271.5593,5,1,41,7,1,partial,2,images/Ex12.jpg,right,nonreversed,easy,8,,,,,
,,,,,5d8cef3c28e183001a335ab0,001,36,f,UK,Bsc degree,2024-02-26_20h44.38.725,CRL1e,2023.2.3,Win32,59.52380952,65dbad3905fde4fe1981dc61,65dcf7e1b170f780eb0bd465,,,,,,,,,,,271.5602,1,272.5598,272.5598,272.9789,left,1,0.4177,,272.979,273.9786,5,2,42,5,1,partial,2,images/Ex11.jpg,left,reversed,easy,8,,,,,
,,,,,5d8cef3c28e183001a335ab0,001,36,f,UK,Bsc degree,2024-02-26_20h44.38.725,CRL1e,2023.2.3,Win32,59.52380952,65dbad3905fde4fe1981dc61,65dcf7e1b170f780eb0bd465,,,,,,,,,,,273.9796,0.7,274.6792,274.6793,275.213,right,0,0.5326,,275.213,276.212,5,3,43,4,1,partial,2,images/Ex11.jpg,left,reversed,easy,8,,,,,
,,,,,5d8cef3c28e183001a335ab0,001,36,f,UK,Bsc degree,2024-02-26_20h44.38.725,CRL1e,2023.2.3,Win32,59.52380952,65dbad3905fde4fe1981dc61,65dcf7e1b170f780eb0bd465,,,,,,,,,,,276.2128,0.8,277.0137,277.0138,277.5959,right,1,0.5774,,277.596,278.5919,5,4,44,1,1,partial,2,images/Ex9.jpg,right,reversed,easy,8,,,,,
,,,,,5d8cef3c28e183001a335ab0,001,36,f,UK,Bsc degree,2024-02-26_20h44.38.725,CRL1e,2023.2.3,Win32,59.52380952,65dbad3905fde4fe1981dc61,65dcf7e1b170f780eb0bd465,,,,,,,,,,,278.5929,0.9,279.4925,279.4925,280.1289,right,1,0.6344,,280.1289,281.1293,5,5,45,6,1,partial,2,images/Ex12.jpg,right,nonreversed,easy,8,,,,,
,,,,,5d8cef3c28e183001a335ab0,001,36,f,UK,Bsc degree,2024-02-26_20h44.38.725,CRL1e,2023.2.3,Win32,59.52380952,65dbad3905fde4fe1981dc61,65dcf7e1b170f780eb0bd465,,,,,,,,,,,281.1298,1.4,282.5302,282.5302,282.9998,left,1,0.4671,,282.9998,283.9924,5,6,46,3,1,partial,2,images/Ex10.jpg,left,nonreversed,easy,8,,,,,
,,,,,5d8cef3c28e183001a335ab0,001,36,f,UK,Bsc degree,2024-02-26_20h44.38.725,CRL1e,2023.2.3,Win32,59.52380952,65dbad3905fde4fe1981dc61,65dcf7e1b170f780eb0bd465,,,,,,,,,,,283.9935,0.9,284.8814,284.8815,285.492,right,1,0.6084,,285.4921,286.482,5,7,47,0,1,partial,2,images/Ex9.jpg,right,reversed,easy,8,,,,,
,,,,,5d8cef3c28e183001a335ab0,001,36,f,UK,Bsc degree,2024-02-26_20h44.38.725,CRL1e,2023.2.3,Win32,59.52380952,65dbad3905fde4fe1981dc61,65dcf7e1b170f780eb0bd465,,,,,,286.4831,289.1135,space,2.6172,,289.1198,1.3,290.4116,290.4117,291.0443,left,1,0.6303,,291.0446,292.0443,0,0,0,2,1,total,1,images/Ex14.jpg,left,training,easy,8,,,,,
,,,,,5d8cef3c28e183001a335ab0,001,36,f,UK,Bsc degree,2024-02-26_20h44.38.725,CRL1e,2023.2.3,Win32,59.52380952,65dbad3905fde4fe1981dc61,65dcf7e1b170f780eb0bd465,,,,,,,,,,,292.0452,0.6,292.6428,292.6429,293.0804,left,1,0.4364,,293.0804,294.0751,0,1,1,3,1,total,1,images/Ex14.jpg,left,training,easy,8,,,,,
,,,,,5d8cef3c28e183001a335ab0,001,36,f,UK,Bsc degree,2024-02-26_20h44.38.725,CRL1e,2023.2.3,Win32,59.52380952,65dbad3905fde4fe1981dc61,65dcf7e1b170f780eb0bd465,,,,,,,,,,,294.076,0.8,294.8755,294.8756,295.2808,right,1,0.4038,,295.2808,296.2777,0,2,2,4,1,total,1,images/Ex15.jpg,right,training,easy,8,,,,,
,,,,,5d8cef3c28e183001a335ab0,001,36,f,UK,Bsc degree,2024-02-26_20h44.38.725,CRL1e,2023.2.3,Win32,59.52380952,65dbad3905fde4fe1981dc61,65dcf7e1b170f780eb0bd465,,,,,,,,,,,296.2781,0.5,296.7786,296.7787,297.382,right,0,0.6006,,297.382,298.3754,0,3,3,0,1,total,1,images/Ex13.jpg,left,training,easy,8,,,,,
,,,,,5d8cef3c28e183001a335ab0,001,36,f,UK,Bsc degree,2024-02-26_20h44.38.725,CRL1e,2023.2.3,Win32,59.52380952,65dbad3905fde4fe1981dc61,65dcf7e1b170f780eb0bd465,,,,,,,,,,,298.3759,1.1,299.4742,299.4743,300.0978,left,0,0.6208,,300.0979,301.0941,0,4,4,6,1,total,1,images/Ex16.jpg,right,training,easy,8,,,,,
,,,,,5d8cef3c28e183001a335ab0,001,36,f,UK,Bsc degree,2024-02-26_20h44.38.725,CRL1e,2023.2.3,Win32,59.52380952,65dbad3905fde4fe1981dc61,65dcf7e1b170f780eb0bd465,,,,,,,,,,,301.0953,1.2,302.2894,302.2895,302.8847,right,0,0.5895,,302.8847,303.8745,0,5,5,1,1,total,1,images/Ex13.jpg,left,training,easy,8,,,,,
,,,,,5d8cef3c28e183001a335ab0,001,36,f,UK,Bsc degree,2024-02-26_20h44.38.725,CRL1e,2023.2.3,Win32,59.52380952,65dbad3905fde4fe1981dc61,65dcf7e1b170f780eb0bd465,,,,,,,,,,,303.8756,0.9,304.7742,304.7743,305.3297,right,1,0.5535,,305.3298,306.3285,0,6,6,7,1,total,1,images/Ex16.jpg,right,training,easy,8,,,,,
,,,,,5d8cef3c28e183001a335ab0,001,36,f,UK,Bsc degree,2024-02-26_20h44.38.725,CRL1e,2023.2.3,Win32,59.52380952,65dbad3905fde4fe1981dc61,65dcf7e1b170f780eb0bd465,,,,,,,,,,,306.3291,1.1,307.4253,307.4253,307.9793,right,1,0.5527,,307.9793,308.9781,0,7,7,5,1,total,1,images/Ex15.jpg,right,training,easy,8,,,,,
,,,,,5d8cef3c28e183001a335ab0,001,36,f,UK,Bsc degree,2024-02-26_20h44.38.725,CRL1e,2023.2.3,Win32,59.52380952,65dbad3905fde4fe1981dc61,65dcf7e1b170f780eb0bd465,,,,,,,,,,,308.9787,1.1,310.078,310.078,310.6792,right,1,0.599,,310.6792,311.6775,1,0,8,7,1,total,1,images/Ex16.jpg,right,training,easy,8,,,,,
,,,,,5d8cef3c28e183001a335ab0,001,36,f,UK,Bsc degree,2024-02-26_20h44.38.725,CRL1e,2023.2.3,Win32,59.52380952,65dbad3905fde4fe1981dc61,65dcf7e1b170f780eb0bd465,,,,,,,,,,,311.6785,1.4,313.0779,313.0779,313.5316,right,1,0.4524,,313.5316,314.5277,1,1,9,6,1,total,1,images/Ex16.jpg,right,training,easy,8,,,,,
,,,,,5d8cef3c28e183001a335ab0,001,36,f,UK,Bsc degree,2024-02-26_20h44.38.725,CRL1e,2023.2.3,Win32,59.52380952,65dbad3905fde4fe1981dc61,65dcf7e1b170f780eb0bd465,,,,,,,,,,,314.5282,1.3,315.8274,315.8274,316.3992,left,1,0.5701,,316.3992,317.3903,1,2,10,2,1,total,1,images/Ex14.jpg,left,training,easy,8,,,,,
,,,,,5d8cef3c28e183001a335ab0,001,36,f,UK,Bsc degree,2024-02-26_20h44.38.725,CRL1e,2023.2.3,Win32,59.52380952,65dbad3905fde4fe1981dc61,65dcf7e1b170f780eb0bd465,,,,,,,,,,,317.3919,1.2,318.593,318.593,319.2282,right,0,0.633,,319.2283,320.2235,1,3,11,1,1,total,1,images/Ex13.jpg,left,training,easy,8,,,,,
,,,,,5d8cef3c28e183001a335ab0,001,36,f,UK,Bsc degree,2024-02-26_20h44.38.725,CRL1e,2023.2.3,Win32,59.52380952,65dbad3905fde4fe1981dc61,65dcf7e1b170f780eb0bd465,,,,,,,,,,,320.2245,0.7,320.9245,320.9245,321.5783,right,0,0.6515,,321.5783,322.5765,1,4,12,0,1,total,1,images/Ex13.jpg,left,training,easy,8,,,,,
,,,,,5d8cef3c28e183001a335ab0,001,36,f,UK,Bsc degree,2024-02-26_20h44.38.725,CRL1e,2023.2.3,Win32,59.52380952,65dbad3905fde4fe1981dc61,65dcf7e1b170f780eb0bd465,,,,,,,,,,,322.5779,0.7,323.2737,323.2739,323.9289,left,0,0.6535,,323.9289,324.9239,1,5,13,5,1,total,1,images/Ex15.jpg,right,training,easy,8,,,,,
,,,,,5d8cef3c28e183001a335ab0,001,36,f,UK,Bsc degree,2024-02-26_20h44.38.725,CRL1e,2023.2.3,Win32,59.52380952,65dbad3905fde4fe1981dc61,65dcf7e1b170f780eb0bd465,,,,,,,,,,,324.9247,1,325.9238,325.9238,326.5506,right,0,0.6242,,326.5508,327.5415,1,6,14,3,1,total,1,images/Ex14.jpg,left,training,easy,8,,,,,
,,,,,5d8cef3c28e183001a335ab0,001,36,f,UK,Bsc degree,2024-02-26_20h44.38.725,CRL1e,2023.2.3,Win32,59.52380952,65dbad3905fde4fe1981dc61,65dcf7e1b170f780eb0bd465,,,,,,,,,,,327.5422,1.4,328.9405,328.9406,329.7135,right,1,0.7713,,329.7135,330.7068,1,7,15,4,1,total,1,images/Ex15.jpg,right,training,easy,8,,,,,
,,,,,5d8cef3c28e183001a335ab0,001,36,f,UK,Bsc degree,2024-02-26_20h44.38.725,CRL1e,2023.2.3,Win32,59.52380952,65dbad3905fde4fe1981dc61,65dcf7e1b170f780eb0bd465,,,,,,,,,,,330.7083,0.7,331.4063,331.4067,332.3119,left,1,0.9031,,332.3119,333.3093,2,0,16,2,1,total,1,images/Ex14.jpg,left,training,easy,8,,,,,
,,,,,5d8cef3c28e183001a335ab0,001,36,f,UK,Bsc degree,2024-02-26_20h44.38.725,CRL1e,2023.2.3,Win32,59.52380952,65dbad3905fde4fe1981dc61,65dcf7e1b170f780eb0bd465,,,,,,,,,,,333.311,1.5,334.8091,334.8092,335.485,right,0,0.6734,,335.485,336.4729,2,1,17,0,1,total,1,images/Ex13.jpg,left,training,easy,8,,,,,
,,,,,5d8cef3c28e183001a335ab0,001,36,f,UK,Bsc degree,2024-02-26_20h44.38.725,CRL1e,2023.2.3,Win32,59.52380952,65dbad3905fde4fe1981dc61,65dcf7e1b170f780eb0bd465,,,,,,,,,,,336.4737,1.2,337.6735,337.6736,338.2695,left,1,0.5945,,338.2695,339.2595,2,2,18,3,1,total,1,images/Ex14.jpg,left,training,easy,8,,,,,
,,,,,5d8cef3c28e183001a335ab0,001,36,f,UK,Bsc degree,2024-02-26_20h44.38.725,CRL1e,2023.2.3,Win32,59.52380952,65dbad3905fde4fe1981dc61,65dcf7e1b170f780eb0bd465,,,,,,,,,,,339.2599,1.4,340.6599,340.66,341.3794,right,1,0.7175,,341.3794,342.3719,2,3,19,5,1,total,1,images/Ex15.jpg,right,training,easy,8,,,,,
,,,,,5d8cef3c28e183001a335ab0,001,36,f,UK,Bsc degree,2024-02-26_20h44.38.725,CRL1e,2023.2.3,Win32,59.52380952,65dbad3905fde4fe1981dc61,65dcf7e1b170f780eb0bd465,,,,,,,,,,,342.3728,0.9,343.2732,343.2732,343.8009,right,1,0.5253,,343.8009,344.7915,2,4,20,7,1,total,1,images/Ex16.jpg,right,training,easy,8,,,,,
,,,,,5d8cef3c28e183001a335ab0,001,36,f,UK,Bsc degree,2024-02-26_20h44.38.725,CRL1e,2023.2.3,Win32,59.52380952,65dbad3905fde4fe1981dc61,65dcf7e1b170f780eb0bd465,,,,,,,,,,,344.7925,1,345.7918,345.7918,346.634,right,0,0.8399,,346.634,347.6218,2,5,21,1,1,total,1,images/Ex13.jpg,left,training,easy,8,,,,,
,,,,,5d8cef3c28e183001a335ab0,001,36,f,UK,Bsc degree,2024-02-26_20h44.38.725,CRL1e,2023.2.3,Win32,59.52380952,65dbad3905fde4fe1981dc61,65dcf7e1b170f780eb0bd465,,,,,,,,,,,347.6226,0.9,348.5258,348.5258,349.0264,right,1,0.4961,,349.0265,350.0255,2,6,22,6,1,total,1,images/Ex16.jpg,right,training,easy,8,,,,,
,,,,,5d8cef3c28e183001a335ab0,001,36,f,UK,Bsc degree,2024-02-26_20h44.38.725,CRL1e,2023.2.3,Win32,59.52380952,65dbad3905fde4fe1981dc61,65dcf7e1b170f780eb0bd465,,,,,,,,,,,350.0259,1.5,351.5256,351.5256,352.2098,right,1,0.6793,,352.2099,353.2093,2,7,23,4,1,total,1,images/Ex15.jpg,right,training,easy,8,,,,,
,,,,,5d8cef3c28e183001a335ab0,001,36,f,UK,Bsc degree,2024-02-26_20h44.38.725,CRL1e,2023.2.3,Win32,59.52380952,65dbad3905fde4fe1981dc61,65dcf7e1b170f780eb0bd465,,,,,,,,,,,353.2102,0.7,353.9091,353.9093,354.8616,left,1,0.9501,,354.8616,355.8591,3,0,24,0,1,total,1,images/Ex13.jpg,left,training,easy,8,,,,,
,,,,,5d8cef3c28e183001a335ab0,001,36,f,UK,Bsc degree,2024-02-26_20h44.38.725,CRL1e,2023.2.3,Win32,59.52380952,65dbad3905fde4fe1981dc61,65dcf7e1b170f780eb0bd465,,,,,,,,,,,355.8597,0.8,356.6593,356.6594,357.2105,left,1,0.5494,,357.2105,358.209,3,1,25,2,1,total,1,images/Ex14.jpg,left,training,easy,8,,,,,
,,,,,5d8cef3c28e183001a335ab0,001,36,f,UK,Bsc degree,2024-02-26_20h44.38.725,CRL1e,2023.2.3,Win32,59.52380952,65dbad3905fde4fe1981dc61,65dcf7e1b170f780eb0bd465,,,,,,,,,,,358.2097,0.8,359.0087,359.0087,359.6099,left,1,0.6,,359.61,360.6089,3,2,26,3,1,total,1,images/Ex14.jpg,left,training,easy,8,,,,,
,,,,,5d8cef3c28e183001a335ab0,001,36,f,UK,Bsc degree,2024-02-26_20h44.38.725,CRL1e,2023.2.3,Win32,59.52380952,65dbad3905fde4fe1981dc61,65dcf7e1b170f780eb0bd465,,,,,,,,,,,360.6095,1,361.6092,361.6093,362.2302,right,1,0.6191,,362.2303,363.225,3,3,27,4,1,total,1,images/Ex15.jpg,right,training,easy,8,,,,,
,,,,,5d8cef3c28e183001a335ab0,001,36,f,UK,Bsc degree,2024-02-26_20h44.38.725,CRL1e,2023.2.3,Win32,59.52380952,65dbad3905fde4fe1981dc61,65dcf7e1b170f780eb0bd465,,,,,,,,,,,363.2256,0.9,364.125,364.125,364.7255,right,1,0.5961,,364.7256,365.7252,3,4,28,7,1,total,1,images/Ex16.jpg,right,training,easy,8,,,,,
,,,,,5d8cef3c28e183001a335ab0,001,36,f,UK,Bsc degree,2024-02-26_20h44.38.725,CRL1e,2023.2.3,Win32,59.52380952,65dbad3905fde4fe1981dc61,65dcf7e1b170f780eb0bd465,,,,,,,,,,,365.7256,0.8,366.5249,366.5249,367.1092,right,1,0.583,,367.1092,368.1088,3,5,29,6,1,total,1,images/Ex16.jpg,right,training,easy,8,,,,,
,,,,,5d8cef3c28e183001a335ab0,001,36,f,UK,Bsc degree,2024-02-26_20h44.38.725,CRL1e,2023.2.3,Win32,59.52380952,65dbad3905fde4fe1981dc61,65dcf7e1b170f780eb0bd465,,,,,,,,,,,368.1094,0.6,368.7086,368.7086,369.3753,right,1,0.6621,,369.3753,370.3747,3,6,30,5,1,total,1,images/Ex15.jpg,right,training,easy,8,,,,,
,,,,,5d8cef3c28e183001a335ab0,001,36,f,UK,Bsc degree,2024-02-26_20h44.38.725,CRL1e,2023.2.3,Win32,59.52380952,65dbad3905fde4fe1981dc61,65dcf7e1b170f780eb0bd465,,,,,,,,,,,370.3751,1,371.3746,371.3747,372.0133,left,1,0.6374,,372.0134,373.0083,3,7,31,1,1,total,1,images/Ex13.jpg,left,training,easy,8,,,,,
,,,,,5d8cef3c28e183001a335ab0,001,36,f,UK,Bsc degree,2024-02-26_20h44.38.725,CRL1e,2023.2.3,Win32,59.52380952,65dbad3905fde4fe1981dc61,65dcf7e1b170f780eb0bd465,,,,,,,,,,,373.009,1,374.0084,374.0085,375.194,left,1,1.1843,,375.194,376.1883,4,0,32,0,1,total,1,images/Ex13.jpg,left,training,easy,8,,,,,
,,,,,5d8cef3c28e183001a335ab0,001,36,f,UK,Bsc degree,2024-02-26_20h44.38.725,CRL1e,2023.2.3,Win32,59.52380952,65dbad3905fde4fe1981dc61,65dcf7e1b170f780eb0bd465,,,,,,,,,,,376.1891,0.8,376.9892,376.9893,377.4517,right,1,0.46,,377.4517,378.4417,4,1,33,6,1,total,1,images/Ex16.jpg,right,training,easy,8,,,,,
,,,,,5d8cef3c28e183001a335ab0,001,36,f,UK,Bsc degree,2024-02-26_20h44.38.725,CRL1e,2023.2.3,Win32,59.52380952,65dbad3905fde4fe1981dc61,65dcf7e1b170f780eb0bd465,,,,,,,,,,,378.4423,0.8,379.2421,379.2421,379.8097,right,1,0.5661,,379.8097,380.808,4,2,34,5,1,total,1,images/Ex15.jpg,right,training,easy,8,,,,,
,,,,,5d8cef3c28e183001a335ab0,001,36,f,UK,Bsc degree,2024-02-26_20h44.38.725,CRL1e,2023.2.3,Win32,59.52380952,65dbad3905fde4fe1981dc61,65dcf7e1b170f780eb0bd465,,,,,,,,,,,380.8086,0.8,381.6093,381.6093,382.1919,left,1,0.5763,,382.1919,383.1915,4,3,35,3,1,total,1,images/Ex14.jpg,left,training,easy,8,,,,,
,,,,,5d8cef3c28e183001a335ab0,001,36,f,UK,Bsc degree,2024-02-26_20h44.38.725,CRL1e,2023.2.3,Win32,59.52380952,65dbad3905fde4fe1981dc61,65dcf7e1b170f780eb0bd465,,,,,,,,,,,383.1919,1.3,384.4913,384.4913,385.1425,right,1,0.6458,,385.1426,386.1416,4,4,36,4,1,total,1,images/Ex15.jpg,right,training,easy,8,,,,,
,,,,,5d8cef3c28e183001a335ab0,001,36,f,UK,Bsc degree,2024-02-26_20h44.38.725,CRL1e,2023.2.3,Win32,59.52380952,65dbad3905fde4fe1981dc61,65dcf7e1b170f780eb0bd465,,,,,,,,,,,386.1421,1,387.1413,387.1414,387.6919,left,1,0.5447,,387.692,388.6912,4,5,37,2,1,total,1,images/Ex14.jpg,left,training,easy,8,,,,,
,,,,,5d8cef3c28e183001a335ab0,001,36,f,UK,Bsc degree,2024-02-26_20h44.38.725,CRL1e,2023.2.3,Win32,59.52380952,65dbad3905fde4fe1981dc61,65dcf7e1b170f780eb0bd465,,,,,,,,,,,388.6917,1.5,390.1911,390.1911,391.0735,left,1,0.8809,,391.0736,392.0713,4,6,38,1,1,total,1,images/Ex13.jpg,left,training,easy,8,,,,,
,,,,,5d8cef3c28e183001a335ab0,001,36,f,UK,Bsc degree,2024-02-26_20h44.38.725,CRL1e,2023.2.3,Win32,59.52380952,65dbad3905fde4fe1981dc61,65dcf7e1b170f780eb0bd465,,,,,,,,,,,392.0718,1,393.071,393.071,393.4594,right,1,0.3868,,393.4596,394.4537,4,7,39,7,1,total,1,images/Ex16.jpg,right,training,easy,8,,,,,
,,,,,5d8cef3c28e183001a335ab0,001,36,f,UK,Bsc degree,2024-02-26_20h44.38.725,CRL1e,2023.2.3,Win32,59.52380952,65dbad3905fde4fe1981dc61,65dcf7e1b170f780eb0bd465,,,,,,,,,,,394.4543,1.3,395.7537,395.7537,396.596,left,1,0.8404,,396.596,397.5864,5,0,40,0,1,total,1,images/Ex13.jpg,left,training,easy,8,,,,,
,,,,,5d8cef3c28e183001a335ab0,001,36,f,UK,Bsc degree,2024-02-26_20h44.38.725,CRL1e,2023.2.3,Win32,59.52380952,65dbad3905fde4fe1981dc61,65dcf7e1b170f780eb0bd465,,,,,,,,,,,397.5879,0.6,398.1866,398.1867,398.7451,left,1,0.5559,,398.7452,399.7402,5,1,41,2,1,total,1,images/Ex14.jpg,left,training,easy,8,,,,,
,,,,,5d8cef3c28e183001a335ab0,001,36,f,UK,Bsc degree,2024-02-26_20h44.38.725,CRL1e,2023.2.3,Win32,59.52380952,65dbad3905fde4fe1981dc61,65dcf7e1b170f780eb0bd465,,,,,,,,,,,399.7409,0.6,400.3401,400.3401,400.9252,right,1,0.5831,,400.9254,401.9231,5,2,42,4,1,total,1,images/Ex15.jpg,right,training,easy,8,,,,,
,,,,,5d8cef3c28e183001a335ab0,001,36,f,UK,Bsc degree,2024-02-26_20h44.38.725,CRL1e,2023.2.3,Win32,59.52380952,65dbad3905fde4fe1981dc61,65dcf7e1b170f780eb0bd465,,,,,,,,,,,401.9235,1.1,403.0234,403.0235,403.4233,right,1,0.3946,,403.4234,404.4232,5,3,43,7,1,total,1,images/Ex16.jpg,right,training,easy,8,,,,,
,,,,,5d8cef3c28e183001a335ab0,001,36,f,UK,Bsc degree,2024-02-26_20h44.38.725,CRL1e,2023.2.3,Win32,59.52380952,65dbad3905fde4fe1981dc61,65dcf7e1b170f780eb0bd465,,,,,,,,,,,404.4237,0.9,405.323,405.323,405.9079,left,1,0.5835,,405.908,406.9069,5,4,44,3,1,total,1,images/Ex14.jpg,left,training,easy,8,,,,,
,,,,,5d8cef3c28e183001a335ab0,001,36,f,UK,Bsc degree,2024-02-26_20h44.38.725,CRL1e,2023.2.3,Win32,59.52380952,65dbad3905fde4fe1981dc61,65dcf7e1b170f780eb0bd465,,,,,,,,,,,406.9078,0.5,407.4063,407.4064,407.9731,right,1,0.5617,,407.9732,408.9728,5,5,45,5,1,total,1,images/Ex15.jpg,right,training,easy,8,,,,,
,,,,,5d8cef3c28e183001a335ab0,001,36,f,UK,Bsc degree,2024-02-26_20h44.38.725,CRL1e,2023.2.3,Win32,59.52380952,65dbad3905fde4fe1981dc61,65dcf7e1b170f780eb0bd465,,,,,,,,,,,408.9733,1.3,410.2726,410.2726,411.024,left,1,0.7459,,411.024,412.0197,5,6,46,1,1,total,1,images/Ex13.jpg,left,training,easy,8,,,,,
,,,,,5d8cef3c28e183001a335ab0,001,36,f,UK,Bsc degree,2024-02-26_20h44.38.725,CRL1e,2023.2.3,Win32,59.52380952,65dbad3905fde4fe1981dc61,65dcf7e1b170f780eb0bd465,,,,,,,,,,,412.0206,1.1,413.1194,413.1194,413.545,right,1,0.4234,,413.5452,414.5362,5,7,47,6,1,total,1,images/Ex16.jpg,right,training,easy,8,,,,,
,,,,,5d8cef3c28e183001a335ab0,001,36,f,UK,Bsc degree,2024-02-26_20h44.38.725,CRL1e,2023.2.3,Win32,59.52380952,65dbad3905fde4fe1981dc61,65dcf7e1b170f780eb0bd465,,,,,,,,,,,414.5423,0.7,415.2367,415.2368,415.7127,left,0,0.4738,,415.7128,416.7032,0,0,0,2,1,total,2,images/Ex14.jpg,right,reversed,easy,8,,,,,
,,,,,5d8cef3c28e183001a335ab0,001,36,f,UK,Bsc degree,2024-02-26_20h44.38.725,CRL1e,2023.2.3,Win32,59.52380952,65dbad3905fde4fe1981dc61,65dcf7e1b170f780eb0bd465,,,,,,,,,,,416.7037,1.4,418.1058,418.1058,418.6731,right,0,0.5634,,418.6731,419.6695,0,1,1,7,1,total,2,images/Ex16.jpg,left,reversed,easy,8,,,,,
,,,,,5d8cef3c28e183001a335ab0,001,36,f,UK,Bsc degree,2024-02-26_20h44.38.725,CRL1e,2023.2.3,Win32,59.52380952,65dbad3905fde4fe1981dc61,65dcf7e1b170f780eb0bd465,,,,,,,,,,,419.6699,0.6,420.2696,420.2701,420.9815,right,1,0.7095,,420.9816,421.9847,0,2,2,3,1,total,2,images/Ex14.jpg,right,reversed,easy,8,,,,,
,,,,,5d8cef3c28e183001a335ab0,001,36,f,UK,Bsc degree,2024-02-26_20h44.38.725,CRL1e,2023.2.3,Win32,59.52380952,65dbad3905fde4fe1981dc61,65dcf7e1b170f780eb0bd465,,,,,,,,,,,421.9856,1.3,423.2888,423.2888,424.2241,right,1,0.9336,,424.2241,425.2222,0,3,3,1,1,total,2,images/Ex13.jpg,right,reversed,easy,8,,,,,
,,,,,5d8cef3c28e183001a335ab0,001,36,f,UK,Bsc degree,2024-02-26_20h44.38.725,CRL1e,2023.2.3,Win32,59.52380952,65dbad3905fde4fe1981dc61,65dcf7e1b170f780eb0bd465,,,,,,,,,,,425.2227,0.6,425.8227,425.8228,426.523,left,1,0.695,,426.5231,427.5223,0,4,4,5,1,total,2,images/Ex15.jpg,left,reversed,easy,8,,,,,
,,,,,5d8cef3c28e183001a335ab0,001,36,f,UK,Bsc degree,2024-02-26_20h44.38.725,CRL1e,2023.2.3,Win32,59.52380952,65dbad3905fde4fe1981dc61,65dcf7e1b170f780eb0bd465,,,,,,,,,,,427.5228,0.9,428.4221,428.4221,429.0626,left,1,0.6394,,429.0626,430.0521,0,5,5,4,1,total,2,images/Ex15.jpg,left,reversed,easy,8,,,,,
,,,,,5d8cef3c28e183001a335ab0,001,36,f,UK,Bsc degree,2024-02-26_20h44.38.725,CRL1e,2023.2.3,Win32,59.52380952,65dbad3905fde4fe1981dc61,65dcf7e1b170f780eb0bd465,,,,,,,,,,,430.0531,1.4,431.4518,431.452,432.3724,right,1,0.9186,,432.3724,433.3713,0,6,6,0,1,total,2,images/Ex13.jpg,right,reversed,easy,8,,,,,
,,,,,5d8cef3c28e183001a335ab0,001,36,f,UK,Bsc degree,2024-02-26_20h44.38.725,CRL1e,2023.2.3,Win32,59.52380952,65dbad3905fde4fe1981dc61,65dcf7e1b170f780eb0bd465,,,,,,,,,,,433.3718,1,434.3718,434.3718,435.2586,left,1,0.8852,,435.2587,436.2526,0,7,7,6,1,total,2,images/Ex16.jpg,left,reversed,easy,8,,,,,
,,,,,5d8cef3c28e183001a335ab0,001,36,f,UK,Bsc degree,2024-02-26_20h44.38.725,CRL1e,2023.2.3,Win32,59.52380952,65dbad3905fde4fe1981dc61,65dcf7e1b170f780eb0bd465,,,,,,,,,,,436.2532,1.4,437.6518,437.652,438.3766,right,1,0.7229,,438.3766,439.3687,1,0,8,0,1,total,2,images/Ex13.jpg,right,reversed,easy,8,,,,,
,,,,,5d8cef3c28e183001a335ab0,001,36,f,UK,Bsc degree,2024-02-26_20h44.38.725,CRL1e,2023.2.3,Win32,59.52380952,65dbad3905fde4fe1981dc61,65dcf7e1b170f780eb0bd465,,,,,,,,,,,439.3697,0.6,439.9719,439.972,440.6407,left,1,0.6676,,440.6407,441.6387,1,1,9,4,1,total,2,images/Ex15.jpg,left,reversed,easy,8,,,,,
,,,,,5d8cef3c28e183001a335ab0,001,36,f,UK,Bsc degree,2024-02-26_20h44.38.725,CRL1e,2023.2.3,Win32,59.52380952,65dbad3905fde4fe1981dc61,65dcf7e1b170f780eb0bd465,,,,,,,,,,,441.6396,0.5,442.1348,442.1348,442.8561,left,1,0.7196,,442.8562,443.8541,1,2,10,6,1,total,2,images/Ex16.jpg,left,reversed,easy,8,,,,,
,,,,,5d8cef3c28e183001a335ab0,001,36,f,UK,Bsc degree,2024-02-26_20h44.38.725,CRL1e,2023.2.3,Win32,59.52380952,65dbad3905fde4fe1981dc61,65dcf7e1b170f780eb0bd465,,,,,,,,,,,443.8552,1.1,444.9514,444.9515,445.3892,right,1,0.4355,,445.3892,446.3869,1,3,11,3,1,total,2,images/Ex14.jpg,right,reversed,easy,8,,,,,
,,,,,5d8cef3c28e183001a335ab0,001,36,f,UK,Bsc degree,2024-02-26_20h44.38.725,CRL1e,2023.2.3,Win32,59.52380952,65dbad3905fde4fe1981dc61,65dcf7e1b170f780eb0bd465,,,,,,,,,,,446.3875,0.9,447.2757,447.2758,448.1622,right,1,0.8805,,448.1624,449.1522,1,4,12,1,1,total,2,images/Ex13.jpg,right,reversed,easy,8,,,,,
,,,,,5d8cef3c28e183001a335ab0,001,36,f,UK,Bsc degree,2024-02-26_20h44.38.725,CRL1e,2023.2.3,Win32,59.52380952,65dbad3905fde4fe1981dc61,65dcf7e1b170f780eb0bd465,,,,,,,,,,,449.1526,1.2,450.352,450.3521,450.7828,left,1,0.4286,,450.7829,451.7833,1,5,13,7,1,total,2,images/Ex16.jpg,left,reversed,easy,8,,,,,
,,,,,5d8cef3c28e183001a335ab0,001,36,f,UK,Bsc degree,2024-02-26_20h44.38.725,CRL1e,2023.2.3,Win32,59.52380952,65dbad3905fde4fe1981dc61,65dcf7e1b170f780eb0bd465,,,,,,,,,,,451.7842,0.9,452.6843,452.6843,453.2486,left,1,0.5625,,453.2487,454.238,1,6,14,5,1,total,2,images/Ex15.jpg,left,reversed,easy,8,,,,,
,,,,,5d8cef3c28e183001a335ab0,001,36,f,UK,Bsc degree,2024-02-26_20h44.38.725,CRL1e,2023.2.3,Win32,59.52380952,65dbad3905fde4fe1981dc61,65dcf7e1b170f780eb0bd465,,,,,,,,,,,454.2385,0.6,454.8379,454.838,455.624,right,1,0.7791,,455.624,456.6212,1,7,15,2,1,total,2,images/Ex14.jpg,right,reversed,easy,8,,,,,
,,,,,5d8cef3c28e183001a335ab0,001,36,f,UK,Bsc degree,2024-02-26_20h44.38.725,CRL1e,2023.2.3,Win32,59.52380952,65dbad3905fde4fe1981dc61,65dcf7e1b170f780eb0bd465,,,,,,,,,,,456.6218,1.1,457.7213,457.7214,458.4315,right,0,0.7078,,458.4315,459.4215,2,0,16,5,1,total,2,images/Ex15.jpg,left,reversed,easy,8,,,,,
,,,,,5d8cef3c28e183001a335ab0,001,36,f,UK,Bsc degree,2024-02-26_20h44.38.725,CRL1e,2023.2.3,Win32,59.52380952,65dbad3905fde4fe1981dc61,65dcf7e1b170f780eb0bd465,,,,,,,,,,,459.4219,1,460.4206,460.4206,461.1233,left,1,0.7011,,461.1233,462.1206,2,1,17,4,1,total,2,images/Ex15.jpg,left,reversed,easy,8,,,,,
,,,,,5d8cef3c28e183001a335ab0,001,36,f,UK,Bsc degree,2024-02-26_20h44.38.725,CRL1e,2023.2.3,Win32,59.52380952,65dbad3905fde4fe1981dc61,65dcf7e1b170f780eb0bd465,,,,,,,,,,,462.1212,0.7,462.8211,462.8211,463.6216,right,1,0.7992,,463.6218,464.6208,2,2,18,1,1,total,2,images/Ex13.jpg,right,reversed,easy,8,,,,,
,,,,,5d8cef3c28e183001a335ab0,001,36,f,UK,Bsc degree,2024-02-26_20h44.38.725,CRL1e,2023.2.3,Win32,59.52380952,65dbad3905fde4fe1981dc61,65dcf7e1b170f780eb0bd465,,,,,,,,,,,464.6213,0.8,465.421,465.421,466.0374,left,1,0.6114,,466.0374,467.0369,2,3,19,7,1,total,2,images/Ex16.jpg,left,reversed,easy,8,,,,,
,,,,,5d8cef3c28e183001a335ab0,001,36,f,UK,Bsc degree,2024-02-26_20h44.38.725,CRL1e,2023.2.3,Win32,59.52380952,65dbad3905fde4fe1981dc61,65dcf7e1b170f780eb0bd465,,,,,,,,,,,467.0378,1,468.0368,468.0369,468.5383,right,1,0.4946,,468.5383,469.5372,2,4,20,2,1,total,2,images/Ex14.jpg,right,reversed,easy,8,,,,,
,,,,,5d8cef3c28e183001a335ab0,001,36,f,UK,Bsc degree,2024-02-26_20h44.38.725,CRL1e,2023.2.3,Win32,59.52380952,65dbad3905fde4fe1981dc61,65dcf7e1b170f780eb0bd465,,,,,,,,,,,469.5378,1.3,470.8366,470.8367,471.3548,right,1,0.5164,,471.3549,472.3508,2,5,21,3,1,total,2,images/Ex14.jpg,right,reversed,easy,8,,,,,
,,,,,5d8cef3c28e183001a335ab0,001,36,f,UK,Bsc degree,2024-02-26_20h44.38.725,CRL1e,2023.2.3,Win32,59.52380952,65dbad3905fde4fe1981dc61,65dcf7e1b170f780eb0bd465,,,,,,,,,,,472.3513,1.3,473.6532,473.6532,474.7713,right,1,1.1135,,474.7713,475.7697,2,6,22,0,1,total,2,images/Ex13.jpg,right,reversed,easy,8,,,,,
,,,,,5d8cef3c28e183001a335ab0,001,36,f,UK,Bsc degree,2024-02-26_20h44.38.725,CRL1e,2023.2.3,Win32,59.52380952,65dbad3905fde4fe1981dc61,65dcf7e1b170f780eb0bd465,,,,,,,,,,,475.7707,1.4,477.1695,477.1695,477.6733,left,1,0.5015,,477.6734,478.6697,2,7,23,6,1,total,2,images/Ex16.jpg,left,reversed,easy,8,,,,,
,,,,,5d8cef3c28e183001a335ab0,001,36,f,UK,Bsc degree,2024-02-26_20h44.38.725,CRL1e,2023.2.3,Win32,59.52380952,65dbad3905fde4fe1981dc61,65dcf7e1b170f780eb0bd465,,,,,,,,,,,478.6709,0.8,479.4695,479.4696,480.003,right,1,0.5279,,480.0031,481.0027,3,0,24,2,1,total,2,images/Ex14.jpg,right,reversed,easy,8,,,,,
,,,,,5d8cef3c28e183001a335ab0,001,36,f,UK,Bsc degree,2024-02-26_20h44.38.725,CRL1e,2023.2.3,Win32,59.52380952,65dbad3905fde4fe1981dc61,65dcf7e1b170f780eb0bd465,,,,,,,,,,,481.0032,0.5,481.5028,481.5028,482.0366,left,1,0.5283,,482.0366,483.036,3,1,25,6,1,total,2,images/Ex16.jpg,left,reversed,easy,8,,,,,
,,,,,5d8cef3c28e183001a335ab0,001,36,f,UK,Bsc degree,2024-02-26_20h44.38.725,CRL1e,2023.2.3,Win32,59.52380952,65dbad3905fde4fe1981dc61,65dcf7e1b170f780eb0bd465,,,,,,,,,,,483.0365,1.5,484.536,484.536,485.2053,left,1,0.6677,,485.2054,486.2018,3,2,26,4,1,total,2,images/Ex15.jpg,left,reversed,easy,8,,,,,
,,,,,5d8cef3c28e183001a335ab0,001,36,f,UK,Bsc degree,2024-02-26_20h44.38.725,CRL1e,2023.2.3,Win32,59.52380952,65dbad3905fde4fe1981dc61,65dcf7e1b170f780eb0bd465,,,,,,,,,,,486.2022,0.8,487.0019,487.0019,487.721,right,1,0.7161,,487.7212,488.7194,3,3,27,0,1,total,2,images/Ex13.jpg,right,reversed,easy,8,,,,,
,,,,,5d8cef3c28e183001a335ab0,001,36,f,UK,Bsc degree,2024-02-26_20h44.38.725,CRL1e,2023.2.3,Win32,59.52380952,65dbad3905fde4fe1981dc61,65dcf7e1b170f780eb0bd465,,,,,,,,,,,488.7204,1.3,490.0191,490.0191,490.4944,left,1,0.4737,,490.4945,491.4856,3,4,28,7,1,total,2,images/Ex16.jpg,left,reversed,easy,8,,,,,
,,,,,5d8cef3c28e183001a335ab0,001,36,f,UK,Bsc degree,2024-02-26_20h44.38.725,CRL1e,2023.2.3,Win32,59.52380952,65dbad3905fde4fe1981dc61,65dcf7e1b170f780eb0bd465,,,,,,,,,,,491.4861,1.3,492.7856,492.7856,493.3366,right,1,0.5459,,493.3367,494.3355,3,5,29,3,1,total,2,images/Ex14.jpg,right,reversed,easy,8,,,,,
,,,,,5d8cef3c28e183001a335ab0,001,36,f,UK,Bsc degree,2024-02-26_20h44.38.725,CRL1e,2023.2.3,Win32,59.52380952,65dbad3905fde4fe1981dc61,65dcf7e1b170f780eb0bd465,,,,,,,,,,,494.336,0.7,495.0355,495.0355,495.6357,left,1,0.5976,,495.6358,496.6356,3,6,30,5,1,total,2,images/Ex15.jpg,left,reversed,easy,8,,,,,
,,,,,5d8cef3c28e183001a335ab0,001,36,f,UK,Bsc degree,2024-02-26_20h44.38.725,CRL1e,2023.2.3,Win32,59.52380952,65dbad3905fde4fe1981dc61,65dcf7e1b170f780eb0bd465,,,,,,,,,,,496.6361,0.6,497.2354,497.2354,497.9533,right,1,0.7124,,497.9533,498.9536,3,7,31,1,1,total,2,images/Ex13.jpg,right,reversed,easy,8,,,,,
,,,,,5d8cef3c28e183001a335ab0,001,36,f,UK,Bsc degree,2024-02-26_20h44.38.725,CRL1e,2023.2.3,Win32,59.52380952,65dbad3905fde4fe1981dc61,65dcf7e1b170f780eb0bd465,,,,,,,,,,,498.9546,0.7,499.6522,499.6523,500.2355,right,0,0.579,,500.2355,501.235,4,0,32,5,1,total,2,images/Ex15.jpg,left,reversed,easy,8,,,,,
,,,,,5d8cef3c28e183001a335ab0,001,36,f,UK,Bsc degree,2024-02-26_20h44.38.725,CRL1e,2023.2.3,Win32,59.52380952,65dbad3905fde4fe1981dc61,65dcf7e1b170f780eb0bd465,,,,,,,,,,,501.2355,0.7,501.9249,501.925,502.5525,left,1,0.6218,,502.5526,503.5522,4,1,33,4,1,total,2,images/Ex15.jpg,left,reversed,easy,8,,,,,
,,,,,5d8cef3c28e183001a335ab0,001,36,f,UK,Bsc degree,2024-02-26_20h44.38.725,CRL1e,2023.2.3,Win32,59.52380952,65dbad3905fde4fe1981dc61,65dcf7e1b170f780eb0bd465,,,,,,,,,,,503.5528,1.2,504.7523,504.7523,505.2531,left,1,0.4963,,505.2532,506.252,4,2,34,6,1,total,2,images/Ex16.jpg,left,reversed,easy,8,,,,,
,,,,,5d8cef3c28e183001a335ab0,001,36,f,UK,Bsc degree,2024-02-26_20h44.38.725,CRL1e,2023.2.3,Win32,59.52380952,65dbad3905fde4fe1981dc61,65dcf7e1b170f780eb0bd465,,,,,,,,,,,506.2525,1.1,507.3522,507.3522,507.8698,right,1,0.512,,507.8699,508.8638,4,3,35,3,1,total,2,images/Ex14.jpg,right,reversed,easy,8,,,,,
,,,,,5d8cef3c28e183001a335ab0,001,36,f,UK,Bsc degree,2024-02-26_20h44.38.725,CRL1e,2023.2.3,Win32,59.52380952,65dbad3905fde4fe1981dc61,65dcf7e1b170f780eb0bd465,,,,,,,,,,,508.8647,1.3,510.1647,510.1647,510.605,left,1,0.4385,,510.605,511.5992,4,4,36,7,1,total,2,images/Ex16.jpg,left,reversed,easy,8,,,,,
,,,,,5d8cef3c28e183001a335ab0,001,36,f,UK,Bsc degree,2024-02-26_20h44.38.725,CRL1e,2023.2.3,Win32,59.52380952,65dbad3905fde4fe1981dc61,65dcf7e1b170f780eb0bd465,,,,,,,,,,,511.5997,1.2,512.8019,512.8019,513.4032,right,1,0.5956,,513.4034,514.4019,4,5,37,0,1,total,2,images/Ex13.jpg,right,reversed,easy,8,,,,,
,,,,,5d8cef3c28e183001a335ab0,001,36,f,UK,Bsc degree,2024-02-26_20h44.38.725,CRL1e,2023.2.3,Win32,59.52380952,65dbad3905fde4fe1981dc61,65dcf7e1b170f780eb0bd465,,,,,,,,,,,514.4024,0.5,514.9024,514.9024,515.5021,right,1,0.5983,,515.5022,516.5013,4,6,38,1,1,total,2,images/Ex13.jpg,right,reversed,easy,8,,,,,
,,,,,5d8cef3c28e183001a335ab0,001,36,f,UK,Bsc degree,2024-02-26_20h44.38.725,CRL1e,2023.2.3,Win32,59.52380952,65dbad3905fde4fe1981dc61,65dcf7e1b170f780eb0bd465,,,,,,,,,,,516.5021,1.5,517.9982,517.9982,518.5877,right,1,0.5851,,518.5877,519.5822,4,7,39,2,1,total,2,images/Ex14.jpg,right,reversed,easy,8,,,,,
,,,,,5d8cef3c28e183001a335ab0,001,36,f,UK,Bsc degree,2024-02-26_20h44.38.725,CRL1e,2023.2.3,Win32,59.52380952,65dbad3905fde4fe1981dc61,65dcf7e1b170f780eb0bd465,,,,,,,,,,,519.5826,1.3,520.8815,520.8816,521.3728,right,1,0.49,,521.373,522.3646,5,0,40,2,1,total,2,images/Ex14.jpg,right,reversed,easy,8,,,,,
,,,,,5d8cef3c28e183001a335ab0,001,36,f,UK,Bsc degree,2024-02-26_20h44.38.725,CRL1e,2023.2.3,Win32,59.52380952,65dbad3905fde4fe1981dc61,65dcf7e1b170f780eb0bd465,,,,,,,,,,,522.3654,1.3,523.6644,523.6644,524.5236,right,1,0.8574,,524.5237,525.5315,5,1,41,0,1,total,2,images/Ex13.jpg,right,reversed,easy,8,,,,,
,,,,,5d8cef3c28e183001a335ab0,001,36,f,UK,Bsc degree,2024-02-26_20h44.38.725,CRL1e,2023.2.3,Win32,59.52380952,65dbad3905fde4fe1981dc61,65dcf7e1b170f780eb0bd465,,,,,,,,,,,525.5323,0.7,526.2337,526.2337,526.8347,left,1,0.5988,,526.8348,527.8319,5,2,42,5,1,total,2,images/Ex15.jpg,left,reversed,easy,8,,,,,
,,,,,5d8cef3c28e183001a335ab0,001,36,f,UK,Bsc degree,2024-02-26_20h44.38.725,CRL1e,2023.2.3,Win32,59.52380952,65dbad3905fde4fe1981dc61,65dcf7e1b170f780eb0bd465,,,,,,,,,,,527.8328,0.6,528.4311,528.4312,528.9758,right,1,0.5424,,528.9758,529.964,5,3,43,1,1,total,2,images/Ex13.jpg,right,reversed,easy,8,,,,,
,,,,,5d8cef3c28e183001a335ab0,001,36,f,UK,Bsc degree,2024-02-26_20h44.38.725,CRL1e,2023.2.3,Win32,59.52380952,65dbad3905fde4fe1981dc61,65dcf7e1b170f780eb0bd465,,,,,,,,,,,529.9645,0.6,530.5647,530.5647,531.4042,left,1,0.8382,,531.4043,532.4009,5,4,44,4,1,total,2,images/Ex15.jpg,left,reversed,easy,8,,,,,
,,,,,5d8cef3c28e183001a335ab0,001,36,f,UK,Bsc degree,2024-02-26_20h44.38.725,CRL1e,2023.2.3,Win32,59.52380952,65dbad3905fde4fe1981dc61,65dcf7e1b170f780eb0bd465,,,,,,,,,,,532.4015,1,533.3979,533.398,533.8022,left,1,0.4027,,533.8022,534.7997,5,5,45,6,1,total,2,images/Ex16.jpg,left,reversed,easy,8,,,,,
,,,,,5d8cef3c28e183001a335ab0,001,36,f,UK,Bsc degree,2024-02-26_20h44.38.725,CRL1e,2023.2.3,Win32,59.52380952,65dbad3905fde4fe1981dc61,65dcf7e1b170f780eb0bd465,,,,,,,,,,,534.8006,1.1,535.9,535.9,536.3617,right,1,0.4586,,536.3617,537.3501,5,6,46,3,1,total,2,images/Ex14.jpg,right,reversed,easy,8,,,,,
,,,,,5d8cef3c28e183001a335ab0,001,36,f,UK,Bsc degree,2024-02-26_20h44.38.725,CRL1e,2023.2.3,Win32,59.52380952,65dbad3905fde4fe1981dc61,65dcf7e1b170f780eb0bd465,,,,,,,,,,,537.3508,0.8,538.151,538.1511,538.5508,left,1,0.394,,538.551,539.5504,5,7,47,7,1,total,2,images/Ex16.jpg,left,reversed,easy,8,,,,,
,,,,,5d8cef3c28e183001a335ab0,001,36,f,UK,Bsc degree,2024-02-26_20h44.38.725,CRL1e,2023.2.3,Win32,59.52380952,65dbad3905fde4fe1981dc61,65dcf7e1b170f780eb0bd465,,,,,,,,,,,,,,,,,,,,,,,,,,,,,,,,,,539.5513,555.3341,space,15.7385,