infCons.started,infCons.stopped,resp_consent.keys,resp_consent.rt,resp_consent.duration,participant,session,Age?,Gender?,Nationality?,Highest Educational Degree?,date,expName,psychopyVersion,OS,frameRate,STUDY_ID,SESSION_ID,instructions.started,instructions.stopped,resp_instructions.keys,resp_instructions.rt,resp_instructions.duration,nextTask.started,nextTask.stopped,ready_task.keys,ready_task.rt,ready_task.duration,fixation.started,ITI,fixation.stopped,stim.started,stim.stopped,response.keys,response.corr,response.rt,response.duration,feedback.started,feedback.stopped,trials.thisRepN,trials.thisTrialN,trials.thisN,trials.thisIndex,trials.ran,task,phase,Exemplars,r_correct,condition,difficulty,set,end.started,end.stopped,resp_end.keys,resp_end.rt,resp_end.duration
0,18.245,space,18.221,,5f0788c06b220f03231666a0,001,63,Female,British,postgraduate,2024-02-26_20h26.56.028,CRL1e,2023.2.3,Win32,59.95203837,65dbad3905fde4fe1981dc61,65dcf3dd314e15a955b65841,,,,,,,,,,,,,,,,,,,,,,,,,,,,,,,,,,,,,,
,,,,,5f0788c06b220f03231666a0,001,63,Female,British,postgraduate,2024-02-26_20h26.56.028,CRL1e,2023.2.3,Win32,59.95203837,65dbad3905fde4fe1981dc61,65dcf3dd314e15a955b65841,18.245,50.045,space,31.774,,,,,,,,,,,,,,,,,,,,,,,,,,,,,,,,,,
,,,,,5f0788c06b220f03231666a0,001,63,Female,British,postgraduate,2024-02-26_20h26.56.028,CRL1e,2023.2.3,Win32,59.95203837,65dbad3905fde4fe1981dc61,65dcf3dd314e15a955b65841,,,,,,50.048,53.862,space,3.797,,53.867,0.9,54.761,54.762,58.362,left,1,3.584,,58.362,59.361,0,0,0,3,1,total,1,images/Ex14.jpg,left,training,easy,7,,,,,
,,,,,5f0788c06b220f03231666a0,001,63,Female,British,postgraduate,2024-02-26_20h26.56.028,CRL1e,2023.2.3,Win32,59.95203837,65dbad3905fde4fe1981dc61,65dcf3dd314e15a955b65841,,,,,,,,,,,59.362,0.6,59.961,59.961,60.928,left,0,0.958,,60.928,61.928,0,1,1,4,1,total,1,images/Ex15.jpg,right,training,easy,7,,,,,
,,,,,5f0788c06b220f03231666a0,001,63,Female,British,postgraduate,2024-02-26_20h26.56.028,CRL1e,2023.2.3,Win32,59.95203837,65dbad3905fde4fe1981dc61,65dcf3dd314e15a955b65841,,,,,,,,,,,61.929,1.4,63.327,63.327,63.994,right,1,0.657,,63.994,64.994,0,2,2,6,1,total,1,images/Ex16.jpg,right,training,easy,7,,,,,
,,,,,5f0788c06b220f03231666a0,001,63,Female,British,postgraduate,2024-02-26_20h26.56.028,CRL1e,2023.2.3,Win32,59.95203837,65dbad3905fde4fe1981dc61,65dcf3dd314e15a955b65841,,,,,,,,,,,64.995,1.2,66.195,66.195,66.928,right,1,0.726,,66.928,67.928,0,3,3,5,1,total,1,images/Ex15.jpg,right,training,easy,7,,,,,
,,,,,5f0788c06b220f03231666a0,001,63,Female,British,postgraduate,2024-02-26_20h26.56.028,CRL1e,2023.2.3,Win32,59.95203837,65dbad3905fde4fe1981dc61,65dcf3dd314e15a955b65841,,,,,,,,,,,67.929,0.9,68.828,68.828,69.361,left,1,0.525,,69.361,70.361,0,4,4,1,1,total,1,images/Ex13.jpg,left,training,easy,7,,,,,
,,,,,5f0788c06b220f03231666a0,001,63,Female,British,postgraduate,2024-02-26_20h26.56.028,CRL1e,2023.2.3,Win32,59.95203837,65dbad3905fde4fe1981dc61,65dcf3dd314e15a955b65841,,,,,,,,,,,70.362,1,71.361,71.361,72.027,right,0,0.655,,72.027,73.028,0,5,5,2,1,total,1,images/Ex14.jpg,left,training,easy,7,,,,,
,,,,,5f0788c06b220f03231666a0,001,63,Female,British,postgraduate,2024-02-26_20h26.56.028,CRL1e,2023.2.3,Win32,59.95203837,65dbad3905fde4fe1981dc61,65dcf3dd314e15a955b65841,,,,,,,,,,,73.028,1.4,74.428,74.428,75.094,right,1,0.654,,75.094,76.094,0,6,6,7,1,total,1,images/Ex16.jpg,right,training,easy,7,,,,,
,,,,,5f0788c06b220f03231666a0,001,63,Female,British,postgraduate,2024-02-26_20h26.56.028,CRL1e,2023.2.3,Win32,59.95203837,65dbad3905fde4fe1981dc61,65dcf3dd314e15a955b65841,,,,,,,,,,,76.095,0.5,76.594,76.594,77.494,left,1,0.894,,77.494,78.495,0,7,7,0,1,total,1,images/Ex13.jpg,left,training,easy,7,,,,,
,,,,,5f0788c06b220f03231666a0,001,63,Female,British,postgraduate,2024-02-26_20h26.56.028,CRL1e,2023.2.3,Win32,59.95203837,65dbad3905fde4fe1981dc61,65dcf3dd314e15a955b65841,,,,,,,,,,,78.496,1,79.494,79.495,80.277,right,0,0.777,,80.277,81.278,1,0,8,3,1,total,1,images/Ex14.jpg,left,training,easy,7,,,,,
,,,,,5f0788c06b220f03231666a0,001,63,Female,British,postgraduate,2024-02-26_20h26.56.028,CRL1e,2023.2.3,Win32,59.95203837,65dbad3905fde4fe1981dc61,65dcf3dd314e15a955b65841,,,,,,,,,,,81.278,0.6,81.877,81.877,83.061,right,0,1.178,,83.061,84.061,1,1,9,1,1,total,1,images/Ex13.jpg,left,training,easy,7,,,,,
,,,,,5f0788c06b220f03231666a0,001,63,Female,British,postgraduate,2024-02-26_20h26.56.028,CRL1e,2023.2.3,Win32,59.95203837,65dbad3905fde4fe1981dc61,65dcf3dd314e15a955b65841,,,,,,,,,,,84.064,1.4,85.461,85.461,86.561,left,0,1.086,,86.561,87.561,1,2,10,5,1,total,1,images/Ex15.jpg,right,training,easy,7,,,,,
,,,,,5f0788c06b220f03231666a0,001,63,Female,British,postgraduate,2024-02-26_20h26.56.028,CRL1e,2023.2.3,Win32,59.95203837,65dbad3905fde4fe1981dc61,65dcf3dd314e15a955b65841,,,,,,,,,,,87.561,0.8,88.361,88.361,89.161,left,1,0.798,,89.161,90.161,1,3,11,2,1,total,1,images/Ex14.jpg,left,training,easy,7,,,,,
,,,,,5f0788c06b220f03231666a0,001,63,Female,British,postgraduate,2024-02-26_20h26.56.028,CRL1e,2023.2.3,Win32,59.95203837,65dbad3905fde4fe1981dc61,65dcf3dd314e15a955b65841,,,,,,,,,,,90.161,0.7,90.861,90.861,91.711,right,1,0.837,,91.711,92.711,1,4,12,4,1,total,1,images/Ex15.jpg,right,training,easy,7,,,,,
,,,,,5f0788c06b220f03231666a0,001,63,Female,British,postgraduate,2024-02-26_20h26.56.028,CRL1e,2023.2.3,Win32,59.95203837,65dbad3905fde4fe1981dc61,65dcf3dd314e15a955b65841,,,,,,,,,,,92.711,0.7,93.412,93.412,94.161,left,1,0.748,,94.161,95.161,1,5,13,0,1,total,1,images/Ex13.jpg,left,training,easy,7,,,,,
,,,,,5f0788c06b220f03231666a0,001,63,Female,British,postgraduate,2024-02-26_20h26.56.028,CRL1e,2023.2.3,Win32,59.95203837,65dbad3905fde4fe1981dc61,65dcf3dd314e15a955b65841,,,,,,,,,,,95.162,0.6,95.761,95.761,96.561,right,1,0.791,,96.561,97.561,1,6,14,6,1,total,1,images/Ex16.jpg,right,training,easy,7,,,,,
,,,,,5f0788c06b220f03231666a0,001,63,Female,British,postgraduate,2024-02-26_20h26.56.028,CRL1e,2023.2.3,Win32,59.95203837,65dbad3905fde4fe1981dc61,65dcf3dd314e15a955b65841,,,,,,,,,,,97.562,1.3,98.861,98.861,99.511,right,1,0.637,,99.511,100.511,1,7,15,7,1,total,1,images/Ex16.jpg,right,training,easy,7,,,,,
,,,,,5f0788c06b220f03231666a0,001,63,Female,British,postgraduate,2024-02-26_20h26.56.028,CRL1e,2023.2.3,Win32,59.95203837,65dbad3905fde4fe1981dc61,65dcf3dd314e15a955b65841,,,,,,,,,,,100.511,1,101.511,101.511,101.944,right,1,0.426,,101.944,102.944,2,0,16,6,1,total,1,images/Ex16.jpg,right,training,easy,7,,,,,
,,,,,5f0788c06b220f03231666a0,001,63,Female,British,postgraduate,2024-02-26_20h26.56.028,CRL1e,2023.2.3,Win32,59.95203837,65dbad3905fde4fe1981dc61,65dcf3dd314e15a955b65841,,,,,,,,,,,102.945,1.2,104.144,104.144,104.727,left,1,0.572,,104.727,105.727,2,1,17,3,1,total,1,images/Ex14.jpg,left,training,easy,7,,,,,
,,,,,5f0788c06b220f03231666a0,001,63,Female,British,postgraduate,2024-02-26_20h26.56.028,CRL1e,2023.2.3,Win32,59.95203837,65dbad3905fde4fe1981dc61,65dcf3dd314e15a955b65841,,,,,,,,,,,105.728,0.5,106.227,106.227,106.694,right,1,0.456,,106.694,107.694,2,2,18,7,1,total,1,images/Ex16.jpg,right,training,easy,7,,,,,
,,,,,5f0788c06b220f03231666a0,001,63,Female,British,postgraduate,2024-02-26_20h26.56.028,CRL1e,2023.2.3,Win32,59.95203837,65dbad3905fde4fe1981dc61,65dcf3dd314e15a955b65841,,,,,,,,,,,107.694,0.7,108.394,108.394,109.027,left,0,0.621,,109.027,110.027,2,3,19,5,1,total,1,images/Ex15.jpg,right,training,easy,7,,,,,
,,,,,5f0788c06b220f03231666a0,001,63,Female,British,postgraduate,2024-02-26_20h26.56.028,CRL1e,2023.2.3,Win32,59.95203837,65dbad3905fde4fe1981dc61,65dcf3dd314e15a955b65841,,,,,,,,,,,110.028,1.1,111.127,111.127,112.044,left,1,0.905,,112.044,113.044,2,4,20,2,1,total,1,images/Ex14.jpg,left,training,easy,7,,,,,
,,,,,5f0788c06b220f03231666a0,001,63,Female,British,postgraduate,2024-02-26_20h26.56.028,CRL1e,2023.2.3,Win32,59.95203837,65dbad3905fde4fe1981dc61,65dcf3dd314e15a955b65841,,,,,,,,,,,113.045,0.6,113.644,113.644,114.677,left,1,1.029,,114.677,115.677,2,5,21,0,1,total,1,images/Ex13.jpg,left,training,easy,7,,,,,
,,,,,5f0788c06b220f03231666a0,001,63,Female,British,postgraduate,2024-02-26_20h26.56.028,CRL1e,2023.2.3,Win32,59.95203837,65dbad3905fde4fe1981dc61,65dcf3dd314e15a955b65841,,,,,,,,,,,115.678,0.6,116.278,116.278,116.961,left,1,0.671,,116.961,117.962,2,6,22,1,1,total,1,images/Ex13.jpg,left,training,easy,7,,,,,
,,,,,5f0788c06b220f03231666a0,001,63,Female,British,postgraduate,2024-02-26_20h26.56.028,CRL1e,2023.2.3,Win32,59.95203837,65dbad3905fde4fe1981dc61,65dcf3dd314e15a955b65841,,,,,,,,,,,117.964,1.3,119.26,119.261,120.128,right,1,0.854,,120.128,121.128,2,7,23,4,1,total,1,images/Ex15.jpg,right,training,easy,7,,,,,
,,,,,5f0788c06b220f03231666a0,001,63,Female,British,postgraduate,2024-02-26_20h26.56.028,CRL1e,2023.2.3,Win32,59.95203837,65dbad3905fde4fe1981dc61,65dcf3dd314e15a955b65841,,,,,,,,,,,121.129,1.1,122.227,122.227,122.878,right,1,0.645,,122.878,123.877,3,0,24,5,1,total,1,images/Ex15.jpg,right,training,easy,7,,,,,
,,,,,5f0788c06b220f03231666a0,001,63,Female,British,postgraduate,2024-02-26_20h26.56.028,CRL1e,2023.2.3,Win32,59.95203837,65dbad3905fde4fe1981dc61,65dcf3dd314e15a955b65841,,,,,,,,,,,123.878,0.5,124.377,124.378,124.978,left,1,0.589,,124.978,125.977,3,1,25,1,1,total,1,images/Ex13.jpg,left,training,easy,7,,,,,
,,,,,5f0788c06b220f03231666a0,001,63,Female,British,postgraduate,2024-02-26_20h26.56.028,CRL1e,2023.2.3,Win32,59.95203837,65dbad3905fde4fe1981dc61,65dcf3dd314e15a955b65841,,,,,,,,,,,125.977,1.2,127.178,127.178,127.877,right,0,0.688,,127.878,128.878,3,2,26,2,1,total,1,images/Ex14.jpg,left,training,easy,7,,,,,
,,,,,5f0788c06b220f03231666a0,001,63,Female,British,postgraduate,2024-02-26_20h26.56.028,CRL1e,2023.2.3,Win32,59.95203837,65dbad3905fde4fe1981dc61,65dcf3dd314e15a955b65841,,,,,,,,,,,128.878,1,129.878,129.878,130.611,left,1,0.73,,130.611,131.611,3,3,27,3,1,total,1,images/Ex14.jpg,left,training,easy,7,,,,,
,,,,,5f0788c06b220f03231666a0,001,63,Female,British,postgraduate,2024-02-26_20h26.56.028,CRL1e,2023.2.3,Win32,59.95203837,65dbad3905fde4fe1981dc61,65dcf3dd314e15a955b65841,,,,,,,,,,,131.611,1,132.611,132.611,133.178,right,1,0.556,,133.178,134.177,3,4,28,7,1,total,1,images/Ex16.jpg,right,training,easy,7,,,,,
,,,,,5f0788c06b220f03231666a0,001,63,Female,British,postgraduate,2024-02-26_20h26.56.028,CRL1e,2023.2.3,Win32,59.95203837,65dbad3905fde4fe1981dc61,65dcf3dd314e15a955b65841,,,,,,,,,,,134.178,0.6,134.777,134.778,135.262,right,1,0.479,,135.262,136.261,3,5,29,6,1,total,1,images/Ex16.jpg,right,training,easy,7,,,,,
,,,,,5f0788c06b220f03231666a0,001,63,Female,British,postgraduate,2024-02-26_20h26.56.028,CRL1e,2023.2.3,Win32,59.95203837,65dbad3905fde4fe1981dc61,65dcf3dd314e15a955b65841,,,,,,,,,,,136.261,0.9,137.161,137.161,137.927,left,0,0.758,,137.927,138.928,3,6,30,4,1,total,1,images/Ex15.jpg,right,training,easy,7,,,,,
,,,,,5f0788c06b220f03231666a0,001,63,Female,British,postgraduate,2024-02-26_20h26.56.028,CRL1e,2023.2.3,Win32,59.95203837,65dbad3905fde4fe1981dc61,65dcf3dd314e15a955b65841,,,,,,,,,,,138.928,0.9,139.828,139.828,141.127,left,1,1.291,,141.127,142.128,3,7,31,0,1,total,1,images/Ex13.jpg,left,training,easy,7,,,,,
,,,,,5f0788c06b220f03231666a0,001,63,Female,British,postgraduate,2024-02-26_20h26.56.028,CRL1e,2023.2.3,Win32,59.95203837,65dbad3905fde4fe1981dc61,65dcf3dd314e15a955b65841,,,,,,,,,,,142.128,0.7,142.827,142.827,143.894,right,1,1.054,,143.894,144.894,4,0,32,5,1,total,1,images/Ex15.jpg,right,training,easy,7,,,,,
,,,,,5f0788c06b220f03231666a0,001,63,Female,British,postgraduate,2024-02-26_20h26.56.028,CRL1e,2023.2.3,Win32,59.95203837,65dbad3905fde4fe1981dc61,65dcf3dd314e15a955b65841,,,,,,,,,,,144.895,1.2,146.094,146.094,146.794,right,0,0.698,,146.794,147.794,4,1,33,0,1,total,1,images/Ex13.jpg,left,training,easy,7,,,,,
,,,,,5f0788c06b220f03231666a0,001,63,Female,British,postgraduate,2024-02-26_20h26.56.028,CRL1e,2023.2.3,Win32,59.95203837,65dbad3905fde4fe1981dc61,65dcf3dd314e15a955b65841,,,,,,,,,,,147.794,0.7,148.495,148.495,149.01,left,1,0.505,,149.01,150.01,4,2,34,1,1,total,1,images/Ex13.jpg,left,training,easy,7,,,,,
,,,,,5f0788c06b220f03231666a0,001,63,Female,British,postgraduate,2024-02-26_20h26.56.028,CRL1e,2023.2.3,Win32,59.95203837,65dbad3905fde4fe1981dc61,65dcf3dd314e15a955b65841,,,,,,,,,,,150.011,0.8,150.812,150.812,151.327,right,1,0.506,,151.328,152.328,4,3,35,6,1,total,1,images/Ex16.jpg,right,training,easy,7,,,,,
,,,,,5f0788c06b220f03231666a0,001,63,Female,British,postgraduate,2024-02-26_20h26.56.028,CRL1e,2023.2.3,Win32,59.95203837,65dbad3905fde4fe1981dc61,65dcf3dd314e15a955b65841,,,,,,,,,,,152.329,1.4,153.728,153.728,154.493,left,1,0.759,,154.494,155.494,4,4,36,3,1,total,1,images/Ex14.jpg,left,training,easy,7,,,,,
,,,,,5f0788c06b220f03231666a0,001,63,Female,British,postgraduate,2024-02-26_20h26.56.028,CRL1e,2023.2.3,Win32,59.95203837,65dbad3905fde4fe1981dc61,65dcf3dd314e15a955b65841,,,,,,,,,,,155.495,1,156.494,156.494,156.994,right,1,0.488,,156.994,157.994,4,5,37,7,1,total,1,images/Ex16.jpg,right,training,easy,7,,,,,
,,,,,5f0788c06b220f03231666a0,001,63,Female,British,postgraduate,2024-02-26_20h26.56.028,CRL1e,2023.2.3,Win32,59.95203837,65dbad3905fde4fe1981dc61,65dcf3dd314e15a955b65841,,,,,,,,,,,157.995,1.1,159.094,159.094,159.661,left,1,0.554,,159.661,160.66,4,6,38,2,1,total,1,images/Ex14.jpg,left,training,easy,7,,,,,
,,,,,5f0788c06b220f03231666a0,001,63,Female,British,postgraduate,2024-02-26_20h26.56.028,CRL1e,2023.2.3,Win32,59.95203837,65dbad3905fde4fe1981dc61,65dcf3dd314e15a955b65841,,,,,,,,,,,160.661,1.1,161.761,161.761,162.477,left,0,0.704,,162.477,163.478,4,7,39,4,1,total,1,images/Ex15.jpg,right,training,easy,7,,,,,
,,,,,5f0788c06b220f03231666a0,001,63,Female,British,postgraduate,2024-02-26_20h26.56.028,CRL1e,2023.2.3,Win32,59.95203837,65dbad3905fde4fe1981dc61,65dcf3dd314e15a955b65841,,,,,,,,,,,163.478,0.5,163.978,163.978,164.778,left,1,0.799,,164.778,165.777,5,0,40,1,1,total,1,images/Ex13.jpg,left,training,easy,7,,,,,
,,,,,5f0788c06b220f03231666a0,001,63,Female,British,postgraduate,2024-02-26_20h26.56.028,CRL1e,2023.2.3,Win32,59.95203837,65dbad3905fde4fe1981dc61,65dcf3dd314e15a955b65841,,,,,,,,,,,165.778,1.2,166.977,166.977,167.861,left,0,0.871,,167.861,168.861,5,1,41,4,1,total,1,images/Ex15.jpg,right,training,easy,7,,,,,
,,,,,5f0788c06b220f03231666a0,001,63,Female,British,postgraduate,2024-02-26_20h26.56.028,CRL1e,2023.2.3,Win32,59.95203837,65dbad3905fde4fe1981dc61,65dcf3dd314e15a955b65841,,,,,,,,,,,168.861,0.9,169.76,169.761,170.361,right,1,0.59,,170.361,171.361,5,2,42,7,1,total,1,images/Ex16.jpg,right,training,easy,7,,,,,
,,,,,5f0788c06b220f03231666a0,001,63,Female,British,postgraduate,2024-02-26_20h26.56.028,CRL1e,2023.2.3,Win32,59.95203837,65dbad3905fde4fe1981dc61,65dcf3dd314e15a955b65841,,,,,,,,,,,171.362,1.3,172.661,172.661,173.361,right,1,0.688,,173.361,174.36,5,3,43,5,1,total,1,images/Ex15.jpg,right,training,easy,7,,,,,
,,,,,5f0788c06b220f03231666a0,001,63,Female,British,postgraduate,2024-02-26_20h26.56.028,CRL1e,2023.2.3,Win32,59.95203837,65dbad3905fde4fe1981dc61,65dcf3dd314e15a955b65841,,,,,,,,,,,174.361,0.6,174.96,174.96,176.478,left,1,1.504,,176.478,177.478,5,4,44,2,1,total,1,images/Ex14.jpg,left,training,easy,7,,,,,
,,,,,5f0788c06b220f03231666a0,001,63,Female,British,postgraduate,2024-02-26_20h26.56.028,CRL1e,2023.2.3,Win32,59.95203837,65dbad3905fde4fe1981dc61,65dcf3dd314e15a955b65841,,,,,,,,,,,177.478,0.8,178.278,178.278,178.961,right,0,0.673,,178.961,179.961,5,5,45,0,1,total,1,images/Ex13.jpg,left,training,easy,7,,,,,
,,,,,5f0788c06b220f03231666a0,001,63,Female,British,postgraduate,2024-02-26_20h26.56.028,CRL1e,2023.2.3,Win32,59.95203837,65dbad3905fde4fe1981dc61,65dcf3dd314e15a955b65841,,,,,,,,,,,179.961,1.4,181.36,181.36,182.094,right,0,0.727,,182.095,183.094,5,6,46,3,1,total,1,images/Ex14.jpg,left,training,easy,7,,,,,
,,,,,5f0788c06b220f03231666a0,001,63,Female,British,postgraduate,2024-02-26_20h26.56.028,CRL1e,2023.2.3,Win32,59.95203837,65dbad3905fde4fe1981dc61,65dcf3dd314e15a955b65841,,,,,,,,,,,183.094,0.5,183.594,183.594,184.344,right,1,0.738,,184.345,185.344,5,7,47,6,1,total,1,images/Ex16.jpg,right,training,easy,7,,,,,
,,,,,5f0788c06b220f03231666a0,001,63,Female,British,postgraduate,2024-02-26_20h26.56.028,CRL1e,2023.2.3,Win32,59.95203837,65dbad3905fde4fe1981dc61,65dcf3dd314e15a955b65841,,,,,,,,,,,185.349,1.4,186.744,186.744,187.427,left,0,0.672,,187.427,188.428,0,0,0,1,1,total,2,images/Ex13.jpg,right,reversed,easy,7,,,,,
,,,,,5f0788c06b220f03231666a0,001,63,Female,British,postgraduate,2024-02-26_20h26.56.028,CRL1e,2023.2.3,Win32,59.95203837,65dbad3905fde4fe1981dc61,65dcf3dd314e15a955b65841,,,,,,,,,,,188.428,1.5,189.927,189.927,190.927,left,1,0.987,,190.927,191.927,0,1,1,5,1,total,2,images/Ex15.jpg,left,reversed,easy,7,,,,,
,,,,,5f0788c06b220f03231666a0,001,63,Female,British,postgraduate,2024-02-26_20h26.56.028,CRL1e,2023.2.3,Win32,59.95203837,65dbad3905fde4fe1981dc61,65dcf3dd314e15a955b65841,,,,,,,,,,,191.928,0.6,192.527,192.527,193.261,left,0,0.729,,193.261,194.26,0,2,2,2,1,total,2,images/Ex14.jpg,right,reversed,easy,7,,,,,
,,,,,5f0788c06b220f03231666a0,001,63,Female,British,postgraduate,2024-02-26_20h26.56.028,CRL1e,2023.2.3,Win32,59.95203837,65dbad3905fde4fe1981dc61,65dcf3dd314e15a955b65841,,,,,,,,,,,194.261,0.8,195.061,195.061,195.861,right,1,0.788,,195.861,196.861,0,3,3,3,1,total,2,images/Ex14.jpg,right,reversed,easy,7,,,,,
,,,,,5f0788c06b220f03231666a0,001,63,Female,British,postgraduate,2024-02-26_20h26.56.028,CRL1e,2023.2.3,Win32,59.95203837,65dbad3905fde4fe1981dc61,65dcf3dd314e15a955b65841,,,,,,,,,,,196.862,0.5,197.361,197.361,198.461,right,1,1.096,,198.461,199.46,0,4,4,0,1,total,2,images/Ex13.jpg,right,reversed,easy,7,,,,,
,,,,,5f0788c06b220f03231666a0,001,63,Female,British,postgraduate,2024-02-26_20h26.56.028,CRL1e,2023.2.3,Win32,59.95203837,65dbad3905fde4fe1981dc61,65dcf3dd314e15a955b65841,,,,,,,,,,,199.461,1,200.461,200.461,200.978,right,0,0.505,,200.978,201.977,0,5,5,6,1,total,2,images/Ex16.jpg,left,reversed,easy,7,,,,,
,,,,,5f0788c06b220f03231666a0,001,63,Female,British,postgraduate,2024-02-26_20h26.56.028,CRL1e,2023.2.3,Win32,59.95203837,65dbad3905fde4fe1981dc61,65dcf3dd314e15a955b65841,,,,,,,,,,,201.978,1.3,203.277,203.277,204.127,left,1,0.842,,204.127,205.127,0,6,6,4,1,total,2,images/Ex15.jpg,left,reversed,easy,7,,,,,
,,,,,5f0788c06b220f03231666a0,001,63,Female,British,postgraduate,2024-02-26_20h26.56.028,CRL1e,2023.2.3,Win32,59.95203837,65dbad3905fde4fe1981dc61,65dcf3dd314e15a955b65841,,,,,,,,,,,205.128,0.7,205.828,205.828,206.545,right,0,0.704,,206.545,207.544,0,7,7,7,1,total,2,images/Ex16.jpg,left,reversed,easy,7,,,,,
,,,,,5f0788c06b220f03231666a0,001,63,Female,British,postgraduate,2024-02-26_20h26.56.028,CRL1e,2023.2.3,Win32,59.95203837,65dbad3905fde4fe1981dc61,65dcf3dd314e15a955b65841,,,,,,,,,,,207.544,1.1,208.643,208.643,209.477,left,0,0.829,,209.477,210.477,1,0,8,3,1,total,2,images/Ex14.jpg,right,reversed,easy,7,,,,,
,,,,,5f0788c06b220f03231666a0,001,63,Female,British,postgraduate,2024-02-26_20h26.56.028,CRL1e,2023.2.3,Win32,59.95203837,65dbad3905fde4fe1981dc61,65dcf3dd314e15a955b65841,,,,,,,,,,,210.479,0.5,210.977,210.977,211.794,right,0,0.806,,211.794,212.794,1,1,9,5,1,total,2,images/Ex15.jpg,left,reversed,easy,7,,,,,
,,,,,5f0788c06b220f03231666a0,001,63,Female,British,postgraduate,2024-02-26_20h26.56.028,CRL1e,2023.2.3,Win32,59.95203837,65dbad3905fde4fe1981dc61,65dcf3dd314e15a955b65841,,,,,,,,,,,212.794,1.1,213.894,213.894,214.844,left,1,0.937,,214.844,215.845,1,2,10,7,1,total,2,images/Ex16.jpg,left,reversed,easy,7,,,,,
,,,,,5f0788c06b220f03231666a0,001,63,Female,British,postgraduate,2024-02-26_20h26.56.028,CRL1e,2023.2.3,Win32,59.95203837,65dbad3905fde4fe1981dc61,65dcf3dd314e15a955b65841,,,,,,,,,,,215.845,1.3,217.144,217.144,218.179,left,1,1.023,,218.179,219.177,1,3,11,4,1,total,2,images/Ex15.jpg,left,reversed,easy,7,,,,,
,,,,,5f0788c06b220f03231666a0,001,63,Female,British,postgraduate,2024-02-26_20h26.56.028,CRL1e,2023.2.3,Win32,59.95203837,65dbad3905fde4fe1981dc61,65dcf3dd314e15a955b65841,,,,,,,,,,,219.179,1.3,220.477,220.477,221.177,left,1,0.689,,221.177,222.178,1,4,12,6,1,total,2,images/Ex16.jpg,left,reversed,easy,7,,,,,
,,,,,5f0788c06b220f03231666a0,001,63,Female,British,postgraduate,2024-02-26_20h26.56.028,CRL1e,2023.2.3,Win32,59.95203837,65dbad3905fde4fe1981dc61,65dcf3dd314e15a955b65841,,,,,,,,,,,222.179,0.5,222.678,222.678,223.727,left,0,1.041,,223.727,224.728,1,5,13,1,1,total,2,images/Ex13.jpg,right,reversed,easy,7,,,,,
,,,,,5f0788c06b220f03231666a0,001,63,Female,British,postgraduate,2024-02-26_20h26.56.028,CRL1e,2023.2.3,Win32,59.95203837,65dbad3905fde4fe1981dc61,65dcf3dd314e15a955b65841,,,,,,,,,,,224.728,0.8,225.527,225.527,226.044,right,1,0.512,,226.044,227.044,1,6,14,0,1,total,2,images/Ex13.jpg,right,reversed,easy,7,,,,,
,,,,,5f0788c06b220f03231666a0,001,63,Female,British,postgraduate,2024-02-26_20h26.56.028,CRL1e,2023.2.3,Win32,59.95203837,65dbad3905fde4fe1981dc61,65dcf3dd314e15a955b65841,,,,,,,,,,,227.045,1.2,228.244,228.244,229.328,right,1,1.071,,229.328,230.327,1,7,15,2,1,total,2,images/Ex14.jpg,right,reversed,easy,7,,,,,
,,,,,5f0788c06b220f03231666a0,001,63,Female,British,postgraduate,2024-02-26_20h26.56.028,CRL1e,2023.2.3,Win32,59.95203837,65dbad3905fde4fe1981dc61,65dcf3dd314e15a955b65841,,,,,,,,,,,230.328,1.1,231.427,231.427,232.011,right,1,0.572,,232.011,233.011,2,0,16,3,1,total,2,images/Ex14.jpg,right,reversed,easy,7,,,,,
,,,,,5f0788c06b220f03231666a0,001,63,Female,British,postgraduate,2024-02-26_20h26.56.028,CRL1e,2023.2.3,Win32,59.95203837,65dbad3905fde4fe1981dc61,65dcf3dd314e15a955b65841,,,,,,,,,,,233.011,1.4,234.411,234.411,234.861,left,1,0.437,,234.861,235.86,2,1,17,7,1,total,2,images/Ex16.jpg,left,reversed,easy,7,,,,,
,,,,,5f0788c06b220f03231666a0,001,63,Female,British,postgraduate,2024-02-26_20h26.56.028,CRL1e,2023.2.3,Win32,59.95203837,65dbad3905fde4fe1981dc61,65dcf3dd314e15a955b65841,,,,,,,,,,,235.861,1,236.86,236.86,237.343,left,1,0.47,,237.343,238.343,2,2,18,6,1,total,2,images/Ex16.jpg,left,reversed,easy,7,,,,,
,,,,,5f0788c06b220f03231666a0,001,63,Female,British,postgraduate,2024-02-26_20h26.56.028,CRL1e,2023.2.3,Win32,59.95203837,65dbad3905fde4fe1981dc61,65dcf3dd314e15a955b65841,,,,,,,,,,,238.344,0.6,238.943,238.943,239.845,right,1,0.889,,239.845,240.845,2,3,19,1,1,total,2,images/Ex13.jpg,right,reversed,easy,7,,,,,
,,,,,5f0788c06b220f03231666a0,001,63,Female,British,postgraduate,2024-02-26_20h26.56.028,CRL1e,2023.2.3,Win32,59.95203837,65dbad3905fde4fe1981dc61,65dcf3dd314e15a955b65841,,,,,,,,,,,240.846,1,241.845,241.845,242.643,right,0,0.794,,242.644,243.644,2,4,20,4,1,total,2,images/Ex15.jpg,left,reversed,easy,7,,,,,
,,,,,5f0788c06b220f03231666a0,001,63,Female,British,postgraduate,2024-02-26_20h26.56.028,CRL1e,2023.2.3,Win32,59.95203837,65dbad3905fde4fe1981dc61,65dcf3dd314e15a955b65841,,,,,,,,,,,243.645,0.8,244.444,244.444,245.394,left,0,0.948,,245.394,246.394,2,5,21,0,1,total,2,images/Ex13.jpg,right,reversed,easy,7,,,,,
,,,,,5f0788c06b220f03231666a0,001,63,Female,British,postgraduate,2024-02-26_20h26.56.028,CRL1e,2023.2.3,Win32,59.95203837,65dbad3905fde4fe1981dc61,65dcf3dd314e15a955b65841,,,,,,,,,,,246.395,1.3,247.695,247.695,248.494,right,1,0.786,,248.494,249.494,2,6,22,2,1,total,2,images/Ex14.jpg,right,reversed,easy,7,,,,,
,,,,,5f0788c06b220f03231666a0,001,63,Female,British,postgraduate,2024-02-26_20h26.56.028,CRL1e,2023.2.3,Win32,59.95203837,65dbad3905fde4fe1981dc61,65dcf3dd314e15a955b65841,,,,,,,,,,,249.494,1.4,250.895,250.895,251.661,right,0,0.752,,251.661,252.661,2,7,23,5,1,total,2,images/Ex15.jpg,left,reversed,easy,7,,,,,
,,,,,5f0788c06b220f03231666a0,001,63,Female,British,postgraduate,2024-02-26_20h26.56.028,CRL1e,2023.2.3,Win32,59.95203837,65dbad3905fde4fe1981dc61,65dcf3dd314e15a955b65841,,,,,,,,,,,252.662,0.7,253.361,253.361,253.927,left,1,0.559,,253.927,254.927,3,0,24,4,1,total,2,images/Ex15.jpg,left,reversed,easy,7,,,,,
,,,,,5f0788c06b220f03231666a0,001,63,Female,British,postgraduate,2024-02-26_20h26.56.028,CRL1e,2023.2.3,Win32,59.95203837,65dbad3905fde4fe1981dc61,65dcf3dd314e15a955b65841,,,,,,,,,,,254.928,1.4,256.327,256.327,257.044,left,0,0.704,,257.044,258.043,3,1,25,3,1,total,2,images/Ex14.jpg,right,reversed,easy,7,,,,,
,,,,,5f0788c06b220f03231666a0,001,63,Female,British,postgraduate,2024-02-26_20h26.56.028,CRL1e,2023.2.3,Win32,59.95203837,65dbad3905fde4fe1981dc61,65dcf3dd314e15a955b65841,,,,,,,,,,,258.045,0.7,258.744,258.744,260.027,left,0,1.279,,260.027,261.028,3,2,26,0,1,total,2,images/Ex13.jpg,right,reversed,easy,7,,,,,
,,,,,5f0788c06b220f03231666a0,001,63,Female,British,postgraduate,2024-02-26_20h26.56.028,CRL1e,2023.2.3,Win32,59.95203837,65dbad3905fde4fe1981dc61,65dcf3dd314e15a955b65841,,,,,,,,,,,261.029,0.7,261.727,261.727,262.561,right,0,0.821,,262.561,263.561,3,3,27,5,1,total,2,images/Ex15.jpg,left,reversed,easy,7,,,,,
,,,,,5f0788c06b220f03231666a0,001,63,Female,British,postgraduate,2024-02-26_20h26.56.028,CRL1e,2023.2.3,Win32,59.95203837,65dbad3905fde4fe1981dc61,65dcf3dd314e15a955b65841,,,,,,,,,,,263.562,1.2,264.76,264.76,265.212,left,1,0.438,,265.212,266.211,3,4,28,6,1,total,2,images/Ex16.jpg,left,reversed,easy,7,,,,,
,,,,,5f0788c06b220f03231666a0,001,63,Female,British,postgraduate,2024-02-26_20h26.56.028,CRL1e,2023.2.3,Win32,59.95203837,65dbad3905fde4fe1981dc61,65dcf3dd314e15a955b65841,,,,,,,,,,,266.211,0.5,266.711,266.711,267.444,left,0,0.729,,267.444,268.443,3,5,29,1,1,total,2,images/Ex13.jpg,right,reversed,easy,7,,,,,
,,,,,5f0788c06b220f03231666a0,001,63,Female,British,postgraduate,2024-02-26_20h26.56.028,CRL1e,2023.2.3,Win32,59.95203837,65dbad3905fde4fe1981dc61,65dcf3dd314e15a955b65841,,,,,,,,,,,268.444,0.6,269.044,269.044,269.826,left,0,0.78,,269.826,270.827,3,6,30,2,1,total,2,images/Ex14.jpg,right,reversed,easy,7,,,,,
,,,,,5f0788c06b220f03231666a0,001,63,Female,British,postgraduate,2024-02-26_20h26.56.028,CRL1e,2023.2.3,Win32,59.95203837,65dbad3905fde4fe1981dc61,65dcf3dd314e15a955b65841,,,,,,,,,,,270.828,0.8,271.627,271.627,272.444,left,1,0.812,,272.444,273.444,3,7,31,7,1,total,2,images/Ex16.jpg,left,reversed,easy,7,,,,,
,,,,,5f0788c06b220f03231666a0,001,63,Female,British,postgraduate,2024-02-26_20h26.56.028,CRL1e,2023.2.3,Win32,59.95203837,65dbad3905fde4fe1981dc61,65dcf3dd314e15a955b65841,,,,,,,,,,,273.445,1,274.444,274.444,275.427,right,0,0.972,,275.427,276.427,4,0,32,4,1,total,2,images/Ex15.jpg,left,reversed,easy,7,,,,,
,,,,,5f0788c06b220f03231666a0,001,63,Female,British,postgraduate,2024-02-26_20h26.56.028,CRL1e,2023.2.3,Win32,59.95203837,65dbad3905fde4fe1981dc61,65dcf3dd314e15a955b65841,,,,,,,,,,,276.428,1,277.427,277.427,278.261,left,1,0.822,,278.261,279.26,4,1,33,6,1,total,2,images/Ex16.jpg,left,reversed,easy,7,,,,,
,,,,,5f0788c06b220f03231666a0,001,63,Female,British,postgraduate,2024-02-26_20h26.56.028,CRL1e,2023.2.3,Win32,59.95203837,65dbad3905fde4fe1981dc61,65dcf3dd314e15a955b65841,,,,,,,,,,,279.261,1.2,280.46,280.46,281.21,left,0,0.747,,281.21,282.21,4,2,34,0,1,total,2,images/Ex13.jpg,right,reversed,easy,7,,,,,
,,,,,5f0788c06b220f03231666a0,001,63,Female,British,postgraduate,2024-02-26_20h26.56.028,CRL1e,2023.2.3,Win32,59.95203837,65dbad3905fde4fe1981dc61,65dcf3dd314e15a955b65841,,,,,,,,,,,282.21,0.8,283.011,283.011,283.71,right,1,0.692,,283.71,284.711,4,3,35,1,1,total,2,images/Ex13.jpg,right,reversed,easy,7,,,,,
,,,,,5f0788c06b220f03231666a0,001,63,Female,British,postgraduate,2024-02-26_20h26.56.028,CRL1e,2023.2.3,Win32,59.95203837,65dbad3905fde4fe1981dc61,65dcf3dd314e15a955b65841,,,,,,,,,,,284.714,0.9,285.611,285.611,286.311,left,1,0.693,,286.311,287.31,4,4,36,7,1,total,2,images/Ex16.jpg,left,reversed,easy,7,,,,,
,,,,,5f0788c06b220f03231666a0,001,63,Female,British,postgraduate,2024-02-26_20h26.56.028,CRL1e,2023.2.3,Win32,59.95203837,65dbad3905fde4fe1981dc61,65dcf3dd314e15a955b65841,,,,,,,,,,,287.31,1,288.31,288.311,288.977,right,1,0.664,,288.977,289.977,4,5,37,3,1,total,2,images/Ex14.jpg,right,reversed,easy,7,,,,,
,,,,,5f0788c06b220f03231666a0,001,63,Female,British,postgraduate,2024-02-26_20h26.56.028,CRL1e,2023.2.3,Win32,59.95203837,65dbad3905fde4fe1981dc61,65dcf3dd314e15a955b65841,,,,,,,,,,,289.978,0.8,290.777,290.777,291.51,right,0,0.721,,291.51,292.51,4,6,38,5,1,total,2,images/Ex15.jpg,left,reversed,easy,7,,,,,
,,,,,5f0788c06b220f03231666a0,001,63,Female,British,postgraduate,2024-02-26_20h26.56.028,CRL1e,2023.2.3,Win32,59.95203837,65dbad3905fde4fe1981dc61,65dcf3dd314e15a955b65841,,,,,,,,,,,292.511,1.1,293.61,293.611,294.561,right,1,0.949,,294.561,295.56,4,7,39,2,1,total,2,images/Ex14.jpg,right,reversed,easy,7,,,,,
,,,,,5f0788c06b220f03231666a0,001,63,Female,British,postgraduate,2024-02-26_20h26.56.028,CRL1e,2023.2.3,Win32,59.95203837,65dbad3905fde4fe1981dc61,65dcf3dd314e15a955b65841,,,,,,,,,,,295.561,1.2,296.76,296.76,297.544,left,1,0.775,,297.544,298.543,5,0,40,5,1,total,2,images/Ex15.jpg,left,reversed,easy,7,,,,,
,,,,,5f0788c06b220f03231666a0,001,63,Female,British,postgraduate,2024-02-26_20h26.56.028,CRL1e,2023.2.3,Win32,59.95203837,65dbad3905fde4fe1981dc61,65dcf3dd314e15a955b65841,,,,,,,,,,,298.544,1.5,300.044,300.044,300.761,left,1,0.706,,300.761,301.761,5,1,41,4,1,total,2,images/Ex15.jpg,left,reversed,easy,7,,,,,
,,,,,5f0788c06b220f03231666a0,001,63,Female,British,postgraduate,2024-02-26_20h26.56.028,CRL1e,2023.2.3,Win32,59.95203837,65dbad3905fde4fe1981dc61,65dcf3dd314e15a955b65841,,,,,,,,,,,301.761,1,302.761,302.761,303.693,left,0,0.921,,303.693,304.693,5,2,42,0,1,total,2,images/Ex13.jpg,right,reversed,easy,7,,,,,
,,,,,5f0788c06b220f03231666a0,001,63,Female,British,postgraduate,2024-02-26_20h26.56.028,CRL1e,2023.2.3,Win32,59.95203837,65dbad3905fde4fe1981dc61,65dcf3dd314e15a955b65841,,,,,,,,,,,304.694,0.6,305.294,305.294,306.477,left,0,1.172,,306.477,307.477,5,3,43,2,1,total,2,images/Ex14.jpg,right,reversed,easy,7,,,,,
,,,,,5f0788c06b220f03231666a0,001,63,Female,British,postgraduate,2024-02-26_20h26.56.028,CRL1e,2023.2.3,Win32,59.95203837,65dbad3905fde4fe1981dc61,65dcf3dd314e15a955b65841,,,,,,,,,,,307.477,0.8,308.277,308.277,309.227,left,0,0.938,,309.227,310.227,5,4,44,1,1,total,2,images/Ex13.jpg,right,reversed,easy,7,,,,,
,,,,,5f0788c06b220f03231666a0,001,63,Female,British,postgraduate,2024-02-26_20h26.56.028,CRL1e,2023.2.3,Win32,59.95203837,65dbad3905fde4fe1981dc61,65dcf3dd314e15a955b65841,,,,,,,,,,,310.228,0.7,310.927,310.927,311.744,left,1,0.804,,311.744,312.743,5,5,45,7,1,total,2,images/Ex16.jpg,left,reversed,easy,7,,,,,
,,,,,5f0788c06b220f03231666a0,001,63,Female,British,postgraduate,2024-02-26_20h26.56.028,CRL1e,2023.2.3,Win32,59.95203837,65dbad3905fde4fe1981dc61,65dcf3dd314e15a955b65841,,,,,,,,,,,312.744,1.4,314.143,314.143,314.743,left,1,0.588,,314.744,315.743,5,6,46,6,1,total,2,images/Ex16.jpg,left,reversed,easy,7,,,,,
,,,,,5f0788c06b220f03231666a0,001,63,Female,British,postgraduate,2024-02-26_20h26.56.028,CRL1e,2023.2.3,Win32,59.95203837,65dbad3905fde4fe1981dc61,65dcf3dd314e15a955b65841,,,,,,,,,,,315.743,1.3,317.043,317.043,317.761,right,1,0.715,,317.762,318.76,5,7,47,3,1,total,2,images/Ex14.jpg,right,reversed,easy,7,,,,,
,,,,,5f0788c06b220f03231666a0,001,63,Female,British,postgraduate,2024-02-26_20h26.56.028,CRL1e,2023.2.3,Win32,59.95203837,65dbad3905fde4fe1981dc61,65dcf3dd314e15a955b65841,,,,,,318.763,323.094,space,4.319,,323.099,1.1,324.194,324.194,325.477,left,0,1.277,,325.477,326.477,0,0,0,6,1,partial,1,images/Ex12.jpg,right,training,easy,7,,,,,
,,,,,5f0788c06b220f03231666a0,001,63,Female,British,postgraduate,2024-02-26_20h26.56.028,CRL1e,2023.2.3,Win32,59.95203837,65dbad3905fde4fe1981dc61,65dcf3dd314e15a955b65841,,,,,,,,,,,326.477,0.9,327.377,327.377,328.461,left,1,1.071,,328.461,329.461,0,1,1,3,1,partial,1,images/Ex10.jpg,left,training,easy,7,,,,,
,,,,,5f0788c06b220f03231666a0,001,63,Female,British,postgraduate,2024-02-26_20h26.56.028,CRL1e,2023.2.3,Win32,59.95203837,65dbad3905fde4fe1981dc61,65dcf3dd314e15a955b65841,,,,,,,,,,,329.461,0.6,330.06,330.06,331.11,left,1,1.043,,331.11,332.111,0,2,2,0,1,partial,1,images/Ex9.jpg,left,training,easy,7,,,,,
,,,,,5f0788c06b220f03231666a0,001,63,Female,British,postgraduate,2024-02-26_20h26.56.028,CRL1e,2023.2.3,Win32,59.95203837,65dbad3905fde4fe1981dc61,65dcf3dd314e15a955b65841,,,,,,,,,,,332.112,1.2,333.31,333.31,333.827,left,1,0.512,,333.827,334.827,0,3,3,2,1,partial,1,images/Ex10.jpg,left,training,easy,7,,,,,
,,,,,5f0788c06b220f03231666a0,001,63,Female,British,postgraduate,2024-02-26_20h26.56.028,CRL1e,2023.2.3,Win32,59.95203837,65dbad3905fde4fe1981dc61,65dcf3dd314e15a955b65841,,,,,,,,,,,334.828,1.2,336.027,336.027,337.094,left,0,1.06,,337.094,338.094,0,4,4,4,1,partial,1,images/Ex11.jpg,right,training,easy,7,,,,,
,,,,,5f0788c06b220f03231666a0,001,63,Female,British,postgraduate,2024-02-26_20h26.56.028,CRL1e,2023.2.3,Win32,59.95203837,65dbad3905fde4fe1981dc61,65dcf3dd314e15a955b65841,,,,,,,,,,,338.094,1.3,339.394,339.394,339.91,right,1,0.51,,339.91,340.91,0,5,5,5,1,partial,1,images/Ex11.jpg,right,training,easy,7,,,,,
,,,,,5f0788c06b220f03231666a0,001,63,Female,British,postgraduate,2024-02-26_20h26.56.028,CRL1e,2023.2.3,Win32,59.95203837,65dbad3905fde4fe1981dc61,65dcf3dd314e15a955b65841,,,,,,,,,,,340.912,0.7,341.61,341.61,342.61,left,1,0.996,,342.61,343.611,0,6,6,1,1,partial,1,images/Ex9.jpg,left,training,easy,7,,,,,
,,,,,5f0788c06b220f03231666a0,001,63,Female,British,postgraduate,2024-02-26_20h26.56.028,CRL1e,2023.2.3,Win32,59.95203837,65dbad3905fde4fe1981dc61,65dcf3dd314e15a955b65841,,,,,,,,,,,343.612,0.9,344.51,344.51,345.91,right,1,1.388,,345.91,346.91,0,7,7,7,1,partial,1,images/Ex12.jpg,right,training,easy,7,,,,,
,,,,,5f0788c06b220f03231666a0,001,63,Female,British,postgraduate,2024-02-26_20h26.56.028,CRL1e,2023.2.3,Win32,59.95203837,65dbad3905fde4fe1981dc61,65dcf3dd314e15a955b65841,,,,,,,,,,,346.911,1.5,348.41,348.41,349.21,right,0,0.796,,349.21,350.21,1,0,8,0,1,partial,1,images/Ex9.jpg,left,training,easy,7,,,,,
,,,,,5f0788c06b220f03231666a0,001,63,Female,British,postgraduate,2024-02-26_20h26.56.028,CRL1e,2023.2.3,Win32,59.95203837,65dbad3905fde4fe1981dc61,65dcf3dd314e15a955b65841,,,,,,,,,,,350.211,0.5,350.71,350.71,351.461,right,1,0.746,,351.461,352.46,1,1,9,7,1,partial,1,images/Ex12.jpg,right,training,easy,7,,,,,
,,,,,5f0788c06b220f03231666a0,001,63,Female,British,postgraduate,2024-02-26_20h26.56.028,CRL1e,2023.2.3,Win32,59.95203837,65dbad3905fde4fe1981dc61,65dcf3dd314e15a955b65841,,,,,,,,,,,352.462,0.5,352.961,352.961,354.51,left,1,1.535,,354.51,355.51,1,2,10,2,1,partial,1,images/Ex10.jpg,left,training,easy,7,,,,,
,,,,,5f0788c06b220f03231666a0,001,63,Female,British,postgraduate,2024-02-26_20h26.56.028,CRL1e,2023.2.3,Win32,59.95203837,65dbad3905fde4fe1981dc61,65dcf3dd314e15a955b65841,,,,,,,,,,,355.511,0.9,356.41,356.41,357.627,left,1,1.205,,357.627,358.627,1,3,11,1,1,partial,1,images/Ex9.jpg,left,training,easy,7,,,,,
,,,,,5f0788c06b220f03231666a0,001,63,Female,British,postgraduate,2024-02-26_20h26.56.028,CRL1e,2023.2.3,Win32,59.95203837,65dbad3905fde4fe1981dc61,65dcf3dd314e15a955b65841,,,,,,,,,,,358.628,0.9,359.527,359.527,360.21,left,1,0.672,,360.211,361.21,1,4,12,3,1,partial,1,images/Ex10.jpg,left,training,easy,7,,,,,
,,,,,5f0788c06b220f03231666a0,001,63,Female,British,postgraduate,2024-02-26_20h26.56.028,CRL1e,2023.2.3,Win32,59.95203837,65dbad3905fde4fe1981dc61,65dcf3dd314e15a955b65841,,,,,,,,,,,361.211,1.5,362.71,362.71,363.594,right,1,0.881,,363.594,364.594,1,5,13,4,1,partial,1,images/Ex11.jpg,right,training,easy,7,,,,,
,,,,,5f0788c06b220f03231666a0,001,63,Female,British,postgraduate,2024-02-26_20h26.56.028,CRL1e,2023.2.3,Win32,59.95203837,65dbad3905fde4fe1981dc61,65dcf3dd314e15a955b65841,,,,,,,,,,,364.594,1.2,365.794,365.794,366.261,right,1,0.462,,366.261,367.26,1,6,14,5,1,partial,1,images/Ex11.jpg,right,training,easy,7,,,,,
,,,,,5f0788c06b220f03231666a0,001,63,Female,British,postgraduate,2024-02-26_20h26.56.028,CRL1e,2023.2.3,Win32,59.95203837,65dbad3905fde4fe1981dc61,65dcf3dd314e15a955b65841,,,,,,,,,,,367.261,0.6,367.86,367.86,368.943,right,1,1.076,,368.943,369.943,1,7,15,6,1,partial,1,images/Ex12.jpg,right,training,easy,7,,,,,
,,,,,5f0788c06b220f03231666a0,001,63,Female,British,postgraduate,2024-02-26_20h26.56.028,CRL1e,2023.2.3,Win32,59.95203837,65dbad3905fde4fe1981dc61,65dcf3dd314e15a955b65841,,,,,,,,,,,369.945,0.9,370.844,370.844,371.51,right,1,0.661,,371.51,372.51,2,0,16,6,1,partial,1,images/Ex12.jpg,right,training,easy,7,,,,,
,,,,,5f0788c06b220f03231666a0,001,63,Female,British,postgraduate,2024-02-26_20h26.56.028,CRL1e,2023.2.3,Win32,59.95203837,65dbad3905fde4fe1981dc61,65dcf3dd314e15a955b65841,,,,,,,,,,,372.511,1.1,373.61,373.61,374.527,right,1,0.909,,374.527,375.527,2,1,17,4,1,partial,1,images/Ex11.jpg,right,training,easy,7,,,,,
,,,,,5f0788c06b220f03231666a0,001,63,Female,British,postgraduate,2024-02-26_20h26.56.028,CRL1e,2023.2.3,Win32,59.95203837,65dbad3905fde4fe1981dc61,65dcf3dd314e15a955b65841,,,,,,,,,,,375.527,1.2,376.728,376.728,377.26,right,1,0.527,,377.26,378.26,2,2,18,5,1,partial,1,images/Ex11.jpg,right,training,easy,7,,,,,
,,,,,5f0788c06b220f03231666a0,001,63,Female,British,postgraduate,2024-02-26_20h26.56.028,CRL1e,2023.2.3,Win32,59.95203837,65dbad3905fde4fe1981dc61,65dcf3dd314e15a955b65841,,,,,,,,,,,378.26,1.3,379.56,379.56,380.294,left,1,0.72,,380.294,381.294,2,3,19,2,1,partial,1,images/Ex10.jpg,left,training,easy,7,,,,,
,,,,,5f0788c06b220f03231666a0,001,63,Female,British,postgraduate,2024-02-26_20h26.56.028,CRL1e,2023.2.3,Win32,59.95203837,65dbad3905fde4fe1981dc61,65dcf3dd314e15a955b65841,,,,,,,,,,,381.294,0.9,382.193,382.193,382.677,left,1,0.479,,382.677,383.676,2,4,20,3,1,partial,1,images/Ex10.jpg,left,training,easy,7,,,,,
,,,,,5f0788c06b220f03231666a0,001,63,Female,British,postgraduate,2024-02-26_20h26.56.028,CRL1e,2023.2.3,Win32,59.95203837,65dbad3905fde4fe1981dc61,65dcf3dd314e15a955b65841,,,,,,,,,,,383.677,0.8,384.476,384.476,386.111,left,1,1.623,,386.111,387.11,2,5,21,1,1,partial,1,images/Ex9.jpg,left,training,easy,7,,,,,
,,,,,5f0788c06b220f03231666a0,001,63,Female,British,postgraduate,2024-02-26_20h26.56.028,CRL1e,2023.2.3,Win32,59.95203837,65dbad3905fde4fe1981dc61,65dcf3dd314e15a955b65841,,,,,,,,,,,387.112,0.9,388.01,388.01,389.094,right,1,1.077,,389.094,390.094,2,6,22,7,1,partial,1,images/Ex12.jpg,right,training,easy,7,,,,,
,,,,,5f0788c06b220f03231666a0,001,63,Female,British,postgraduate,2024-02-26_20h26.56.028,CRL1e,2023.2.3,Win32,59.95203837,65dbad3905fde4fe1981dc61,65dcf3dd314e15a955b65841,,,,,,,,,,,390.095,0.7,390.794,390.794,391.61,left,1,0.804,,391.61,392.61,2,7,23,0,1,partial,1,images/Ex9.jpg,left,training,easy,7,,,,,
,,,,,5f0788c06b220f03231666a0,001,63,Female,British,postgraduate,2024-02-26_20h26.56.028,CRL1e,2023.2.3,Win32,59.95203837,65dbad3905fde4fe1981dc61,65dcf3dd314e15a955b65841,,,,,,,,,,,392.611,0.9,393.51,393.51,394.093,right,1,0.57,,394.093,395.094,3,0,24,5,1,partial,1,images/Ex11.jpg,right,training,easy,7,,,,,
,,,,,5f0788c06b220f03231666a0,001,63,Female,British,postgraduate,2024-02-26_20h26.56.028,CRL1e,2023.2.3,Win32,59.95203837,65dbad3905fde4fe1981dc61,65dcf3dd314e15a955b65841,,,,,,,,,,,395.094,1.1,396.194,396.194,397.41,left,0,1.205,,397.41,398.411,3,1,25,6,1,partial,1,images/Ex12.jpg,right,training,easy,7,,,,,
,,,,,5f0788c06b220f03231666a0,001,63,Female,British,postgraduate,2024-02-26_20h26.56.028,CRL1e,2023.2.3,Win32,59.95203837,65dbad3905fde4fe1981dc61,65dcf3dd314e15a955b65841,,,,,,,,,,,398.412,0.8,399.21,399.21,400.026,left,1,0.804,,400.026,401.027,3,2,26,0,1,partial,1,images/Ex9.jpg,left,training,easy,7,,,,,
,,,,,5f0788c06b220f03231666a0,001,63,Female,British,postgraduate,2024-02-26_20h26.56.028,CRL1e,2023.2.3,Win32,59.95203837,65dbad3905fde4fe1981dc61,65dcf3dd314e15a955b65841,,,,,,,,,,,401.027,0.6,401.626,401.626,402.31,right,1,0.671,,402.31,403.31,3,3,27,4,1,partial,1,images/Ex11.jpg,right,training,easy,7,,,,,
,,,,,5f0788c06b220f03231666a0,001,63,Female,British,postgraduate,2024-02-26_20h26.56.028,CRL1e,2023.2.3,Win32,59.95203837,65dbad3905fde4fe1981dc61,65dcf3dd314e15a955b65841,,,,,,,,,,,403.31,0.7,404.01,404.01,404.927,left,1,0.904,,404.927,405.927,3,4,28,1,1,partial,1,images/Ex9.jpg,left,training,easy,7,,,,,
,,,,,5f0788c06b220f03231666a0,001,63,Female,British,postgraduate,2024-02-26_20h26.56.028,CRL1e,2023.2.3,Win32,59.95203837,65dbad3905fde4fe1981dc61,65dcf3dd314e15a955b65841,,,,,,,,,,,405.927,0.9,406.827,406.827,407.494,left,1,0.654,,407.494,408.493,3,5,29,3,1,partial,1,images/Ex10.jpg,left,training,easy,7,,,,,
,,,,,5f0788c06b220f03231666a0,001,63,Female,British,postgraduate,2024-02-26_20h26.56.028,CRL1e,2023.2.3,Win32,59.95203837,65dbad3905fde4fe1981dc61,65dcf3dd314e15a955b65841,,,,,,,,,,,408.494,1.5,409.994,409.994,410.577,left,1,0.573,,410.577,411.577,3,6,30,2,1,partial,1,images/Ex10.jpg,left,training,easy,7,,,,,
,,,,,5f0788c06b220f03231666a0,001,63,Female,British,postgraduate,2024-02-26_20h26.56.028,CRL1e,2023.2.3,Win32,59.95203837,65dbad3905fde4fe1981dc61,65dcf3dd314e15a955b65841,,,,,,,,,,,411.577,1.2,412.776,412.776,413.477,right,1,0.694,,413.477,414.477,3,7,31,7,1,partial,1,images/Ex12.jpg,right,training,easy,7,,,,,
,,,,,5f0788c06b220f03231666a0,001,63,Female,British,postgraduate,2024-02-26_20h26.56.028,CRL1e,2023.2.3,Win32,59.95203837,65dbad3905fde4fe1981dc61,65dcf3dd314e15a955b65841,,,,,,,,,,,414.477,0.9,415.377,415.377,415.96,right,1,0.574,,415.961,416.96,4,0,32,6,1,partial,1,images/Ex12.jpg,right,training,easy,7,,,,,
,,,,,5f0788c06b220f03231666a0,001,63,Female,British,postgraduate,2024-02-26_20h26.56.028,CRL1e,2023.2.3,Win32,59.95203837,65dbad3905fde4fe1981dc61,65dcf3dd314e15a955b65841,,,,,,,,,,,416.96,1.5,418.461,418.462,419.077,right,1,0.6,,419.077,420.077,4,1,33,5,1,partial,1,images/Ex11.jpg,right,training,easy,7,,,,,
,,,,,5f0788c06b220f03231666a0,001,63,Female,British,postgraduate,2024-02-26_20h26.56.028,CRL1e,2023.2.3,Win32,59.95203837,65dbad3905fde4fe1981dc61,65dcf3dd314e15a955b65841,,,,,,,,,,,420.078,1.2,421.277,421.277,421.86,left,1,0.571,,421.86,422.86,4,2,34,3,1,partial,1,images/Ex10.jpg,left,training,easy,7,,,,,
,,,,,5f0788c06b220f03231666a0,001,63,Female,British,postgraduate,2024-02-26_20h26.56.028,CRL1e,2023.2.3,Win32,59.95203837,65dbad3905fde4fe1981dc61,65dcf3dd314e15a955b65841,,,,,,,,,,,422.86,1.1,423.961,423.961,424.527,right,0,0.553,,424.527,425.527,4,3,35,0,1,partial,1,images/Ex9.jpg,left,training,easy,7,,,,,
,,,,,5f0788c06b220f03231666a0,001,63,Female,British,postgraduate,2024-02-26_20h26.56.028,CRL1e,2023.2.3,Win32,59.95203837,65dbad3905fde4fe1981dc61,65dcf3dd314e15a955b65841,,,,,,,,,,,425.528,0.6,426.127,426.127,426.711,left,1,0.577,,426.711,427.71,4,4,36,2,1,partial,1,images/Ex10.jpg,left,training,easy,7,,,,,
,,,,,5f0788c06b220f03231666a0,001,63,Female,British,postgraduate,2024-02-26_20h26.56.028,CRL1e,2023.2.3,Win32,59.95203837,65dbad3905fde4fe1981dc61,65dcf3dd314e15a955b65841,,,,,,,,,,,427.711,1,428.71,428.71,429.16,left,1,0.44,,429.16,430.16,4,5,37,1,1,partial,1,images/Ex9.jpg,left,training,easy,7,,,,,
,,,,,5f0788c06b220f03231666a0,001,63,Female,British,postgraduate,2024-02-26_20h26.56.028,CRL1e,2023.2.3,Win32,59.95203837,65dbad3905fde4fe1981dc61,65dcf3dd314e15a955b65841,,,,,,,,,,,430.16,0.5,430.66,430.66,431.277,right,1,0.61,,431.277,432.277,4,6,38,4,1,partial,1,images/Ex11.jpg,right,training,easy,7,,,,,
,,,,,5f0788c06b220f03231666a0,001,63,Female,British,postgraduate,2024-02-26_20h26.56.028,CRL1e,2023.2.3,Win32,59.95203837,65dbad3905fde4fe1981dc61,65dcf3dd314e15a955b65841,,,,,,,,,,,432.278,1.1,433.377,433.377,434.327,right,1,0.941,,434.327,435.327,4,7,39,7,1,partial,1,images/Ex12.jpg,right,training,easy,7,,,,,
,,,,,5f0788c06b220f03231666a0,001,63,Female,British,postgraduate,2024-02-26_20h26.56.028,CRL1e,2023.2.3,Win32,59.95203837,65dbad3905fde4fe1981dc61,65dcf3dd314e15a955b65841,,,,,,,,,,,435.328,1.4,436.727,436.727,437.21,right,1,0.481,,437.21,438.21,5,0,40,4,1,partial,1,images/Ex11.jpg,right,training,easy,7,,,,,
,,,,,5f0788c06b220f03231666a0,001,63,Female,British,postgraduate,2024-02-26_20h26.56.028,CRL1e,2023.2.3,Win32,59.95203837,65dbad3905fde4fe1981dc61,65dcf3dd314e15a955b65841,,,,,,,,,,,438.21,1,439.21,439.21,440.31,left,0,1.093,,440.31,441.31,5,1,41,6,1,partial,1,images/Ex12.jpg,right,training,easy,7,,,,,
,,,,,5f0788c06b220f03231666a0,001,63,Female,British,postgraduate,2024-02-26_20h26.56.028,CRL1e,2023.2.3,Win32,59.95203837,65dbad3905fde4fe1981dc61,65dcf3dd314e15a955b65841,,,,,,,,,,,441.311,1.1,442.409,442.409,443.027,left,1,0.604,,443.027,444.027,5,2,42,3,1,partial,1,images/Ex10.jpg,left,training,easy,7,,,,,
,,,,,5f0788c06b220f03231666a0,001,63,Female,British,postgraduate,2024-02-26_20h26.56.028,CRL1e,2023.2.3,Win32,59.95203837,65dbad3905fde4fe1981dc61,65dcf3dd314e15a955b65841,,,,,,,,,,,444.028,1.4,445.427,445.427,445.927,left,1,0.492,,445.927,446.926,5,3,43,2,1,partial,1,images/Ex10.jpg,left,training,easy,7,,,,,
,,,,,5f0788c06b220f03231666a0,001,63,Female,British,postgraduate,2024-02-26_20h26.56.028,CRL1e,2023.2.3,Win32,59.95203837,65dbad3905fde4fe1981dc61,65dcf3dd314e15a955b65841,,,,,,,,,,,446.927,1,447.927,447.927,448.644,right,1,0.711,,448.644,449.643,5,4,44,7,1,partial,1,images/Ex12.jpg,right,training,easy,7,,,,,
,,,,,5f0788c06b220f03231666a0,001,63,Female,British,postgraduate,2024-02-26_20h26.56.028,CRL1e,2023.2.3,Win32,59.95203837,65dbad3905fde4fe1981dc61,65dcf3dd314e15a955b65841,,,,,,,,,,,449.644,1.4,451.043,451.043,451.677,right,1,0.623,,451.677,452.676,5,5,45,5,1,partial,1,images/Ex11.jpg,right,training,easy,7,,,,,
,,,,,5f0788c06b220f03231666a0,001,63,Female,British,postgraduate,2024-02-26_20h26.56.028,CRL1e,2023.2.3,Win32,59.95203837,65dbad3905fde4fe1981dc61,65dcf3dd314e15a955b65841,,,,,,,,,,,452.678,1,453.677,453.677,454.143,left,1,0.458,,454.143,455.143,5,6,46,0,1,partial,1,images/Ex9.jpg,left,training,easy,7,,,,,
,,,,,5f0788c06b220f03231666a0,001,63,Female,British,postgraduate,2024-02-26_20h26.56.028,CRL1e,2023.2.3,Win32,59.95203837,65dbad3905fde4fe1981dc61,65dcf3dd314e15a955b65841,,,,,,,,,,,455.144,1.3,456.443,456.444,456.993,left,1,0.549,,456.993,457.993,5,7,47,1,1,partial,1,images/Ex9.jpg,left,training,easy,7,,,,,
,,,,,5f0788c06b220f03231666a0,001,63,Female,British,postgraduate,2024-02-26_20h26.56.028,CRL1e,2023.2.3,Win32,59.95203837,65dbad3905fde4fe1981dc61,65dcf3dd314e15a955b65841,,,,,,,,,,,457.997,1.4,459.393,459.393,460.026,right,1,0.621,,460.026,461.027,0,0,0,4,1,partial,2,images/Ex11.jpg,right,nonreversed,easy,7,,,,,
,,,,,5f0788c06b220f03231666a0,001,63,Female,British,postgraduate,2024-02-26_20h26.56.028,CRL1e,2023.2.3,Win32,59.95203837,65dbad3905fde4fe1981dc61,65dcf3dd314e15a955b65841,,,,,,,,,,,461.028,1.5,462.527,462.527,463.193,right,0,0.664,,463.193,464.194,0,1,1,6,1,partial,2,images/Ex12.jpg,left,reversed,easy,7,,,,,
,,,,,5f0788c06b220f03231666a0,001,63,Female,British,postgraduate,2024-02-26_20h26.56.028,CRL1e,2023.2.3,Win32,59.95203837,65dbad3905fde4fe1981dc61,65dcf3dd314e15a955b65841,,,,,,,,,,,464.194,0.8,464.994,464.994,465.66,left,0,0.654,,465.66,466.66,0,2,2,2,1,partial,2,images/Ex10.jpg,right,reversed,easy,7,,,,,
,,,,,5f0788c06b220f03231666a0,001,63,Female,British,postgraduate,2024-02-26_20h26.56.028,CRL1e,2023.2.3,Win32,59.95203837,65dbad3905fde4fe1981dc61,65dcf3dd314e15a955b65841,,,,,,,,,,,466.66,1.4,468.06,468.06,468.96,left,0,0.889,,468.96,469.961,0,3,3,5,1,partial,2,images/Ex11.jpg,right,nonreversed,easy,7,,,,,
,,,,,5f0788c06b220f03231666a0,001,63,Female,British,postgraduate,2024-02-26_20h26.56.028,CRL1e,2023.2.3,Win32,59.95203837,65dbad3905fde4fe1981dc61,65dcf3dd314e15a955b65841,,,,,,,,,,,469.961,0.7,470.66,470.66,471.91,left,1,1.244,,471.91,472.909,0,4,4,7,1,partial,2,images/Ex12.jpg,left,reversed,easy,7,,,,,
,,,,,5f0788c06b220f03231666a0,001,63,Female,British,postgraduate,2024-02-26_20h26.56.028,CRL1e,2023.2.3,Win32,59.95203837,65dbad3905fde4fe1981dc61,65dcf3dd314e15a955b65841,,,,,,,,,,,472.91,1.1,474.011,474.011,474.993,right,0,0.981,,474.994,475.993,0,5,5,1,1,partial,2,images/Ex9.jpg,left,nonreversed,easy,7,,,,,
,,,,,5f0788c06b220f03231666a0,001,63,Female,British,postgraduate,2024-02-26_20h26.56.028,CRL1e,2023.2.3,Win32,59.95203837,65dbad3905fde4fe1981dc61,65dcf3dd314e15a955b65841,,,,,,,,,,,475.994,0.7,476.693,476.693,477.578,right,1,0.873,,477.578,478.576,0,6,6,3,1,partial,2,images/Ex10.jpg,right,reversed,easy,7,,,,,
,,,,,5f0788c06b220f03231666a0,001,63,Female,British,postgraduate,2024-02-26_20h26.56.028,CRL1e,2023.2.3,Win32,59.95203837,65dbad3905fde4fe1981dc61,65dcf3dd314e15a955b65841,,,,,,,,,,,478.578,0.5,479.076,479.076,480.259,left,1,1.178,,480.259,481.26,0,7,7,0,1,partial,2,images/Ex9.jpg,left,nonreversed,easy,7,,,,,
,,,,,5f0788c06b220f03231666a0,001,63,Female,British,postgraduate,2024-02-26_20h26.56.028,CRL1e,2023.2.3,Win32,59.95203837,65dbad3905fde4fe1981dc61,65dcf3dd314e15a955b65841,,,,,,,,,,,481.26,0.8,482.06,482.06,483.043,left,1,0.979,,483.043,484.043,1,0,8,6,1,partial,2,images/Ex12.jpg,left,reversed,easy,7,,,,,
,,,,,5f0788c06b220f03231666a0,001,63,Female,British,postgraduate,2024-02-26_20h26.56.028,CRL1e,2023.2.3,Win32,59.95203837,65dbad3905fde4fe1981dc61,65dcf3dd314e15a955b65841,,,,,,,,,,,484.043,0.8,484.843,484.843,485.86,left,0,1.005,,485.86,486.86,1,1,9,5,1,partial,2,images/Ex11.jpg,right,nonreversed,easy,7,,,,,
,,,,,5f0788c06b220f03231666a0,001,63,Female,British,postgraduate,2024-02-26_20h26.56.028,CRL1e,2023.2.3,Win32,59.95203837,65dbad3905fde4fe1981dc61,65dcf3dd314e15a955b65841,,,,,,,,,,,486.862,1.4,488.26,488.26,489.027,right,1,0.755,,489.027,490.027,1,2,10,3,1,partial,2,images/Ex10.jpg,right,reversed,easy,7,,,,,
,,,,,5f0788c06b220f03231666a0,001,63,Female,British,postgraduate,2024-02-26_20h26.56.028,CRL1e,2023.2.3,Win32,59.95203837,65dbad3905fde4fe1981dc61,65dcf3dd314e15a955b65841,,,,,,,,,,,490.027,1,491.027,491.027,491.51,right,1,0.471,,491.51,492.509,1,3,11,4,1,partial,2,images/Ex11.jpg,right,nonreversed,easy,7,,,,,
,,,,,5f0788c06b220f03231666a0,001,63,Female,British,postgraduate,2024-02-26_20h26.56.028,CRL1e,2023.2.3,Win32,59.95203837,65dbad3905fde4fe1981dc61,65dcf3dd314e15a955b65841,,,,,,,,,,,492.51,1,493.509,493.509,494.426,left,1,0.913,,494.426,495.426,1,4,12,0,1,partial,2,images/Ex9.jpg,left,nonreversed,easy,7,,,,,
,,,,,5f0788c06b220f03231666a0,001,63,Female,British,postgraduate,2024-02-26_20h26.56.028,CRL1e,2023.2.3,Win32,59.95203837,65dbad3905fde4fe1981dc61,65dcf3dd314e15a955b65841,,,,,,,,,,,495.427,0.8,496.227,496.227,497.077,right,1,0.838,,497.077,498.076,1,5,13,2,1,partial,2,images/Ex10.jpg,right,reversed,easy,7,,,,,
,,,,,5f0788c06b220f03231666a0,001,63,Female,British,postgraduate,2024-02-26_20h26.56.028,CRL1e,2023.2.3,Win32,59.95203837,65dbad3905fde4fe1981dc61,65dcf3dd314e15a955b65841,,,,,,,,,,,498.077,1.5,499.576,499.576,500.593,left,1,1.006,,500.593,501.593,1,6,14,7,1,partial,2,images/Ex12.jpg,left,reversed,easy,7,,,,,
,,,,,5f0788c06b220f03231666a0,001,63,Female,British,postgraduate,2024-02-26_20h26.56.028,CRL1e,2023.2.3,Win32,59.95203837,65dbad3905fde4fe1981dc61,65dcf3dd314e15a955b65841,,,,,,,,,,,501.594,1.4,502.994,502.994,504.059,right,0,1.06,,504.059,505.06,1,7,15,1,1,partial,2,images/Ex9.jpg,left,nonreversed,easy,7,,,,,
,,,,,5f0788c06b220f03231666a0,001,63,Female,British,postgraduate,2024-02-26_20h26.56.028,CRL1e,2023.2.3,Win32,59.95203837,65dbad3905fde4fe1981dc61,65dcf3dd314e15a955b65841,,,,,,,,,,,505.06,1.1,506.16,506.16,506.643,left,1,0.478,,506.643,507.643,2,0,16,1,1,partial,2,images/Ex9.jpg,left,nonreversed,easy,7,,,,,
,,,,,5f0788c06b220f03231666a0,001,63,Female,British,postgraduate,2024-02-26_20h26.56.028,CRL1e,2023.2.3,Win32,59.95203837,65dbad3905fde4fe1981dc61,65dcf3dd314e15a955b65841,,,,,,,,,,,507.643,0.7,508.343,508.344,509.326,right,1,0.971,,509.326,510.327,2,1,17,4,1,partial,2,images/Ex11.jpg,right,nonreversed,easy,7,,,,,
,,,,,5f0788c06b220f03231666a0,001,63,Female,British,postgraduate,2024-02-26_20h26.56.028,CRL1e,2023.2.3,Win32,59.95203837,65dbad3905fde4fe1981dc61,65dcf3dd314e15a955b65841,,,,,,,,,,,510.327,1.4,511.727,511.727,512.709,left,1,0.971,,512.71,513.71,2,2,18,6,1,partial,2,images/Ex12.jpg,left,reversed,easy,7,,,,,
,,,,,5f0788c06b220f03231666a0,001,63,Female,British,postgraduate,2024-02-26_20h26.56.028,CRL1e,2023.2.3,Win32,59.95203837,65dbad3905fde4fe1981dc61,65dcf3dd314e15a955b65841,,,,,,,,,,,513.711,0.8,514.51,514.51,515.21,right,1,0.698,,515.21,516.21,2,3,19,3,1,partial,2,images/Ex10.jpg,right,reversed,easy,7,,,,,
,,,,,5f0788c06b220f03231666a0,001,63,Female,British,postgraduate,2024-02-26_20h26.56.028,CRL1e,2023.2.3,Win32,59.95203837,65dbad3905fde4fe1981dc61,65dcf3dd314e15a955b65841,,,,,,,,,,,516.211,0.5,516.71,516.71,517.21,right,1,0.49,,517.21,518.21,2,4,20,2,1,partial,2,images/Ex10.jpg,right,reversed,easy,7,,,,,
,,,,,5f0788c06b220f03231666a0,001,63,Female,British,postgraduate,2024-02-26_20h26.56.028,CRL1e,2023.2.3,Win32,59.95203837,65dbad3905fde4fe1981dc61,65dcf3dd314e15a955b65841,,,,,,,,,,,518.21,0.6,518.81,518.811,519.86,left,0,1.043,,519.861,520.86,2,5,21,5,1,partial,2,images/Ex11.jpg,right,nonreversed,easy,7,,,,,
,,,,,5f0788c06b220f03231666a0,001,63,Female,British,postgraduate,2024-02-26_20h26.56.028,CRL1e,2023.2.3,Win32,59.95203837,65dbad3905fde4fe1981dc61,65dcf3dd314e15a955b65841,,,,,,,,,,,520.861,1,521.86,521.86,522.827,left,1,0.954,,522.827,523.827,2,6,22,0,1,partial,2,images/Ex9.jpg,left,nonreversed,easy,7,,,,,
,,,,,5f0788c06b220f03231666a0,001,63,Female,British,postgraduate,2024-02-26_20h26.56.028,CRL1e,2023.2.3,Win32,59.95203837,65dbad3905fde4fe1981dc61,65dcf3dd314e15a955b65841,,,,,,,,,,,523.828,1.3,525.127,525.127,526.044,right,0,0.913,,526.044,527.043,2,7,23,7,1,partial,2,images/Ex12.jpg,left,reversed,easy,7,,,,,
,,,,,5f0788c06b220f03231666a0,001,63,Female,British,postgraduate,2024-02-26_20h26.56.028,CRL1e,2023.2.3,Win32,59.95203837,65dbad3905fde4fe1981dc61,65dcf3dd314e15a955b65841,,,,,,,,,,,527.044,1.1,528.143,528.143,529.11,left,1,0.958,,529.11,530.109,3,0,24,1,1,partial,2,images/Ex9.jpg,left,nonreversed,easy,7,,,,,
,,,,,5f0788c06b220f03231666a0,001,63,Female,British,postgraduate,2024-02-26_20h26.56.028,CRL1e,2023.2.3,Win32,59.95203837,65dbad3905fde4fe1981dc61,65dcf3dd314e15a955b65841,,,,,,,,,,,530.11,0.5,530.609,530.609,531.511,left,1,0.893,,531.511,532.51,3,1,25,7,1,partial,2,images/Ex12.jpg,left,reversed,easy,7,,,,,
,,,,,5f0788c06b220f03231666a0,001,63,Female,British,postgraduate,2024-02-26_20h26.56.028,CRL1e,2023.2.3,Win32,59.95203837,65dbad3905fde4fe1981dc61,65dcf3dd314e15a955b65841,,,,,,,,,,,532.512,1.2,533.709,533.709,534.393,right,1,0.681,,534.393,535.394,3,2,26,2,1,partial,2,images/Ex10.jpg,right,reversed,easy,7,,,,,
,,,,,5f0788c06b220f03231666a0,001,63,Female,British,postgraduate,2024-02-26_20h26.56.028,CRL1e,2023.2.3,Win32,59.95203837,65dbad3905fde4fe1981dc61,65dcf3dd314e15a955b65841,,,,,,,,,,,535.394,1.1,536.494,536.494,536.976,right,1,0.472,,536.976,537.977,3,3,27,5,1,partial,2,images/Ex11.jpg,right,nonreversed,easy,7,,,,,
,,,,,5f0788c06b220f03231666a0,001,63,Female,British,postgraduate,2024-02-26_20h26.56.028,CRL1e,2023.2.3,Win32,59.95203837,65dbad3905fde4fe1981dc61,65dcf3dd314e15a955b65841,,,,,,,,,,,537.977,1.1,539.076,539.076,539.843,right,1,0.754,,539.843,540.843,3,4,28,3,1,partial,2,images/Ex10.jpg,right,reversed,easy,7,,,,,
,,,,,5f0788c06b220f03231666a0,001,63,Female,British,postgraduate,2024-02-26_20h26.56.028,CRL1e,2023.2.3,Win32,59.95203837,65dbad3905fde4fe1981dc61,65dcf3dd314e15a955b65841,,,,,,,,,,,540.844,0.7,541.544,541.544,542.093,right,1,0.538,,542.093,543.094,3,5,29,4,1,partial,2,images/Ex11.jpg,right,nonreversed,easy,7,,,,,
,,,,,5f0788c06b220f03231666a0,001,63,Female,British,postgraduate,2024-02-26_20h26.56.028,CRL1e,2023.2.3,Win32,59.95203837,65dbad3905fde4fe1981dc61,65dcf3dd314e15a955b65841,,,,,,,,,,,543.094,1.4,544.493,544.493,545.443,left,1,0.945,,545.443,546.443,3,6,30,6,1,partial,2,images/Ex12.jpg,left,reversed,easy,7,,,,,
,,,,,5f0788c06b220f03231666a0,001,63,Female,British,postgraduate,2024-02-26_20h26.56.028,CRL1e,2023.2.3,Win32,59.95203837,65dbad3905fde4fe1981dc61,65dcf3dd314e15a955b65841,,,,,,,,,,,546.443,0.6,547.043,547.043,547.659,left,1,0.604,,547.659,548.659,3,7,31,0,1,partial,2,images/Ex9.jpg,left,nonreversed,easy,7,,,,,
,,,,,5f0788c06b220f03231666a0,001,63,Female,British,postgraduate,2024-02-26_20h26.56.028,CRL1e,2023.2.3,Win32,59.95203837,65dbad3905fde4fe1981dc61,65dcf3dd314e15a955b65841,,,,,,,,,,,548.661,0.7,549.36,549.36,549.877,right,1,0.504,,549.877,550.876,4,0,32,3,1,partial,2,images/Ex10.jpg,right,reversed,easy,7,,,,,
,,,,,5f0788c06b220f03231666a0,001,63,Female,British,postgraduate,2024-02-26_20h26.56.028,CRL1e,2023.2.3,Win32,59.95203837,65dbad3905fde4fe1981dc61,65dcf3dd314e15a955b65841,,,,,,,,,,,550.877,0.8,551.677,551.677,552.161,right,1,0.471,,552.161,553.16,4,1,33,2,1,partial,2,images/Ex10.jpg,right,reversed,easy,7,,,,,
,,,,,5f0788c06b220f03231666a0,001,63,Female,British,postgraduate,2024-02-26_20h26.56.028,CRL1e,2023.2.3,Win32,59.95203837,65dbad3905fde4fe1981dc61,65dcf3dd314e15a955b65841,,,,,,,,,,,553.162,1.3,554.461,554.461,555.176,right,1,0.705,,555.176,556.177,4,2,34,5,1,partial,2,images/Ex11.jpg,right,nonreversed,easy,7,,,,,
,,,,,5f0788c06b220f03231666a0,001,63,Female,British,postgraduate,2024-02-26_20h26.56.028,CRL1e,2023.2.3,Win32,59.95203837,65dbad3905fde4fe1981dc61,65dcf3dd314e15a955b65841,,,,,,,,,,,556.178,0.6,556.776,556.777,557.627,left,1,0.846,,557.627,558.627,4,3,35,7,1,partial,2,images/Ex12.jpg,left,reversed,easy,7,,,,,
,,,,,5f0788c06b220f03231666a0,001,63,Female,British,postgraduate,2024-02-26_20h26.56.028,CRL1e,2023.2.3,Win32,59.95203837,65dbad3905fde4fe1981dc61,65dcf3dd314e15a955b65841,,,,,,,,,,,558.628,0.6,559.226,559.226,560.176,left,1,0.94,,560.176,561.176,4,4,36,1,1,partial,2,images/Ex9.jpg,left,nonreversed,easy,7,,,,,
,,,,,5f0788c06b220f03231666a0,001,63,Female,British,postgraduate,2024-02-26_20h26.56.028,CRL1e,2023.2.3,Win32,59.95203837,65dbad3905fde4fe1981dc61,65dcf3dd314e15a955b65841,,,,,,,,,,,561.177,0.8,561.977,561.977,562.677,right,1,0.687,,562.677,563.676,4,5,37,4,1,partial,2,images/Ex11.jpg,right,nonreversed,easy,7,,,,,
,,,,,5f0788c06b220f03231666a0,001,63,Female,British,postgraduate,2024-02-26_20h26.56.028,CRL1e,2023.2.3,Win32,59.95203837,65dbad3905fde4fe1981dc61,65dcf3dd314e15a955b65841,,,,,,,,,,,563.677,0.9,564.577,564.577,565.511,left,1,0.926,,565.511,566.51,4,6,38,6,1,partial,2,images/Ex12.jpg,left,reversed,easy,7,,,,,
,,,,,5f0788c06b220f03231666a0,001,63,Female,British,postgraduate,2024-02-26_20h26.56.028,CRL1e,2023.2.3,Win32,59.95203837,65dbad3905fde4fe1981dc61,65dcf3dd314e15a955b65841,,,,,,,,,,,566.511,0.7,567.21,567.21,568.026,right,0,0.804,,568.026,569.026,4,7,39,0,1,partial,2,images/Ex9.jpg,left,nonreversed,easy,7,,,,,
,,,,,5f0788c06b220f03231666a0,001,63,Female,British,postgraduate,2024-02-26_20h26.56.028,CRL1e,2023.2.3,Win32,59.95203837,65dbad3905fde4fe1981dc61,65dcf3dd314e15a955b65841,,,,,,,,,,,569.027,1.3,570.326,570.326,570.926,left,1,0.593,,570.927,571.926,5,0,40,0,1,partial,2,images/Ex9.jpg,left,nonreversed,easy,7,,,,,
,,,,,5f0788c06b220f03231666a0,001,63,Female,British,postgraduate,2024-02-26_20h26.56.028,CRL1e,2023.2.3,Win32,59.95203837,65dbad3905fde4fe1981dc61,65dcf3dd314e15a955b65841,,,,,,,,,,,571.927,1.1,573.026,573.026,573.643,left,1,0.605,,573.643,574.643,5,1,41,1,1,partial,2,images/Ex9.jpg,left,nonreversed,easy,7,,,,,
,,,,,5f0788c06b220f03231666a0,001,63,Female,British,postgraduate,2024-02-26_20h26.56.028,CRL1e,2023.2.3,Win32,59.95203837,65dbad3905fde4fe1981dc61,65dcf3dd314e15a955b65841,,,,,,,,,,,574.643,0.7,575.343,575.343,576.327,left,1,0.975,,576.327,577.327,5,2,42,7,1,partial,2,images/Ex12.jpg,left,reversed,easy,7,,,,,
,,,,,5f0788c06b220f03231666a0,001,63,Female,British,postgraduate,2024-02-26_20h26.56.028,CRL1e,2023.2.3,Win32,59.95203837,65dbad3905fde4fe1981dc61,65dcf3dd314e15a955b65841,,,,,,,,,,,577.327,1.3,578.626,578.626,579.126,right,1,0.486,,579.126,580.126,5,3,43,3,1,partial,2,images/Ex10.jpg,right,reversed,easy,7,,,,,
,,,,,5f0788c06b220f03231666a0,001,63,Female,British,postgraduate,2024-02-26_20h26.56.028,CRL1e,2023.2.3,Win32,59.95203837,65dbad3905fde4fe1981dc61,65dcf3dd314e15a955b65841,,,,,,,,,,,580.127,1.5,581.626,581.626,582.11,right,1,0.477,,582.11,583.11,5,4,44,4,1,partial,2,images/Ex11.jpg,right,nonreversed,easy,7,,,,,
,,,,,5f0788c06b220f03231666a0,001,63,Female,British,postgraduate,2024-02-26_20h26.56.028,CRL1e,2023.2.3,Win32,59.95203837,65dbad3905fde4fe1981dc61,65dcf3dd314e15a955b65841,,,,,,,,,,,583.11,0.6,583.709,583.709,584.693,left,1,0.977,,584.693,585.694,5,5,45,6,1,partial,2,images/Ex12.jpg,left,reversed,easy,7,,,,,
,,,,,5f0788c06b220f03231666a0,001,63,Female,British,postgraduate,2024-02-26_20h26.56.028,CRL1e,2023.2.3,Win32,59.95203837,65dbad3905fde4fe1981dc61,65dcf3dd314e15a955b65841,,,,,,,,,,,585.697,0.9,586.595,586.595,587.176,left,0,0.579,,587.176,588.176,5,6,46,2,1,partial,2,images/Ex10.jpg,right,reversed,easy,7,,,,,
,,,,,5f0788c06b220f03231666a0,001,63,Female,British,postgraduate,2024-02-26_20h26.56.028,CRL1e,2023.2.3,Win32,59.95203837,65dbad3905fde4fe1981dc61,65dcf3dd314e15a955b65841,,,,,,,,,,,588.177,1.2,589.377,589.377,590.043,right,1,0.662,,590.043,591.043,5,7,47,5,1,partial,2,images/Ex11.jpg,right,nonreversed,easy,7,,,,,
,,,,,5f0788c06b220f03231666a0,001,63,Female,British,postgraduate,2024-02-26_20h26.56.028,CRL1e,2023.2.3,Win32,59.95203837,65dbad3905fde4fe1981dc61,65dcf3dd314e15a955b65841,,,,,,,,,,,,,,,,,,,,,,,,,,,,,,,,,,591.044,622.693,space,31.626,