infCons.started,infCons.stopped,resp_consent.keys,resp_consent.rt,resp_consent.duration,participant,session,Age?,Gender?,Nationality?,Highest Educational Degree?,date,expName,psychopyVersion,OS,frameRate,STUDY_ID,SESSION_ID,instructions.started,instructions.stopped,resp_instructions.keys,resp_instructions.rt,resp_instructions.duration,nextTask.started,nextTask.stopped,ready_task.keys,ready_task.rt,ready_task.duration,fixation.started,ITI,fixation.stopped,stim.started,stim.stopped,response.keys,response.corr,response.rt,response.duration,feedback.started,feedback.stopped,trials.thisRepN,trials.thisTrialN,trials.thisN,trials.thisIndex,trials.ran,task,phase,Exemplars,r_correct,condition,difficulty,set,end.started,end.stopped,resp_end.keys,resp_end.rt,resp_end.duration
0.0004,2.4541,space,2.386,,6400d919945d23676a68b781,001,28,Female,Luxembourg,MA,2024-02-26_17h19.21.420,CRL1e,2023.2.3,MacIntel,59.52380952,65dbad3905fde4fe1981dc61,65dcc804cf3073155f828e88,,,,,,,,,,,,,,,,,,,,,,,,,,,,,,,,,,,,,,
,,,,,6400d919945d23676a68b781,001,28,Female,Luxembourg,MA,2024-02-26_17h19.21.420,CRL1e,2023.2.3,MacIntel,59.52380952,65dbad3905fde4fe1981dc61,65dcc804cf3073155f828e88,2.4544,17.7207,space,15.2405,,,,,,,,,,,,,,,,,,,,,,,,,,,,,,,,,,
,,,,,6400d919945d23676a68b781,001,28,Female,Luxembourg,MA,2024-02-26_17h19.21.420,CRL1e,2023.2.3,MacIntel,59.52380952,65dbad3905fde4fe1981dc61,65dcc804cf3073155f828e88,,,,,,17.7248,19.3872,space,1.6434,,19.391,0.7,20.0876,20.0878,22.8539,right,1,2.7515,,22.8541,23.8544,0,0,0,7,1,total,1,images/Ex8.jpg,right,training,easy,4,,,,,
,,,,,6400d919945d23676a68b781,001,28,Female,Luxembourg,MA,2024-02-26_17h19.21.420,CRL1e,2023.2.3,MacIntel,59.52380952,65dbad3905fde4fe1981dc61,65dcc804cf3073155f828e88,,,,,,,,,,,23.8553,0.7,24.5537,24.5537,26.4041,left,1,1.8391,,26.4042,27.4035,0,1,1,1,1,total,1,images/Ex5.jpg,left,training,easy,4,,,,,
,,,,,6400d919945d23676a68b781,001,28,Female,Luxembourg,MA,2024-02-26_17h19.21.420,CRL1e,2023.2.3,MacIntel,59.52380952,65dbad3905fde4fe1981dc61,65dcc804cf3073155f828e88,,,,,,,,,,,27.4039,1.1,28.5037,28.5037,30.021,right,0,1.5052,,30.0211,31.0205,0,2,2,3,1,total,1,images/Ex6.jpg,left,training,easy,4,,,,,
,,,,,6400d919945d23676a68b781,001,28,Female,Luxembourg,MA,2024-02-26_17h19.21.420,CRL1e,2023.2.3,MacIntel,59.52380952,65dbad3905fde4fe1981dc61,65dcc804cf3073155f828e88,,,,,,,,,,,31.0209,1.5,32.5202,32.5202,33.637,left,1,1.1088,,33.6371,34.6367,0,3,3,0,1,total,1,images/Ex5.jpg,left,training,easy,4,,,,,
,,,,,6400d919945d23676a68b781,001,28,Female,Luxembourg,MA,2024-02-26_17h19.21.420,CRL1e,2023.2.3,MacIntel,59.52380952,65dbad3905fde4fe1981dc61,65dcc804cf3073155f828e88,,,,,,,,,,,34.637,1.2,35.8376,35.8376,36.8872,left,1,1.0454,,36.8872,37.8872,0,4,4,2,1,total,1,images/Ex6.jpg,left,training,easy,4,,,,,
,,,,,6400d919945d23676a68b781,001,28,Female,Luxembourg,MA,2024-02-26_17h19.21.420,CRL1e,2023.2.3,MacIntel,59.52380952,65dbad3905fde4fe1981dc61,65dcc804cf3073155f828e88,,,,,,,,,,,37.8876,1.3,39.187,39.187,40.1041,right,1,0.9103,,40.1041,41.1036,0,5,5,4,1,total,1,images/Ex7.jpg,right,training,easy,4,,,,,
,,,,,6400d919945d23676a68b781,001,28,Female,Luxembourg,MA,2024-02-26_17h19.21.420,CRL1e,2023.2.3,MacIntel,59.52380952,65dbad3905fde4fe1981dc61,65dcc804cf3073155f828e88,,,,,,,,,,,41.104,0.5,41.6035,41.6035,42.2372,right,1,0.6211,,42.2372,43.2368,0,6,6,5,1,total,1,images/Ex7.jpg,right,training,easy,4,,,,,
,,,,,6400d919945d23676a68b781,001,28,Female,Luxembourg,MA,2024-02-26_17h19.21.420,CRL1e,2023.2.3,MacIntel,59.52380952,65dbad3905fde4fe1981dc61,65dcc804cf3073155f828e88,,,,,,,,,,,43.237,0.7,43.9367,43.9368,45.4537,right,1,1.5082,,45.4537,46.4534,0,7,7,6,1,total,1,images/Ex8.jpg,right,training,easy,4,,,,,
,,,,,6400d919945d23676a68b781,001,28,Female,Luxembourg,MA,2024-02-26_17h19.21.420,CRL1e,2023.2.3,MacIntel,59.52380952,65dbad3905fde4fe1981dc61,65dcc804cf3073155f828e88,,,,,,,,,,,46.4537,1.3,47.7532,47.7532,49.2869,left,1,1.5323,,49.2869,50.2866,1,0,8,2,1,total,1,images/Ex6.jpg,left,training,easy,4,,,,,
,,,,,6400d919945d23676a68b781,001,28,Female,Luxembourg,MA,2024-02-26_17h19.21.420,CRL1e,2023.2.3,MacIntel,59.52380952,65dbad3905fde4fe1981dc61,65dcc804cf3073155f828e88,,,,,,,,,,,50.287,0.9,51.1866,51.1866,52.3704,left,1,1.1767,,52.3704,53.3698,1,1,9,0,1,total,1,images/Ex5.jpg,left,training,easy,4,,,,,
,,,,,6400d919945d23676a68b781,001,28,Female,Luxembourg,MA,2024-02-26_17h19.21.420,CRL1e,2023.2.3,MacIntel,59.52380952,65dbad3905fde4fe1981dc61,65dcc804cf3073155f828e88,,,,,,,,,,,53.3701,1,54.3699,54.3699,55.1212,left,1,0.7388,,55.1213,56.1201,1,2,10,1,1,total,1,images/Ex5.jpg,left,training,easy,4,,,,,
,,,,,6400d919945d23676a68b781,001,28,Female,Luxembourg,MA,2024-02-26_17h19.21.420,CRL1e,2023.2.3,MacIntel,59.52380952,65dbad3905fde4fe1981dc61,65dcc804cf3073155f828e88,,,,,,,,,,,56.1205,0.7,56.8198,56.8198,57.6534,right,1,0.8216,,57.6534,58.6531,1,3,11,5,1,total,1,images/Ex7.jpg,right,training,easy,4,,,,,
,,,,,6400d919945d23676a68b781,001,28,Female,Luxembourg,MA,2024-02-26_17h19.21.420,CRL1e,2023.2.3,MacIntel,59.52380952,65dbad3905fde4fe1981dc61,65dcc804cf3073155f828e88,,,,,,,,,,,58.6534,0.6,59.253,59.2531,60.0702,left,1,0.805,,60.0703,61.071,1,4,12,3,1,total,1,images/Ex6.jpg,left,training,easy,4,,,,,
,,,,,6400d919945d23676a68b781,001,28,Female,Luxembourg,MA,2024-02-26_17h19.21.420,CRL1e,2023.2.3,MacIntel,59.52380952,65dbad3905fde4fe1981dc61,65dcc804cf3073155f828e88,,,,,,,,,,,61.0715,0.5,61.571,61.571,62.7382,right,1,1.1608,,62.7382,63.7376,1,5,13,4,1,total,1,images/Ex7.jpg,right,training,easy,4,,,,,
,,,,,6400d919945d23676a68b781,001,28,Female,Luxembourg,MA,2024-02-26_17h19.21.420,CRL1e,2023.2.3,MacIntel,59.52380952,65dbad3905fde4fe1981dc61,65dcc804cf3073155f828e88,,,,,,,,,,,63.7381,0.5,64.2368,64.2368,65.2201,right,1,0.9821,,65.2202,66.2197,1,6,14,6,1,total,1,images/Ex8.jpg,right,training,easy,4,,,,,
,,,,,6400d919945d23676a68b781,001,28,Female,Luxembourg,MA,2024-02-26_17h19.21.420,CRL1e,2023.2.3,MacIntel,59.52380952,65dbad3905fde4fe1981dc61,65dcc804cf3073155f828e88,,,,,,,,,,,66.2201,1.3,67.5196,67.5196,68.3536,right,1,0.8288,,68.3536,69.3531,1,7,15,7,1,total,1,images/Ex8.jpg,right,training,easy,4,,,,,
,,,,,6400d919945d23676a68b781,001,28,Female,Luxembourg,MA,2024-02-26_17h19.21.420,CRL1e,2023.2.3,MacIntel,59.52380952,65dbad3905fde4fe1981dc61,65dcc804cf3073155f828e88,,,,,,,,,,,69.3535,0.5,69.8533,69.8533,70.7529,left,1,0.8885,,70.753,71.7533,2,0,16,3,1,total,1,images/Ex6.jpg,left,training,easy,4,,,,,
,,,,,6400d919945d23676a68b781,001,28,Female,Luxembourg,MA,2024-02-26_17h19.21.420,CRL1e,2023.2.3,MacIntel,59.52380952,65dbad3905fde4fe1981dc61,65dcc804cf3073155f828e88,,,,,,,,,,,71.7536,1.2,72.953,72.9531,73.7878,left,1,0.8339,,73.7879,74.7864,2,1,17,2,1,total,1,images/Ex6.jpg,left,training,easy,4,,,,,
,,,,,6400d919945d23676a68b781,001,28,Female,Luxembourg,MA,2024-02-26_17h19.21.420,CRL1e,2023.2.3,MacIntel,59.52380952,65dbad3905fde4fe1981dc61,65dcc804cf3073155f828e88,,,,,,,,,,,74.7867,1.1,75.8862,75.8863,77.1043,left,0,1.2104,,77.1043,78.1037,2,2,18,4,1,total,1,images/Ex7.jpg,right,training,easy,4,,,,,
,,,,,6400d919945d23676a68b781,001,28,Female,Luxembourg,MA,2024-02-26_17h19.21.420,CRL1e,2023.2.3,MacIntel,59.52380952,65dbad3905fde4fe1981dc61,65dcc804cf3073155f828e88,,,,,,,,,,,78.104,1.2,79.3029,79.3029,80.3867,right,1,1.0796,,80.3867,81.3871,2,3,19,6,1,total,1,images/Ex8.jpg,right,training,easy,4,,,,,
,,,,,6400d919945d23676a68b781,001,28,Female,Luxembourg,MA,2024-02-26_17h19.21.420,CRL1e,2023.2.3,MacIntel,59.52380952,65dbad3905fde4fe1981dc61,65dcc804cf3073155f828e88,,,,,,,,,,,81.3875,1.5,82.8863,82.8863,83.7391,right,1,0.8494,,83.7392,84.736,2,4,20,7,1,total,1,images/Ex8.jpg,right,training,easy,4,,,,,
,,,,,6400d919945d23676a68b781,001,28,Female,Luxembourg,MA,2024-02-26_17h19.21.420,CRL1e,2023.2.3,MacIntel,59.52380952,65dbad3905fde4fe1981dc61,65dcc804cf3073155f828e88,,,,,,,,,,,84.7364,1.2,85.9359,85.9359,86.7212,left,1,0.7795,,86.7212,87.7202,2,5,21,0,1,total,1,images/Ex5.jpg,left,training,easy,4,,,,,
,,,,,6400d919945d23676a68b781,001,28,Female,Luxembourg,MA,2024-02-26_17h19.21.420,CRL1e,2023.2.3,MacIntel,59.52380952,65dbad3905fde4fe1981dc61,65dcc804cf3073155f828e88,,,,,,,,,,,87.7206,0.6,88.3196,88.3197,89.2195,left,1,0.8929,,89.2196,90.2197,2,6,22,1,1,total,1,images/Ex5.jpg,left,training,easy,4,,,,,
,,,,,6400d919945d23676a68b781,001,28,Female,Luxembourg,MA,2024-02-26_17h19.21.420,CRL1e,2023.2.3,MacIntel,59.52380952,65dbad3905fde4fe1981dc61,65dcc804cf3073155f828e88,,,,,,,,,,,90.22,0.5,90.7196,90.7196,91.6194,right,1,0.8873,,91.6195,92.6193,2,7,23,5,1,total,1,images/Ex7.jpg,right,training,easy,4,,,,,
,,,,,6400d919945d23676a68b781,001,28,Female,Luxembourg,MA,2024-02-26_17h19.21.420,CRL1e,2023.2.3,MacIntel,59.52380952,65dbad3905fde4fe1981dc61,65dcc804cf3073155f828e88,,,,,,,,,,,92.6197,1.5,94.1206,94.1207,95.0039,right,1,0.8773,,95.004,96.0028,3,0,24,4,1,total,1,images/Ex7.jpg,right,training,easy,4,,,,,
,,,,,6400d919945d23676a68b781,001,28,Female,Luxembourg,MA,2024-02-26_17h19.21.420,CRL1e,2023.2.3,MacIntel,59.52380952,65dbad3905fde4fe1981dc61,65dcc804cf3073155f828e88,,,,,,,,,,,96.003,1.1,97.1025,97.1025,98.4695,left,1,1.3551,,98.4696,99.4694,3,1,25,2,1,total,1,images/Ex6.jpg,left,training,easy,4,,,,,
,,,,,6400d919945d23676a68b781,001,28,Female,Luxembourg,MA,2024-02-26_17h19.21.420,CRL1e,2023.2.3,MacIntel,59.52380952,65dbad3905fde4fe1981dc61,65dcc804cf3073155f828e88,,,,,,,,,,,99.4697,1.3,100.7693,100.7693,101.7697,left,1,0.9942,,101.7698,102.7692,3,2,26,3,1,total,1,images/Ex6.jpg,left,training,easy,4,,,,,
,,,,,6400d919945d23676a68b781,001,28,Female,Luxembourg,MA,2024-02-26_17h19.21.420,CRL1e,2023.2.3,MacIntel,59.52380952,65dbad3905fde4fe1981dc61,65dcc804cf3073155f828e88,,,,,,,,,,,102.7695,0.7,103.4692,103.4692,104.3194,left,1,0.8429,,104.3194,105.3194,3,3,27,0,1,total,1,images/Ex5.jpg,left,training,easy,4,,,,,
,,,,,6400d919945d23676a68b781,001,28,Female,Luxembourg,MA,2024-02-26_17h19.21.420,CRL1e,2023.2.3,MacIntel,59.52380952,65dbad3905fde4fe1981dc61,65dcc804cf3073155f828e88,,,,,,,,,,,105.3197,0.5,105.8202,105.8202,106.7036,right,1,0.8762,,106.7036,107.7025,3,4,28,7,1,total,1,images/Ex8.jpg,right,training,easy,4,,,,,
,,,,,6400d919945d23676a68b781,001,28,Female,Luxembourg,MA,2024-02-26_17h19.21.420,CRL1e,2023.2.3,MacIntel,59.52380952,65dbad3905fde4fe1981dc61,65dcc804cf3073155f828e88,,,,,,,,,,,107.7028,0.7,108.4025,108.4026,108.9195,right,1,0.5047,,108.9196,109.9195,3,5,29,6,1,total,1,images/Ex8.jpg,right,training,easy,4,,,,,
,,,,,6400d919945d23676a68b781,001,28,Female,Luxembourg,MA,2024-02-26_17h19.21.420,CRL1e,2023.2.3,MacIntel,59.52380952,65dbad3905fde4fe1981dc61,65dcc804cf3073155f828e88,,,,,,,,,,,109.9199,1.1,111.0199,111.02,111.7195,left,1,0.6919,,111.7196,112.7191,3,6,30,1,1,total,1,images/Ex5.jpg,left,training,easy,4,,,,,
,,,,,6400d919945d23676a68b781,001,28,Female,Luxembourg,MA,2024-02-26_17h19.21.420,CRL1e,2023.2.3,MacIntel,59.52380952,65dbad3905fde4fe1981dc61,65dcc804cf3073155f828e88,,,,,,,,,,,112.7195,0.7,113.4189,113.4189,114.3196,right,1,0.8893,,114.3196,115.319,3,7,31,5,1,total,1,images/Ex7.jpg,right,training,easy,4,,,,,
,,,,,6400d919945d23676a68b781,001,28,Female,Luxembourg,MA,2024-02-26_17h19.21.420,CRL1e,2023.2.3,MacIntel,59.52380952,65dbad3905fde4fe1981dc61,65dcc804cf3073155f828e88,,,,,,,,,,,115.3192,1.3,116.6189,116.6189,117.836,right,0,1.2113,,117.836,118.8357,4,0,32,2,1,total,1,images/Ex6.jpg,left,training,easy,4,,,,,
,,,,,6400d919945d23676a68b781,001,28,Female,Luxembourg,MA,2024-02-26_17h19.21.420,CRL1e,2023.2.3,MacIntel,59.52380952,65dbad3905fde4fe1981dc61,65dcc804cf3073155f828e88,,,,,,,,,,,118.8359,0.6,119.4357,119.4357,120.119,left,1,0.6717,,120.119,121.1198,4,1,33,0,1,total,1,images/Ex5.jpg,left,training,easy,4,,,,,
,,,,,6400d919945d23676a68b781,001,28,Female,Luxembourg,MA,2024-02-26_17h19.21.420,CRL1e,2023.2.3,MacIntel,59.52380952,65dbad3905fde4fe1981dc61,65dcc804cf3073155f828e88,,,,,,,,,,,121.1201,0.7,121.8196,121.8196,122.7196,right,1,0.8881,,122.7196,123.7191,4,2,34,5,1,total,1,images/Ex7.jpg,right,training,easy,4,,,,,
,,,,,6400d919945d23676a68b781,001,28,Female,Luxembourg,MA,2024-02-26_17h19.21.420,CRL1e,2023.2.3,MacIntel,59.52380952,65dbad3905fde4fe1981dc61,65dcc804cf3073155f828e88,,,,,,,,,,,123.7194,1.5,125.2193,125.2194,126.1527,right,1,0.9292,,126.1527,127.1531,4,3,35,4,1,total,1,images/Ex7.jpg,right,training,easy,4,,,,,
,,,,,6400d919945d23676a68b781,001,28,Female,Luxembourg,MA,2024-02-26_17h19.21.420,CRL1e,2023.2.3,MacIntel,59.52380952,65dbad3905fde4fe1981dc61,65dcc804cf3073155f828e88,,,,,,,,,,,127.1535,1.3,128.4521,128.4521,129.153,right,1,0.6965,,129.153,130.1526,4,4,36,6,1,total,1,images/Ex8.jpg,right,training,easy,4,,,,,
,,,,,6400d919945d23676a68b781,001,28,Female,Luxembourg,MA,2024-02-26_17h19.21.420,CRL1e,2023.2.3,MacIntel,59.52380952,65dbad3905fde4fe1981dc61,65dcc804cf3073155f828e88,,,,,,,,,,,130.1531,1.2,131.352,131.352,132.054,left,1,0.6988,,132.054,133.052,4,5,37,1,1,total,1,images/Ex5.jpg,left,training,easy,4,,,,,
,,,,,6400d919945d23676a68b781,001,28,Female,Luxembourg,MA,2024-02-26_17h19.21.420,CRL1e,2023.2.3,MacIntel,59.52380952,65dbad3905fde4fe1981dc61,65dcc804cf3073155f828e88,,,,,,,,,,,133.0522,1.5,134.552,134.552,135.3192,right,1,0.756,,135.3192,136.3191,4,6,38,7,1,total,1,images/Ex8.jpg,right,training,easy,4,,,,,
,,,,,6400d919945d23676a68b781,001,28,Female,Luxembourg,MA,2024-02-26_17h19.21.420,CRL1e,2023.2.3,MacIntel,59.52380952,65dbad3905fde4fe1981dc61,65dcc804cf3073155f828e88,,,,,,,,,,,136.3194,1.3,137.6193,137.6194,138.8192,right,0,1.1879,,138.8192,139.8186,4,7,39,3,1,total,1,images/Ex6.jpg,left,training,easy,4,,,,,
,,,,,6400d919945d23676a68b781,001,28,Female,Luxembourg,MA,2024-02-26_17h19.21.420,CRL1e,2023.2.3,MacIntel,59.52380952,65dbad3905fde4fe1981dc61,65dcc804cf3073155f828e88,,,,,,,,,,,139.8189,0.7,140.5195,140.5195,142.0858,left,1,1.5542,,142.0859,143.0852,5,0,40,0,1,total,1,images/Ex5.jpg,left,training,easy,4,,,,,
,,,,,6400d919945d23676a68b781,001,28,Female,Luxembourg,MA,2024-02-26_17h19.21.420,CRL1e,2023.2.3,MacIntel,59.52380952,65dbad3905fde4fe1981dc61,65dcc804cf3073155f828e88,,,,,,,,,,,143.096,1.3,144.3852,144.3852,146.1696,left,1,1.7754,,146.1696,147.1687,5,1,41,3,1,total,1,images/Ex6.jpg,left,training,easy,4,,,,,
,,,,,6400d919945d23676a68b781,001,28,Female,Luxembourg,MA,2024-02-26_17h19.21.420,CRL1e,2023.2.3,MacIntel,59.52380952,65dbad3905fde4fe1981dc61,65dcc804cf3073155f828e88,,,,,,,,,,,147.1813,1.4,148.5853,148.5853,149.419,right,1,0.8251,,149.419,150.4186,5,2,42,4,1,total,1,images/Ex7.jpg,right,training,easy,4,,,,,
,,,,,6400d919945d23676a68b781,001,28,Female,Luxembourg,MA,2024-02-26_17h19.21.420,CRL1e,2023.2.3,MacIntel,59.52380952,65dbad3905fde4fe1981dc61,65dcc804cf3073155f828e88,,,,,,,,,,,150.419,1.5,151.9184,151.9184,152.8355,right,1,0.9123,,152.8355,153.8353,5,3,43,6,1,total,1,images/Ex8.jpg,right,training,easy,4,,,,,
,,,,,6400d919945d23676a68b781,001,28,Female,Luxembourg,MA,2024-02-26_17h19.21.420,CRL1e,2023.2.3,MacIntel,59.52380952,65dbad3905fde4fe1981dc61,65dcc804cf3073155f828e88,,,,,,,,,,,153.8356,1,154.8353,154.8353,155.6203,right,1,0.7843,,155.6203,156.6184,5,4,44,7,1,total,1,images/Ex8.jpg,right,training,easy,4,,,,,
,,,,,6400d919945d23676a68b781,001,28,Female,Luxembourg,MA,2024-02-26_17h19.21.420,CRL1e,2023.2.3,MacIntel,59.52380952,65dbad3905fde4fe1981dc61,65dcc804cf3073155f828e88,,,,,,,,,,,156.6187,0.6,157.2183,157.2183,158.0685,left,1,0.8459,,158.0685,159.0683,5,5,45,1,1,total,1,images/Ex5.jpg,left,training,easy,4,,,,,
,,,,,6400d919945d23676a68b781,001,28,Female,Luxembourg,MA,2024-02-26_17h19.21.420,CRL1e,2023.2.3,MacIntel,59.52380952,65dbad3905fde4fe1981dc61,65dcc804cf3073155f828e88,,,,,,,,,,,159.0687,1.2,160.2684,160.2685,162.6853,right,0,2.4039,,162.6853,163.6848,5,6,46,2,1,total,1,images/Ex6.jpg,left,training,easy,4,,,,,
,,,,,6400d919945d23676a68b781,001,28,Female,Luxembourg,MA,2024-02-26_17h19.21.420,CRL1e,2023.2.3,MacIntel,59.52380952,65dbad3905fde4fe1981dc61,65dcc804cf3073155f828e88,,,,,,,,,,,163.6957,1.1,164.785,164.785,165.5692,right,1,0.7718,,165.5692,166.5691,5,7,47,5,1,total,1,images/Ex7.jpg,right,training,easy,4,,,,,
,,,,,6400d919945d23676a68b781,001,28,Female,Luxembourg,MA,2024-02-26_17h19.21.420,CRL1e,2023.2.3,MacIntel,59.52380952,65dbad3905fde4fe1981dc61,65dcc804cf3073155f828e88,,,,,,,,,,,166.5721,1.1,167.6682,167.6683,168.3856,right,0,0.7128,,168.3857,169.385,0,0,0,7,1,total,2,images/Ex8.jpg,left,reversed,easy,4,,,,,
,,,,,6400d919945d23676a68b781,001,28,Female,Luxembourg,MA,2024-02-26_17h19.21.420,CRL1e,2023.2.3,MacIntel,59.52380952,65dbad3905fde4fe1981dc61,65dcc804cf3073155f828e88,,,,,,,,,,,169.3853,1.1,170.4849,170.4849,173.2015,right,0,2.7044,,173.2015,174.2023,0,1,1,5,1,total,2,images/Ex7.jpg,left,reversed,easy,4,,,,,
,,,,,6400d919945d23676a68b781,001,28,Female,Luxembourg,MA,2024-02-26_17h19.21.420,CRL1e,2023.2.3,MacIntel,59.52380952,65dbad3905fde4fe1981dc61,65dcc804cf3073155f828e88,,,,,,,,,,,174.2132,1.5,175.7017,175.7017,176.9849,right,1,1.2723,,176.9849,177.9847,0,2,2,3,1,total,2,images/Ex6.jpg,right,reversed,easy,4,,,,,
,,,,,6400d919945d23676a68b781,001,28,Female,Luxembourg,MA,2024-02-26_17h19.21.420,CRL1e,2023.2.3,MacIntel,59.52380952,65dbad3905fde4fe1981dc61,65dcc804cf3073155f828e88,,,,,,,,,,,177.985,0.7,178.6849,178.6849,179.385,right,1,0.6893,,179.385,180.3848,0,3,3,2,1,total,2,images/Ex6.jpg,right,reversed,easy,4,,,,,
,,,,,6400d919945d23676a68b781,001,28,Female,Luxembourg,MA,2024-02-26_17h19.21.420,CRL1e,2023.2.3,MacIntel,59.52380952,65dbad3905fde4fe1981dc61,65dcc804cf3073155f828e88,,,,,,,,,,,180.385,1.3,181.6847,181.6848,182.4016,left,0,0.7093,,182.4017,183.4014,0,4,4,0,1,total,2,images/Ex5.jpg,right,reversed,easy,4,,,,,
,,,,,6400d919945d23676a68b781,001,28,Female,Luxembourg,MA,2024-02-26_17h19.21.420,CRL1e,2023.2.3,MacIntel,59.52380952,65dbad3905fde4fe1981dc61,65dcc804cf3073155f828e88,,,,,,,,,,,183.4017,1.3,184.7014,184.7014,185.6021,right,0,0.8927,,185.6022,186.6014,0,5,5,4,1,total,2,images/Ex7.jpg,left,reversed,easy,4,,,,,
,,,,,6400d919945d23676a68b781,001,28,Female,Luxembourg,MA,2024-02-26_17h19.21.420,CRL1e,2023.2.3,MacIntel,59.52380952,65dbad3905fde4fe1981dc61,65dcc804cf3073155f828e88,,,,,,,,,,,186.6018,0.8,187.4013,187.4014,188.7188,right,0,1.3049,,188.7188,189.718,0,6,6,6,1,total,2,images/Ex8.jpg,left,reversed,easy,4,,,,,
,,,,,6400d919945d23676a68b781,001,28,Female,Luxembourg,MA,2024-02-26_17h19.21.420,CRL1e,2023.2.3,MacIntel,59.52380952,65dbad3905fde4fe1981dc61,65dcc804cf3073155f828e88,,,,,,,,,,,189.7183,0.6,190.3179,190.3179,191.5185,right,1,1.1882,,191.5185,192.518,0,7,7,1,1,total,2,images/Ex5.jpg,right,reversed,easy,4,,,,,
,,,,,6400d919945d23676a68b781,001,28,Female,Luxembourg,MA,2024-02-26_17h19.21.420,CRL1e,2023.2.3,MacIntel,59.52380952,65dbad3905fde4fe1981dc61,65dcc804cf3073155f828e88,,,,,,,,,,,192.5183,1.1,193.618,193.618,194.4351,right,1,0.8049,,194.4351,195.4347,1,0,8,1,1,total,2,images/Ex5.jpg,right,reversed,easy,4,,,,,
,,,,,6400d919945d23676a68b781,001,28,Female,Luxembourg,MA,2024-02-26_17h19.21.420,CRL1e,2023.2.3,MacIntel,59.52380952,65dbad3905fde4fe1981dc61,65dcc804cf3073155f828e88,,,,,,,,,,,195.435,1.5,196.9344,196.9344,197.835,left,1,0.8931,,197.835,198.8344,1,1,9,7,1,total,2,images/Ex8.jpg,left,reversed,easy,4,,,,,
,,,,,6400d919945d23676a68b781,001,28,Female,Luxembourg,MA,2024-02-26_17h19.21.420,CRL1e,2023.2.3,MacIntel,59.52380952,65dbad3905fde4fe1981dc61,65dcc804cf3073155f828e88,,,,,,,,,,,198.8346,1.3,200.1344,200.1344,201.3533,left,1,1.2152,,201.3534,202.3512,1,2,10,4,1,total,2,images/Ex7.jpg,left,reversed,easy,4,,,,,
,,,,,6400d919945d23676a68b781,001,28,Female,Luxembourg,MA,2024-02-26_17h19.21.420,CRL1e,2023.2.3,MacIntel,59.52380952,65dbad3905fde4fe1981dc61,65dcc804cf3073155f828e88,,,,,,,,,,,202.3515,0.5,202.8511,202.8511,204.1849,left,1,1.3258,,204.1849,205.1847,1,3,11,6,1,total,2,images/Ex8.jpg,left,reversed,easy,4,,,,,
,,,,,6400d919945d23676a68b781,001,28,Female,Luxembourg,MA,2024-02-26_17h19.21.420,CRL1e,2023.2.3,MacIntel,59.52380952,65dbad3905fde4fe1981dc61,65dcc804cf3073155f828e88,,,,,,,,,,,205.1957,0.9,206.0843,206.0843,207.5035,left,1,1.4157,,207.5035,208.5009,1,4,12,5,1,total,2,images/Ex7.jpg,left,reversed,easy,4,,,,,
,,,,,6400d919945d23676a68b781,001,28,Female,Luxembourg,MA,2024-02-26_17h19.21.420,CRL1e,2023.2.3,MacIntel,59.52380952,65dbad3905fde4fe1981dc61,65dcc804cf3073155f828e88,,,,,,,,,,,208.5012,1.3,209.8009,209.8009,211.0516,right,1,1.2383,,211.0516,212.0519,1,5,13,3,1,total,2,images/Ex6.jpg,right,reversed,easy,4,,,,,
,,,,,6400d919945d23676a68b781,001,28,Female,Luxembourg,MA,2024-02-26_17h19.21.420,CRL1e,2023.2.3,MacIntel,59.52380952,65dbad3905fde4fe1981dc61,65dcc804cf3073155f828e88,,,,,,,,,,,212.0522,1.3,213.3508,213.3508,214.4016,right,1,1.0451,,214.4017,215.4008,1,6,14,0,1,total,2,images/Ex5.jpg,right,reversed,easy,4,,,,,
,,,,,6400d919945d23676a68b781,001,28,Female,Luxembourg,MA,2024-02-26_17h19.21.420,CRL1e,2023.2.3,MacIntel,59.52380952,65dbad3905fde4fe1981dc61,65dcc804cf3073155f828e88,,,,,,,,,,,215.4011,1,216.4008,216.4008,217.3537,right,1,0.9497,,217.3537,218.351,1,7,15,2,1,total,2,images/Ex6.jpg,right,reversed,easy,4,,,,,
,,,,,6400d919945d23676a68b781,001,28,Female,Luxembourg,MA,2024-02-26_17h19.21.420,CRL1e,2023.2.3,MacIntel,59.52380952,65dbad3905fde4fe1981dc61,65dcc804cf3073155f828e88,,,,,,,,,,,218.3513,1.1,219.4508,219.4508,220.4518,right,0,0.9911,,220.4519,221.4508,2,0,16,5,1,total,2,images/Ex7.jpg,left,reversed,easy,4,,,,,
,,,,,6400d919945d23676a68b781,001,28,Female,Luxembourg,MA,2024-02-26_17h19.21.420,CRL1e,2023.2.3,MacIntel,59.52380952,65dbad3905fde4fe1981dc61,65dcc804cf3073155f828e88,,,,,,,,,,,221.4512,1.5,222.9508,222.9508,223.7845,right,1,0.8302,,223.7845,224.7842,2,1,17,1,1,total,2,images/Ex5.jpg,right,reversed,easy,4,,,,,
,,,,,6400d919945d23676a68b781,001,28,Female,Luxembourg,MA,2024-02-26_17h19.21.420,CRL1e,2023.2.3,MacIntel,59.52380952,65dbad3905fde4fe1981dc61,65dcc804cf3073155f828e88,,,,,,,,,,,224.7845,0.6,225.3844,225.3844,227.0355,left,1,1.6479,,227.0355,228.0342,2,2,18,4,1,total,2,images/Ex7.jpg,left,reversed,easy,4,,,,,
,,,,,6400d919945d23676a68b781,001,28,Female,Luxembourg,MA,2024-02-26_17h19.21.420,CRL1e,2023.2.3,MacIntel,59.52380952,65dbad3905fde4fe1981dc61,65dcc804cf3073155f828e88,,,,,,,,,,,228.0345,1.2,229.234,229.2341,230.1348,right,1,0.8884,,230.1348,231.1349,2,3,19,0,1,total,2,images/Ex5.jpg,right,reversed,easy,4,,,,,
,,,,,6400d919945d23676a68b781,001,28,Female,Luxembourg,MA,2024-02-26_17h19.21.420,CRL1e,2023.2.3,MacIntel,59.52380952,65dbad3905fde4fe1981dc61,65dcc804cf3073155f828e88,,,,,,,,,,,231.1352,0.5,231.6343,231.6343,233.2345,left,0,1.5965,,233.2345,234.2341,2,4,20,3,1,total,2,images/Ex6.jpg,right,reversed,easy,4,,,,,
,,,,,6400d919945d23676a68b781,001,28,Female,Luxembourg,MA,2024-02-26_17h19.21.420,CRL1e,2023.2.3,MacIntel,59.52380952,65dbad3905fde4fe1981dc61,65dcc804cf3073155f828e88,,,,,,,,,,,234.2344,0.9,235.1342,235.1342,236.0693,left,1,0.9273,,236.0693,237.0672,2,5,21,6,1,total,2,images/Ex8.jpg,left,reversed,easy,4,,,,,
,,,,,6400d919945d23676a68b781,001,28,Female,Luxembourg,MA,2024-02-26_17h19.21.420,CRL1e,2023.2.3,MacIntel,59.52380952,65dbad3905fde4fe1981dc61,65dcc804cf3073155f828e88,,,,,,,,,,,237.0675,0.9,237.9681,237.9682,238.6691,right,1,0.6873,,238.6691,239.6671,2,6,22,2,1,total,2,images/Ex6.jpg,right,reversed,easy,4,,,,,
,,,,,6400d919945d23676a68b781,001,28,Female,Luxembourg,MA,2024-02-26_17h19.21.420,CRL1e,2023.2.3,MacIntel,59.52380952,65dbad3905fde4fe1981dc61,65dcc804cf3073155f828e88,,,,,,,,,,,239.6675,1.1,240.7673,240.7673,242.0195,left,1,1.249,,242.0195,243.0172,2,7,23,7,1,total,2,images/Ex8.jpg,left,reversed,easy,4,,,,,
,,,,,6400d919945d23676a68b781,001,28,Female,Luxembourg,MA,2024-02-26_17h19.21.420,CRL1e,2023.2.3,MacIntel,59.52380952,65dbad3905fde4fe1981dc61,65dcc804cf3073155f828e88,,,,,,,,,,,243.0284,0.9,243.9172,243.9173,246.1672,right,1,2.2392,,246.1673,247.167,3,0,24,2,1,total,2,images/Ex6.jpg,right,reversed,easy,4,,,,,
,,,,,6400d919945d23676a68b781,001,28,Female,Luxembourg,MA,2024-02-26_17h19.21.420,CRL1e,2023.2.3,MacIntel,59.52380952,65dbad3905fde4fe1981dc61,65dcc804cf3073155f828e88,,,,,,,,,,,247.1776,1.3,248.467,248.467,249.2507,right,1,0.7759,,249.2508,250.2504,3,1,25,1,1,total,2,images/Ex5.jpg,right,reversed,easy,4,,,,,
,,,,,6400d919945d23676a68b781,001,28,Female,Luxembourg,MA,2024-02-26_17h19.21.420,CRL1e,2023.2.3,MacIntel,59.52380952,65dbad3905fde4fe1981dc61,65dcc804cf3073155f828e88,,,,,,,,,,,250.2507,1.1,251.3503,251.3504,252.519,left,0,1.1655,,252.5191,253.517,3,2,26,3,1,total,2,images/Ex6.jpg,right,reversed,easy,4,,,,,
,,,,,6400d919945d23676a68b781,001,28,Female,Luxembourg,MA,2024-02-26_17h19.21.420,CRL1e,2023.2.3,MacIntel,59.52380952,65dbad3905fde4fe1981dc61,65dcc804cf3073155f828e88,,,,,,,,,,,253.5173,1.4,254.917,254.917,255.8707,left,1,0.9507,,255.8707,256.8669,3,3,27,4,1,total,2,images/Ex7.jpg,left,reversed,easy,4,,,,,
,,,,,6400d919945d23676a68b781,001,28,Female,Luxembourg,MA,2024-02-26_17h19.21.420,CRL1e,2023.2.3,MacIntel,59.52380952,65dbad3905fde4fe1981dc61,65dcc804cf3073155f828e88,,,,,,,,,,,256.8672,1.3,258.167,258.167,259.001,right,1,0.8284,,259.001,260.0002,3,4,28,0,1,total,2,images/Ex5.jpg,right,reversed,easy,4,,,,,
,,,,,6400d919945d23676a68b781,001,28,Female,Luxembourg,MA,2024-02-26_17h19.21.420,CRL1e,2023.2.3,MacIntel,59.52380952,65dbad3905fde4fe1981dc61,65dcc804cf3073155f828e88,,,,,,,,,,,260.0006,0.5,260.5002,260.5002,261.567,left,1,1.0552,,261.5671,262.5669,3,5,29,5,1,total,2,images/Ex7.jpg,left,reversed,easy,4,,,,,
,,,,,6400d919945d23676a68b781,001,28,Female,Luxembourg,MA,2024-02-26_17h19.21.420,CRL1e,2023.2.3,MacIntel,59.52380952,65dbad3905fde4fe1981dc61,65dcc804cf3073155f828e88,,,,,,,,,,,262.5672,0.7,263.2668,263.2669,264.1674,left,1,0.8925,,264.1675,265.1669,3,6,30,7,1,total,2,images/Ex8.jpg,left,reversed,easy,4,,,,,
,,,,,6400d919945d23676a68b781,001,28,Female,Luxembourg,MA,2024-02-26_17h19.21.420,CRL1e,2023.2.3,MacIntel,59.52380952,65dbad3905fde4fe1981dc61,65dcc804cf3073155f828e88,,,,,,,,,,,265.1674,1.3,266.4668,266.4668,267.2842,left,1,0.8057,,267.2842,268.2834,3,7,31,6,1,total,2,images/Ex8.jpg,left,reversed,easy,4,,,,,
,,,,,6400d919945d23676a68b781,001,28,Female,Luxembourg,MA,2024-02-26_17h19.21.420,CRL1e,2023.2.3,MacIntel,59.52380952,65dbad3905fde4fe1981dc61,65dcc804cf3073155f828e88,,,,,,,,,,,268.2837,1.2,269.4834,269.4834,271.5341,right,1,2.0465,,271.5341,272.5336,4,0,32,3,1,total,2,images/Ex6.jpg,right,reversed,easy,4,,,,,
,,,,,6400d919945d23676a68b781,001,28,Female,Luxembourg,MA,2024-02-26_17h19.21.420,CRL1e,2023.2.3,MacIntel,59.52380952,65dbad3905fde4fe1981dc61,65dcc804cf3073155f828e88,,,,,,,,,,,272.5338,0.7,273.2333,273.2334,274.1671,right,1,0.9284,,274.1671,275.1666,4,1,33,0,1,total,2,images/Ex5.jpg,right,reversed,easy,4,,,,,
,,,,,6400d919945d23676a68b781,001,28,Female,Luxembourg,MA,2024-02-26_17h19.21.420,CRL1e,2023.2.3,MacIntel,59.52380952,65dbad3905fde4fe1981dc61,65dcc804cf3073155f828e88,,,,,,,,,,,275.167,0.9,276.0668,276.0668,277.346,left,1,1.2592,,277.3461,278.3499,4,2,34,4,1,total,2,images/Ex7.jpg,left,reversed,easy,4,,,,,
,,,,,6400d919945d23676a68b781,001,28,Female,Luxembourg,MA,2024-02-26_17h19.21.420,CRL1e,2023.2.3,MacIntel,59.52380952,65dbad3905fde4fe1981dc61,65dcc804cf3073155f828e88,,,,,,,,,,,278.3502,0.9,279.2501,279.2502,280.2838,left,1,1.0214,,280.2838,281.2833,4,3,35,5,1,total,2,images/Ex7.jpg,left,reversed,easy,4,,,,,
,,,,,6400d919945d23676a68b781,001,28,Female,Luxembourg,MA,2024-02-26_17h19.21.420,CRL1e,2023.2.3,MacIntel,59.52380952,65dbad3905fde4fe1981dc61,65dcc804cf3073155f828e88,,,,,,,,,,,281.2835,1.1,282.3832,282.3832,283.3005,left,1,0.905,,283.3005,284.3,4,4,36,7,1,total,2,images/Ex8.jpg,left,reversed,easy,4,,,,,
,,,,,6400d919945d23676a68b781,001,28,Female,Luxembourg,MA,2024-02-26_17h19.21.420,CRL1e,2023.2.3,MacIntel,59.52380952,65dbad3905fde4fe1981dc61,65dcc804cf3073155f828e88,,,,,,,,,,,284.3003,1,285.2999,285.2999,286.7514,right,1,1.4482,,286.7514,287.7501,4,5,37,2,1,total,2,images/Ex6.jpg,right,reversed,easy,4,,,,,
,,,,,6400d919945d23676a68b781,001,28,Female,Luxembourg,MA,2024-02-26_17h19.21.420,CRL1e,2023.2.3,MacIntel,59.52380952,65dbad3905fde4fe1981dc61,65dcc804cf3073155f828e88,,,,,,,,,,,287.7504,0.9,288.6499,288.65,289.5004,right,1,0.8442,,289.5004,290.5008,4,6,38,1,1,total,2,images/Ex5.jpg,right,reversed,easy,4,,,,,
,,,,,6400d919945d23676a68b781,001,28,Female,Luxembourg,MA,2024-02-26_17h19.21.420,CRL1e,2023.2.3,MacIntel,59.52380952,65dbad3905fde4fe1981dc61,65dcc804cf3073155f828e88,,,,,,,,,,,290.5011,1.3,291.7999,291.7999,293.2839,left,1,1.4712,,293.2839,294.2831,4,7,39,6,1,total,2,images/Ex8.jpg,left,reversed,easy,4,,,,,
,,,,,6400d919945d23676a68b781,001,28,Female,Luxembourg,MA,2024-02-26_17h19.21.420,CRL1e,2023.2.3,MacIntel,59.52380952,65dbad3905fde4fe1981dc61,65dcc804cf3073155f828e88,,,,,,,,,,,294.2836,1,295.2831,295.2832,296.1511,left,0,0.8552,,296.1512,297.1508,5,0,40,2,1,total,2,images/Ex6.jpg,right,reversed,easy,4,,,,,
,,,,,6400d919945d23676a68b781,001,28,Female,Luxembourg,MA,2024-02-26_17h19.21.420,CRL1e,2023.2.3,MacIntel,59.52380952,65dbad3905fde4fe1981dc61,65dcc804cf3073155f828e88,,,,,,,,,,,297.1512,1,298.1499,298.1499,299.1008,left,1,0.9384,,299.1008,300.101,5,1,41,6,1,total,2,images/Ex8.jpg,left,reversed,easy,4,,,,,
,,,,,6400d919945d23676a68b781,001,28,Female,Luxembourg,MA,2024-02-26_17h19.21.420,CRL1e,2023.2.3,MacIntel,59.52380952,65dbad3905fde4fe1981dc61,65dcc804cf3073155f828e88,,,,,,,,,,,300.1015,1,301.1,301.1001,302.2174,left,1,1.1065,,302.2175,303.2164,5,2,42,5,1,total,2,images/Ex7.jpg,left,reversed,easy,4,,,,,
,,,,,6400d919945d23676a68b781,001,28,Female,Luxembourg,MA,2024-02-26_17h19.21.420,CRL1e,2023.2.3,MacIntel,59.52380952,65dbad3905fde4fe1981dc61,65dcc804cf3073155f828e88,,,,,,,,,,,303.2169,1.2,304.4168,304.4168,305.2337,left,1,0.8065,,305.2337,306.233,5,3,43,7,1,total,2,images/Ex8.jpg,left,reversed,easy,4,,,,,
,,,,,6400d919945d23676a68b781,001,28,Female,Luxembourg,MA,2024-02-26_17h19.21.420,CRL1e,2023.2.3,MacIntel,59.52380952,65dbad3905fde4fe1981dc61,65dcc804cf3073155f828e88,,,,,,,,,,,306.2334,1.2,307.433,307.4331,308.5507,right,1,1.1098,,308.5507,309.5504,5,4,44,1,1,total,2,images/Ex5.jpg,right,reversed,easy,4,,,,,
,,,,,6400d919945d23676a68b781,001,28,Female,Luxembourg,MA,2024-02-26_17h19.21.420,CRL1e,2023.2.3,MacIntel,59.52380952,65dbad3905fde4fe1981dc61,65dcc804cf3073155f828e88,,,,,,,,,,,309.5509,1.2,310.7502,310.7502,311.7672,right,1,1.0072,,311.7673,312.7665,5,5,45,3,1,total,2,images/Ex6.jpg,right,reversed,easy,4,,,,,
,,,,,6400d919945d23676a68b781,001,28,Female,Luxembourg,MA,2024-02-26_17h19.21.420,CRL1e,2023.2.3,MacIntel,59.52380952,65dbad3905fde4fe1981dc61,65dcc804cf3073155f828e88,,,,,,,,,,,312.7669,1.4,314.1663,314.1663,315.8165,left,1,1.6447,,315.8165,316.8166,5,6,46,4,1,total,2,images/Ex7.jpg,left,reversed,easy,4,,,,,
,,,,,6400d919945d23676a68b781,001,28,Female,Luxembourg,MA,2024-02-26_17h19.21.420,CRL1e,2023.2.3,MacIntel,59.52380952,65dbad3905fde4fe1981dc61,65dcc804cf3073155f828e88,,,,,,,,,,,316.817,0.6,317.4164,317.4164,318.3833,right,1,0.9604,,318.3833,319.3829,5,7,47,0,1,total,2,images/Ex5.jpg,right,reversed,easy,4,,,,,
,,,,,6400d919945d23676a68b781,001,28,Female,Luxembourg,MA,2024-02-26_17h19.21.420,CRL1e,2023.2.3,MacIntel,59.52380952,65dbad3905fde4fe1981dc61,65dcc804cf3073155f828e88,,,,,,319.3842,322.6162,space,3.2166,,322.6201,0.8,323.4164,323.4164,324.3664,left,1,0.9467,,324.3664,325.3661,0,0,0,0,1,partial,1,images/Ex1.jpg,left,training,easy,4,,,,,
,,,,,6400d919945d23676a68b781,001,28,Female,Luxembourg,MA,2024-02-26_17h19.21.420,CRL1e,2023.2.3,MacIntel,59.52380952,65dbad3905fde4fe1981dc61,65dcc804cf3073155f828e88,,,,,,,,,,,325.3665,0.9,326.2665,326.2666,327.2693,right,1,0.9979,,327.2694,328.2663,0,1,1,7,1,partial,1,images/Ex4.jpg,right,training,easy,4,,,,,
,,,,,6400d919945d23676a68b781,001,28,Female,Luxembourg,MA,2024-02-26_17h19.21.420,CRL1e,2023.2.3,MacIntel,59.52380952,65dbad3905fde4fe1981dc61,65dcc804cf3073155f828e88,,,,,,,,,,,328.267,1.4,329.666,329.6661,330.4439,right,1,0.7748,,330.4439,331.4329,0,2,2,6,1,partial,1,images/Ex4.jpg,right,training,easy,4,,,,,
,,,,,6400d919945d23676a68b781,001,28,Female,Luxembourg,MA,2024-02-26_17h19.21.420,CRL1e,2023.2.3,MacIntel,59.52380952,65dbad3905fde4fe1981dc61,65dcc804cf3073155f828e88,,,,,,,,,,,331.4334,0.5,331.9327,331.9327,332.9161,left,0,0.9785,,332.9161,333.916,0,3,3,4,1,partial,1,images/Ex3.jpg,right,training,easy,4,,,,,
,,,,,6400d919945d23676a68b781,001,28,Female,Luxembourg,MA,2024-02-26_17h19.21.420,CRL1e,2023.2.3,MacIntel,59.52380952,65dbad3905fde4fe1981dc61,65dcc804cf3073155f828e88,,,,,,,,,,,333.9163,0.9,334.816,334.816,335.933,right,1,1.1134,,335.9331,336.9326,0,4,4,5,1,partial,1,images/Ex3.jpg,right,training,easy,4,,,,,
,,,,,6400d919945d23676a68b781,001,28,Female,Luxembourg,MA,2024-02-26_17h19.21.420,CRL1e,2023.2.3,MacIntel,59.52380952,65dbad3905fde4fe1981dc61,65dcc804cf3073155f828e88,,,,,,,,,,,336.9331,1.1,338.0328,338.0328,339.1332,left,1,1.0898,,339.1332,340.1325,0,5,5,1,1,partial,1,images/Ex1.jpg,left,training,easy,4,,,,,
,,,,,6400d919945d23676a68b781,001,28,Female,Luxembourg,MA,2024-02-26_17h19.21.420,CRL1e,2023.2.3,MacIntel,59.52380952,65dbad3905fde4fe1981dc61,65dcc804cf3073155f828e88,,,,,,,,,,,340.133,1.5,341.6325,341.6326,342.6839,left,1,1.0505,,342.684,343.6826,0,6,6,2,1,partial,1,images/Ex2.jpg,left,training,easy,4,,,,,
,,,,,6400d919945d23676a68b781,001,28,Female,Luxembourg,MA,2024-02-26_17h19.21.420,CRL1e,2023.2.3,MacIntel,59.52380952,65dbad3905fde4fe1981dc61,65dcc804cf3073155f828e88,,,,,,,,,,,343.6831,1.5,345.1831,345.1831,346.283,left,1,1.0882,,346.2831,347.2828,0,7,7,3,1,partial,1,images/Ex2.jpg,left,training,easy,4,,,,,
,,,,,6400d919945d23676a68b781,001,28,Female,Luxembourg,MA,2024-02-26_17h19.21.420,CRL1e,2023.2.3,MacIntel,59.52380952,65dbad3905fde4fe1981dc61,65dcc804cf3073155f828e88,,,,,,,,,,,347.2832,1.1,348.3825,348.3826,349.8664,right,1,1.4778,,349.8664,350.8667,1,0,8,6,1,partial,1,images/Ex4.jpg,right,training,easy,4,,,,,
,,,,,6400d919945d23676a68b781,001,28,Female,Luxembourg,MA,2024-02-26_17h19.21.420,CRL1e,2023.2.3,MacIntel,59.52380952,65dbad3905fde4fe1981dc61,65dcc804cf3073155f828e88,,,,,,,,,,,350.867,0.7,351.5657,351.5657,352.9835,left,0,1.4135,,352.9835,353.983,1,1,9,4,1,partial,1,images/Ex3.jpg,right,training,easy,4,,,,,
,,,,,6400d919945d23676a68b781,001,28,Female,Luxembourg,MA,2024-02-26_17h19.21.420,CRL1e,2023.2.3,MacIntel,59.52380952,65dbad3905fde4fe1981dc61,65dcc804cf3073155f828e88,,,,,,,,,,,353.9835,0.9,354.8822,354.8823,356.0001,left,1,1.1107,,356.0001,356.9998,1,2,10,1,1,partial,1,images/Ex1.jpg,left,training,easy,4,,,,,
,,,,,6400d919945d23676a68b781,001,28,Female,Luxembourg,MA,2024-02-26_17h19.21.420,CRL1e,2023.2.3,MacIntel,59.52380952,65dbad3905fde4fe1981dc61,65dcc804cf3073155f828e88,,,,,,,,,,,357.0002,1.1,358.0998,358.0998,359.1027,left,1,1.0015,,359.1028,360.1,1,3,11,3,1,partial,1,images/Ex2.jpg,left,training,easy,4,,,,,
,,,,,6400d919945d23676a68b781,001,28,Female,Luxembourg,MA,2024-02-26_17h19.21.420,CRL1e,2023.2.3,MacIntel,59.52380952,65dbad3905fde4fe1981dc61,65dcc804cf3073155f828e88,,,,,,,,,,,360.1006,1.1,361.1998,361.1998,361.9176,left,1,0.714,,361.9176,362.9156,1,4,12,2,1,partial,1,images/Ex2.jpg,left,training,easy,4,,,,,
,,,,,6400d919945d23676a68b781,001,28,Female,Luxembourg,MA,2024-02-26_17h19.21.420,CRL1e,2023.2.3,MacIntel,59.52380952,65dbad3905fde4fe1981dc61,65dcc804cf3073155f828e88,,,,,,,,,,,362.9159,1,363.9158,363.9158,365.4329,left,1,1.5124,,365.4329,366.4322,1,5,13,0,1,partial,1,images/Ex1.jpg,left,training,easy,4,,,,,
,,,,,6400d919945d23676a68b781,001,28,Female,Luxembourg,MA,2024-02-26_17h19.21.420,CRL1e,2023.2.3,MacIntel,59.52380952,65dbad3905fde4fe1981dc61,65dcc804cf3073155f828e88,,,,,,,,,,,366.4326,0.8,367.2322,367.2322,368.0663,right,1,0.8295,,368.0664,369.0655,1,6,14,7,1,partial,1,images/Ex4.jpg,right,training,easy,4,,,,,
,,,,,6400d919945d23676a68b781,001,28,Female,Luxembourg,MA,2024-02-26_17h19.21.420,CRL1e,2023.2.3,MacIntel,59.52380952,65dbad3905fde4fe1981dc61,65dcc804cf3073155f828e88,,,,,,,,,,,369.0659,1.1,370.1657,370.1658,371.2452,right,1,1.0759,,371.2452,372.25,1,7,15,5,1,partial,1,images/Ex3.jpg,right,training,easy,4,,,,,
,,,,,6400d919945d23676a68b781,001,28,Female,Luxembourg,MA,2024-02-26_17h19.21.420,CRL1e,2023.2.3,MacIntel,59.52380952,65dbad3905fde4fe1981dc61,65dcc804cf3073155f828e88,,,,,,,,,,,372.2505,0.9,373.15,373.15,374.3326,left,1,1.1753,,374.3327,375.3322,2,0,16,1,1,partial,1,images/Ex1.jpg,left,training,easy,4,,,,,
,,,,,6400d919945d23676a68b781,001,28,Female,Luxembourg,MA,2024-02-26_17h19.21.420,CRL1e,2023.2.3,MacIntel,59.52380952,65dbad3905fde4fe1981dc61,65dcc804cf3073155f828e88,,,,,,,,,,,375.3325,1.3,376.632,376.632,377.601,left,1,0.9601,,377.601,378.5998,2,1,17,3,1,partial,1,images/Ex2.jpg,left,training,easy,4,,,,,
,,,,,6400d919945d23676a68b781,001,28,Female,Luxembourg,MA,2024-02-26_17h19.21.420,CRL1e,2023.2.3,MacIntel,59.52380952,65dbad3905fde4fe1981dc61,65dcc804cf3073155f828e88,,,,,,,,,,,378.6006,0.9,379.4988,379.4989,380.6164,right,1,1.1086,,380.6165,381.6161,2,2,18,7,1,partial,1,images/Ex4.jpg,right,training,easy,4,,,,,
,,,,,6400d919945d23676a68b781,001,28,Female,Luxembourg,MA,2024-02-26_17h19.21.420,CRL1e,2023.2.3,MacIntel,59.52380952,65dbad3905fde4fe1981dc61,65dcc804cf3073155f828e88,,,,,,,,,,,381.6165,0.7,382.3156,382.3156,383.5662,left,1,1.2395,,383.5662,384.5654,2,3,19,0,1,partial,1,images/Ex1.jpg,left,training,easy,4,,,,,
,,,,,6400d919945d23676a68b781,001,28,Female,Luxembourg,MA,2024-02-26_17h19.21.420,CRL1e,2023.2.3,MacIntel,59.52380952,65dbad3905fde4fe1981dc61,65dcc804cf3073155f828e88,,,,,,,,,,,384.5658,0.8,385.3656,385.3656,386.2165,right,1,0.8419,,386.2165,387.2154,2,4,20,6,1,partial,1,images/Ex4.jpg,right,training,easy,4,,,,,
,,,,,6400d919945d23676a68b781,001,28,Female,Luxembourg,MA,2024-02-26_17h19.21.420,CRL1e,2023.2.3,MacIntel,59.52380952,65dbad3905fde4fe1981dc61,65dcc804cf3073155f828e88,,,,,,,,,,,387.2157,1.1,388.3154,388.3154,389.5166,right,1,1.1943,,389.5167,390.5153,2,5,21,4,1,partial,1,images/Ex3.jpg,right,training,easy,4,,,,,
,,,,,6400d919945d23676a68b781,001,28,Female,Luxembourg,MA,2024-02-26_17h19.21.420,CRL1e,2023.2.3,MacIntel,59.52380952,65dbad3905fde4fe1981dc61,65dcc804cf3073155f828e88,,,,,,,,,,,390.5157,1.2,391.7153,391.7154,392.3325,right,1,0.61,,392.3325,393.3323,2,6,22,5,1,partial,1,images/Ex3.jpg,right,training,easy,4,,,,,
,,,,,6400d919945d23676a68b781,001,28,Female,Luxembourg,MA,2024-02-26_17h19.21.420,CRL1e,2023.2.3,MacIntel,59.52380952,65dbad3905fde4fe1981dc61,65dcc804cf3073155f828e88,,,,,,,,,,,393.3326,0.8,394.1321,394.1321,394.8824,left,1,0.7463,,394.8824,395.8818,2,7,23,2,1,partial,1,images/Ex2.jpg,left,training,easy,4,,,,,
,,,,,6400d919945d23676a68b781,001,28,Female,Luxembourg,MA,2024-02-26_17h19.21.420,CRL1e,2023.2.3,MacIntel,59.52380952,65dbad3905fde4fe1981dc61,65dcc804cf3073155f828e88,,,,,,,,,,,395.8822,1.2,397.0819,397.0819,397.7659,left,1,0.6766,,397.7659,398.7655,3,0,24,3,1,partial,1,images/Ex2.jpg,left,training,easy,4,,,,,
,,,,,6400d919945d23676a68b781,001,28,Female,Luxembourg,MA,2024-02-26_17h19.21.420,CRL1e,2023.2.3,MacIntel,59.52380952,65dbad3905fde4fe1981dc61,65dcc804cf3073155f828e88,,,,,,,,,,,398.7658,0.9,399.6656,399.6656,400.3662,right,1,0.6917,,400.3663,401.3663,3,1,25,6,1,partial,1,images/Ex4.jpg,right,training,easy,4,,,,,
,,,,,6400d919945d23676a68b781,001,28,Female,Luxembourg,MA,2024-02-26_17h19.21.420,CRL1e,2023.2.3,MacIntel,59.52380952,65dbad3905fde4fe1981dc61,65dcc804cf3073155f828e88,,,,,,,,,,,401.3668,0.7,402.0652,402.0652,402.5991,left,0,0.5328,,402.5992,403.5996,3,2,26,5,1,partial,1,images/Ex3.jpg,right,training,easy,4,,,,,
,,,,,6400d919945d23676a68b781,001,28,Female,Luxembourg,MA,2024-02-26_17h19.21.420,CRL1e,2023.2.3,MacIntel,59.52380952,65dbad3905fde4fe1981dc61,65dcc804cf3073155f828e88,,,,,,,,,,,403.6,0.8,404.399,404.399,405.185,right,1,0.7819,,405.185,406.1816,3,3,27,7,1,partial,1,images/Ex4.jpg,right,training,easy,4,,,,,
,,,,,6400d919945d23676a68b781,001,28,Female,Luxembourg,MA,2024-02-26_17h19.21.420,CRL1e,2023.2.3,MacIntel,59.52380952,65dbad3905fde4fe1981dc61,65dcc804cf3073155f828e88,,,,,,,,,,,406.1821,1.1,407.2817,407.2817,407.973,left,1,0.6876,,407.973,408.9654,3,4,28,2,1,partial,1,images/Ex2.jpg,left,training,easy,4,,,,,
,,,,,6400d919945d23676a68b781,001,28,Female,Luxembourg,MA,2024-02-26_17h19.21.420,CRL1e,2023.2.3,MacIntel,59.52380952,65dbad3905fde4fe1981dc61,65dcc804cf3073155f828e88,,,,,,,,,,,408.9659,0.8,409.765,409.7651,410.2496,right,1,0.4719,,410.2497,411.2494,3,5,29,4,1,partial,1,images/Ex3.jpg,right,training,easy,4,,,,,
,,,,,6400d919945d23676a68b781,001,28,Female,Luxembourg,MA,2024-02-26_17h19.21.420,CRL1e,2023.2.3,MacIntel,59.52380952,65dbad3905fde4fe1981dc61,65dcc804cf3073155f828e88,,,,,,,,,,,411.25,0.8,412.0487,412.0487,412.8323,left,1,0.7768,,412.8323,413.8318,3,6,30,1,1,partial,1,images/Ex1.jpg,left,training,easy,4,,,,,
,,,,,6400d919945d23676a68b781,001,28,Female,Luxembourg,MA,2024-02-26_17h19.21.420,CRL1e,2023.2.3,MacIntel,59.52380952,65dbad3905fde4fe1981dc61,65dcc804cf3073155f828e88,,,,,,,,,,,413.8322,1.2,415.0322,415.0322,416.1404,left,1,1.1075,,416.1404,417.1323,3,7,31,0,1,partial,1,images/Ex1.jpg,left,training,easy,4,,,,,
,,,,,6400d919945d23676a68b781,001,28,Female,Luxembourg,MA,2024-02-26_17h19.21.420,CRL1e,2023.2.3,MacIntel,59.52380952,65dbad3905fde4fe1981dc61,65dcc804cf3073155f828e88,,,,,,,,,,,417.1465,1.5,418.6493,418.6494,419.3321,right,1,0.6784,,419.3322,420.332,4,0,32,7,1,partial,1,images/Ex4.jpg,right,training,easy,4,,,,,
,,,,,6400d919945d23676a68b781,001,28,Female,Luxembourg,MA,2024-02-26_17h19.21.420,CRL1e,2023.2.3,MacIntel,59.52380952,65dbad3905fde4fe1981dc61,65dcc804cf3073155f828e88,,,,,,,,,,,420.3324,1,421.3315,421.3315,422.5002,left,1,1.1605,,422.5003,423.4992,4,1,33,1,1,partial,1,images/Ex1.jpg,left,training,easy,4,,,,,
,,,,,6400d919945d23676a68b781,001,28,Female,Luxembourg,MA,2024-02-26_17h19.21.420,CRL1e,2023.2.3,MacIntel,59.52380952,65dbad3905fde4fe1981dc61,65dcc804cf3073155f828e88,,,,,,,,,,,423.4998,1.5,424.9993,424.9994,425.7033,left,1,0.6986,,425.7033,426.6992,4,2,34,2,1,partial,1,images/Ex2.jpg,left,training,easy,4,,,,,
,,,,,6400d919945d23676a68b781,001,28,Female,Luxembourg,MA,2024-02-26_17h19.21.420,CRL1e,2023.2.3,MacIntel,59.52380952,65dbad3905fde4fe1981dc61,65dcc804cf3073155f828e88,,,,,,,,,,,426.6997,1.4,428.0993,428.0993,428.7824,right,1,0.6767,,428.7824,429.782,4,3,35,6,1,partial,1,images/Ex4.jpg,right,training,easy,4,,,,,
,,,,,6400d919945d23676a68b781,001,28,Female,Luxembourg,MA,2024-02-26_17h19.21.420,CRL1e,2023.2.3,MacIntel,59.52380952,65dbad3905fde4fe1981dc61,65dcc804cf3073155f828e88,,,,,,,,,,,429.7825,1.1,430.8816,430.8816,431.7161,right,1,0.8274,,431.7162,432.7151,4,4,36,5,1,partial,1,images/Ex3.jpg,right,training,easy,4,,,,,
,,,,,6400d919945d23676a68b781,001,28,Female,Luxembourg,MA,2024-02-26_17h19.21.420,CRL1e,2023.2.3,MacIntel,59.52380952,65dbad3905fde4fe1981dc61,65dcc804cf3073155f828e88,,,,,,,,,,,432.7155,1.5,434.2148,434.2149,434.9321,left,1,0.7057,,434.9321,435.9316,4,5,37,3,1,partial,1,images/Ex2.jpg,left,training,easy,4,,,,,
,,,,,6400d919945d23676a68b781,001,28,Female,Luxembourg,MA,2024-02-26_17h19.21.420,CRL1e,2023.2.3,MacIntel,59.52380952,65dbad3905fde4fe1981dc61,65dcc804cf3073155f828e88,,,,,,,,,,,435.9321,1.3,437.2314,437.2314,437.9818,left,1,0.7395,,437.9818,438.9812,4,6,38,0,1,partial,1,images/Ex1.jpg,left,training,easy,4,,,,,
,,,,,6400d919945d23676a68b781,001,28,Female,Luxembourg,MA,2024-02-26_17h19.21.420,CRL1e,2023.2.3,MacIntel,59.52380952,65dbad3905fde4fe1981dc61,65dcc804cf3073155f828e88,,,,,,,,,,,438.9815,1,439.9818,439.9818,440.9681,right,1,0.9818,,440.9681,441.9647,4,7,39,4,1,partial,1,images/Ex3.jpg,right,training,easy,4,,,,,
,,,,,6400d919945d23676a68b781,001,28,Female,Luxembourg,MA,2024-02-26_17h19.21.420,CRL1e,2023.2.3,MacIntel,59.52380952,65dbad3905fde4fe1981dc61,65dcc804cf3073155f828e88,,,,,,,,,,,441.9652,0.6,442.565,442.565,443.3146,right,1,0.7445,,443.3147,444.3145,5,0,40,7,1,partial,1,images/Ex4.jpg,right,training,easy,4,,,,,
,,,,,6400d919945d23676a68b781,001,28,Female,Luxembourg,MA,2024-02-26_17h19.21.420,CRL1e,2023.2.3,MacIntel,59.52380952,65dbad3905fde4fe1981dc61,65dcc804cf3073155f828e88,,,,,,,,,,,444.3149,1.5,445.8154,445.8155,446.532,left,1,0.7102,,446.532,447.5321,5,1,41,0,1,partial,1,images/Ex1.jpg,left,training,easy,4,,,,,
,,,,,6400d919945d23676a68b781,001,28,Female,Luxembourg,MA,2024-02-26_17h19.21.420,CRL1e,2023.2.3,MacIntel,59.52380952,65dbad3905fde4fe1981dc61,65dcc804cf3073155f828e88,,,,,,,,,,,447.5325,0.6,448.1315,448.1316,448.8822,left,1,0.7384,,448.8823,449.8811,5,2,42,3,1,partial,1,images/Ex2.jpg,left,training,easy,4,,,,,
,,,,,6400d919945d23676a68b781,001,28,Female,Luxembourg,MA,2024-02-26_17h19.21.420,CRL1e,2023.2.3,MacIntel,59.52380952,65dbad3905fde4fe1981dc61,65dcc804cf3073155f828e88,,,,,,,,,,,449.8815,0.6,450.4822,450.4822,451.3811,right,1,0.8869,,451.3811,452.3813,5,3,43,5,1,partial,1,images/Ex3.jpg,right,training,easy,4,,,,,
,,,,,6400d919945d23676a68b781,001,28,Female,Luxembourg,MA,2024-02-26_17h19.21.420,CRL1e,2023.2.3,MacIntel,59.52380952,65dbad3905fde4fe1981dc61,65dcc804cf3073155f828e88,,,,,,,,,,,452.3817,1,453.3812,453.3812,453.832,right,1,0.4384,,453.832,454.8313,5,4,44,6,1,partial,1,images/Ex4.jpg,right,training,easy,4,,,,,
,,,,,6400d919945d23676a68b781,001,28,Female,Luxembourg,MA,2024-02-26_17h19.21.420,CRL1e,2023.2.3,MacIntel,59.52380952,65dbad3905fde4fe1981dc61,65dcc804cf3073155f828e88,,,,,,,,,,,454.8317,0.7,455.5312,455.5312,456.1812,right,1,0.6482,,456.1812,457.1812,5,5,45,4,1,partial,1,images/Ex3.jpg,right,training,easy,4,,,,,
,,,,,6400d919945d23676a68b781,001,28,Female,Luxembourg,MA,2024-02-26_17h19.21.420,CRL1e,2023.2.3,MacIntel,59.52380952,65dbad3905fde4fe1981dc61,65dcc804cf3073155f828e88,,,,,,,,,,,457.1815,1.4,458.5812,458.5813,459.2653,left,1,0.678,,459.2653,460.2644,5,6,46,2,1,partial,1,images/Ex2.jpg,left,training,easy,4,,,,,
,,,,,6400d919945d23676a68b781,001,28,Female,Luxembourg,MA,2024-02-26_17h19.21.420,CRL1e,2023.2.3,MacIntel,59.52380952,65dbad3905fde4fe1981dc61,65dcc804cf3073155f828e88,,,,,,,,,,,460.2647,1.4,461.6644,461.6644,462.4152,left,1,0.7452,,462.4152,463.4143,5,7,47,1,1,partial,1,images/Ex1.jpg,left,training,easy,4,,,,,
,,,,,6400d919945d23676a68b781,001,28,Female,Luxembourg,MA,2024-02-26_17h19.21.420,CRL1e,2023.2.3,MacIntel,59.52380952,65dbad3905fde4fe1981dc61,65dcc804cf3073155f828e88,,,,,,,,,,,463.4176,0.7,464.1154,464.1154,464.7308,left,0,0.6123,,464.7309,465.7312,0,0,0,0,1,partial,2,images/Ex1.jpg,right,reversed,easy,4,,,,,
,,,,,6400d919945d23676a68b781,001,28,Female,Luxembourg,MA,2024-02-26_17h19.21.420,CRL1e,2023.2.3,MacIntel,59.52380952,65dbad3905fde4fe1981dc61,65dcc804cf3073155f828e88,,,,,,,,,,,465.7317,1.4,467.1315,467.1316,468.0158,left,0,0.8763,,468.0158,469.0147,0,1,1,6,1,partial,2,images/Ex4.jpg,right,nonreversed,easy,4,,,,,
,,,,,6400d919945d23676a68b781,001,28,Female,Luxembourg,MA,2024-02-26_17h19.21.420,CRL1e,2023.2.3,MacIntel,59.52380952,65dbad3905fde4fe1981dc61,65dcc804cf3073155f828e88,,,,,,,,,,,469.0151,0.7,469.7153,469.7154,470.4644,left,1,0.7411,,470.4644,471.4643,0,2,2,3,1,partial,2,images/Ex2.jpg,left,nonreversed,easy,4,,,,,
,,,,,6400d919945d23676a68b781,001,28,Female,Luxembourg,MA,2024-02-26_17h19.21.420,CRL1e,2023.2.3,MacIntel,59.52380952,65dbad3905fde4fe1981dc61,65dcc804cf3073155f828e88,,,,,,,,,,,471.4646,1.5,472.9649,472.9649,473.6993,left,1,0.722,,473.6994,474.6983,0,3,3,2,1,partial,2,images/Ex2.jpg,left,nonreversed,easy,4,,,,,
,,,,,6400d919945d23676a68b781,001,28,Female,Luxembourg,MA,2024-02-26_17h19.21.420,CRL1e,2023.2.3,MacIntel,59.52380952,65dbad3905fde4fe1981dc61,65dcc804cf3073155f828e88,,,,,,,,,,,474.6987,1.1,475.798,475.798,476.7314,right,1,0.9221,,476.7315,477.7307,0,4,4,7,1,partial,2,images/Ex4.jpg,right,nonreversed,easy,4,,,,,
,,,,,6400d919945d23676a68b781,001,28,Female,Luxembourg,MA,2024-02-26_17h19.21.420,CRL1e,2023.2.3,MacIntel,59.52380952,65dbad3905fde4fe1981dc61,65dcc804cf3073155f828e88,,,,,,,,,,,477.7311,1.4,479.1311,479.1311,480.0813,right,0,0.9398,,480.0813,481.0806,0,5,5,5,1,partial,2,images/Ex3.jpg,left,reversed,easy,4,,,,,
,,,,,6400d919945d23676a68b781,001,28,Female,Luxembourg,MA,2024-02-26_17h19.21.420,CRL1e,2023.2.3,MacIntel,59.52380952,65dbad3905fde4fe1981dc61,65dcc804cf3073155f828e88,,,,,,,,,,,481.0809,0.6,481.6809,481.6809,482.7004,right,1,1.0154,,482.7005,483.6983,0,6,6,1,1,partial,2,images/Ex1.jpg,right,reversed,easy,4,,,,,
,,,,,6400d919945d23676a68b781,001,28,Female,Luxembourg,MA,2024-02-26_17h19.21.420,CRL1e,2023.2.3,MacIntel,59.52380952,65dbad3905fde4fe1981dc61,65dcc804cf3073155f828e88,,,,,,,,,,,483.6988,0.8,484.4984,484.4986,485.8648,left,1,1.3562,,485.8648,486.8639,0,7,7,4,1,partial,2,images/Ex3.jpg,left,reversed,easy,4,,,,,
,,,,,6400d919945d23676a68b781,001,28,Female,Luxembourg,MA,2024-02-26_17h19.21.420,CRL1e,2023.2.3,MacIntel,59.52380952,65dbad3905fde4fe1981dc61,65dcc804cf3073155f828e88,,,,,,,,,,,486.8643,0.9,487.7641,487.7642,488.8166,left,1,1.0468,,488.8166,489.8141,1,0,8,2,1,partial,2,images/Ex2.jpg,left,nonreversed,easy,4,,,,,
,,,,,6400d919945d23676a68b781,001,28,Female,Luxembourg,MA,2024-02-26_17h19.21.420,CRL1e,2023.2.3,MacIntel,59.52380952,65dbad3905fde4fe1981dc61,65dcc804cf3073155f828e88,,,,,,,,,,,489.8145,1.4,491.2146,491.2147,492.5484,left,0,1.3257,,492.5485,493.5473,1,1,9,7,1,partial,2,images/Ex4.jpg,right,nonreversed,easy,4,,,,,
,,,,,6400d919945d23676a68b781,001,28,Female,Luxembourg,MA,2024-02-26_17h19.21.420,CRL1e,2023.2.3,MacIntel,59.52380952,65dbad3905fde4fe1981dc61,65dcc804cf3073155f828e88,,,,,,,,,,,493.5477,1,494.5479,494.548,495.6487,left,1,1.0945,,495.6488,496.6476,1,2,10,4,1,partial,2,images/Ex3.jpg,left,reversed,easy,4,,,,,
,,,,,6400d919945d23676a68b781,001,28,Female,Luxembourg,MA,2024-02-26_17h19.21.420,CRL1e,2023.2.3,MacIntel,59.52380952,65dbad3905fde4fe1981dc61,65dcc804cf3073155f828e88,,,,,,,,,,,496.6481,1.2,497.8478,497.8478,499.1813,left,0,1.3249,,499.1813,500.1803,1,3,11,0,1,partial,2,images/Ex1.jpg,right,reversed,easy,4,,,,,
,,,,,6400d919945d23676a68b781,001,28,Female,Luxembourg,MA,2024-02-26_17h19.21.420,CRL1e,2023.2.3,MacIntel,59.52380952,65dbad3905fde4fe1981dc61,65dcc804cf3073155f828e88,,,,,,,,,,,500.1805,0.9,501.0806,501.0806,502.5514,right,1,1.466,,502.5514,503.5483,1,4,12,6,1,partial,2,images/Ex4.jpg,right,nonreversed,easy,4,,,,,
,,,,,6400d919945d23676a68b781,001,28,Female,Luxembourg,MA,2024-02-26_17h19.21.420,CRL1e,2023.2.3,MacIntel,59.52380952,65dbad3905fde4fe1981dc61,65dcc804cf3073155f828e88,,,,,,,,,,,503.5639,1.2,504.7639,504.764,505.9307,right,1,1.1614,,505.9308,506.9307,1,5,13,1,1,partial,2,images/Ex1.jpg,right,reversed,easy,4,,,,,
,,,,,6400d919945d23676a68b781,001,28,Female,Luxembourg,MA,2024-02-26_17h19.21.420,CRL1e,2023.2.3,MacIntel,59.52380952,65dbad3905fde4fe1981dc61,65dcc804cf3073155f828e88,,,,,,,,,,,506.9311,1.3,508.2308,508.2308,509.3522,left,1,1.1169,,509.3523,510.3483,1,6,14,3,1,partial,2,images/Ex2.jpg,left,nonreversed,easy,4,,,,,
,,,,,6400d919945d23676a68b781,001,28,Female,Luxembourg,MA,2024-02-26_17h19.21.420,CRL1e,2023.2.3,MacIntel,59.52380952,65dbad3905fde4fe1981dc61,65dcc804cf3073155f828e88,,,,,,,,,,,510.3488,1.1,511.4472,511.4472,513.1482,left,1,1.694,,513.1482,514.148,1,7,15,5,1,partial,2,images/Ex3.jpg,left,reversed,easy,4,,,,,
,,,,,6400d919945d23676a68b781,001,28,Female,Luxembourg,MA,2024-02-26_17h19.21.420,CRL1e,2023.2.3,MacIntel,59.52380952,65dbad3905fde4fe1981dc61,65dcc804cf3073155f828e88,,,,,,,,,,,514.1485,1.4,515.548,515.5481,516.7646,right,1,1.2109,,516.7646,517.7638,2,0,16,7,1,partial,2,images/Ex4.jpg,right,nonreversed,easy,4,,,,,
,,,,,6400d919945d23676a68b781,001,28,Female,Luxembourg,MA,2024-02-26_17h19.21.420,CRL1e,2023.2.3,MacIntel,59.52380952,65dbad3905fde4fe1981dc61,65dcc804cf3073155f828e88,,,,,,,,,,,517.7645,1.2,518.9646,518.9646,519.615,right,1,0.6436,,519.6151,520.6143,2,1,17,6,1,partial,2,images/Ex4.jpg,right,nonreversed,easy,4,,,,,
,,,,,6400d919945d23676a68b781,001,28,Female,Luxembourg,MA,2024-02-26_17h19.21.420,CRL1e,2023.2.3,MacIntel,59.52380952,65dbad3905fde4fe1981dc61,65dcc804cf3073155f828e88,,,,,,,,,,,520.615,1.3,521.9143,521.9143,522.8145,left,1,0.8889,,522.8145,523.8147,2,2,18,5,1,partial,2,images/Ex3.jpg,left,reversed,easy,4,,,,,
,,,,,6400d919945d23676a68b781,001,28,Female,Luxembourg,MA,2024-02-26_17h19.21.420,CRL1e,2023.2.3,MacIntel,59.52380952,65dbad3905fde4fe1981dc61,65dcc804cf3073155f828e88,,,,,,,,,,,523.8152,1.4,525.2138,525.2138,526.0643,left,1,0.8441,,526.0644,527.0636,2,3,19,3,1,partial,2,images/Ex2.jpg,left,nonreversed,easy,4,,,,,
,,,,,6400d919945d23676a68b781,001,28,Female,Luxembourg,MA,2024-02-26_17h19.21.420,CRL1e,2023.2.3,MacIntel,59.52380952,65dbad3905fde4fe1981dc61,65dcc804cf3073155f828e88,,,,,,,,,,,527.064,0.5,527.5636,527.5636,529.1158,right,1,1.5468,,529.1158,530.1139,2,4,20,1,1,partial,2,images/Ex1.jpg,right,reversed,easy,4,,,,,
,,,,,6400d919945d23676a68b781,001,28,Female,Luxembourg,MA,2024-02-26_17h19.21.420,CRL1e,2023.2.3,MacIntel,59.52380952,65dbad3905fde4fe1981dc61,65dcc804cf3073155f828e88,,,,,,,,,,,530.1144,0.6,530.7135,530.7135,532.0989,left,1,1.3724,,532.0989,533.0977,2,5,21,4,1,partial,2,images/Ex3.jpg,left,reversed,easy,4,,,,,
,,,,,6400d919945d23676a68b781,001,28,Female,Luxembourg,MA,2024-02-26_17h19.21.420,CRL1e,2023.2.3,MacIntel,59.52380952,65dbad3905fde4fe1981dc61,65dcc804cf3073155f828e88,,,,,,,,,,,533.0981,0.5,533.5978,533.5978,534.9481,right,1,1.3438,,534.9482,535.9478,2,6,22,0,1,partial,2,images/Ex1.jpg,right,reversed,easy,4,,,,,
,,,,,6400d919945d23676a68b781,001,28,Female,Luxembourg,MA,2024-02-26_17h19.21.420,CRL1e,2023.2.3,MacIntel,59.52380952,65dbad3905fde4fe1981dc61,65dcc804cf3073155f828e88,,,,,,,,,,,535.9483,0.5,536.4478,536.4478,537.2476,left,1,0.7924,,537.2478,538.2467,2,7,23,2,1,partial,2,images/Ex2.jpg,left,nonreversed,easy,4,,,,,
,,,,,6400d919945d23676a68b781,001,28,Female,Luxembourg,MA,2024-02-26_17h19.21.420,CRL1e,2023.2.3,MacIntel,59.52380952,65dbad3905fde4fe1981dc61,65dcc804cf3073155f828e88,,,,,,,,,,,538.247,0.6,538.8476,538.8477,539.3302,left,1,0.4813,,539.3303,540.3298,3,0,24,3,1,partial,2,images/Ex2.jpg,left,nonreversed,easy,4,,,,,
,,,,,6400d919945d23676a68b781,001,28,Female,Luxembourg,MA,2024-02-26_17h19.21.420,CRL1e,2023.2.3,MacIntel,59.52380952,65dbad3905fde4fe1981dc61,65dcc804cf3073155f828e88,,,,,,,,,,,540.3301,1.2,541.5302,541.5302,543.3799,left,0,1.8448,,543.3799,544.3798,3,1,25,0,1,partial,2,images/Ex1.jpg,right,reversed,easy,4,,,,,
,,,,,6400d919945d23676a68b781,001,28,Female,Luxembourg,MA,2024-02-26_17h19.21.420,CRL1e,2023.2.3,MacIntel,59.52380952,65dbad3905fde4fe1981dc61,65dcc804cf3073155f828e88,,,,,,,,,,,544.3801,0.7,545.0805,545.0805,546.364,left,1,1.2727,,546.3641,547.3635,3,2,26,5,1,partial,2,images/Ex3.jpg,left,reversed,easy,4,,,,,
,,,,,6400d919945d23676a68b781,001,28,Female,Luxembourg,MA,2024-02-26_17h19.21.420,CRL1e,2023.2.3,MacIntel,59.52380952,65dbad3905fde4fe1981dc61,65dcc804cf3073155f828e88,,,,,,,,,,,547.3792,0.5,547.8802,547.8802,548.8143,right,1,0.9307,,548.8143,549.8135,3,3,27,6,1,partial,2,images/Ex4.jpg,right,nonreversed,easy,4,,,,,
,,,,,6400d919945d23676a68b781,001,28,Female,Luxembourg,MA,2024-02-26_17h19.21.420,CRL1e,2023.2.3,MacIntel,59.52380952,65dbad3905fde4fe1981dc61,65dcc804cf3073155f828e88,,,,,,,,,,,549.8143,0.7,550.514,550.5141,551.2965,left,1,0.7786,,551.2965,552.2975,3,4,28,2,1,partial,2,images/Ex2.jpg,left,nonreversed,easy,4,,,,,
,,,,,6400d919945d23676a68b781,001,28,Female,Luxembourg,MA,2024-02-26_17h19.21.420,CRL1e,2023.2.3,MacIntel,59.52380952,65dbad3905fde4fe1981dc61,65dcc804cf3073155f828e88,,,,,,,,,,,552.298,1.4,553.6968,553.6969,555.0474,left,0,1.3433,,555.0474,556.0474,3,5,29,1,1,partial,2,images/Ex1.jpg,right,reversed,easy,4,,,,,
,,,,,6400d919945d23676a68b781,001,28,Female,Luxembourg,MA,2024-02-26_17h19.21.420,CRL1e,2023.2.3,MacIntel,59.52380952,65dbad3905fde4fe1981dc61,65dcc804cf3073155f828e88,,,,,,,,,,,556.0479,0.5,556.5474,556.5474,557.4977,right,1,0.9376,,557.4977,558.4975,3,6,30,7,1,partial,2,images/Ex4.jpg,right,nonreversed,easy,4,,,,,
,,,,,6400d919945d23676a68b781,001,28,Female,Luxembourg,MA,2024-02-26_17h19.21.420,CRL1e,2023.2.3,MacIntel,59.52380952,65dbad3905fde4fe1981dc61,65dcc804cf3073155f828e88,,,,,,,,,,,558.498,1.2,559.6973,559.6973,560.8642,left,1,1.1607,,560.8644,561.8639,3,7,31,4,1,partial,2,images/Ex3.jpg,left,reversed,easy,4,,,,,
,,,,,6400d919945d23676a68b781,001,28,Female,Luxembourg,MA,2024-02-26_17h19.21.420,CRL1e,2023.2.3,MacIntel,59.52380952,65dbad3905fde4fe1981dc61,65dcc804cf3073155f828e88,,,,,,,,,,,561.8644,1.5,563.3634,563.3635,563.9483,right,1,0.5765,,563.9485,564.9467,4,0,32,0,1,partial,2,images/Ex1.jpg,right,reversed,easy,4,,,,,
,,,,,6400d919945d23676a68b781,001,28,Female,Luxembourg,MA,2024-02-26_17h19.21.420,CRL1e,2023.2.3,MacIntel,59.52380952,65dbad3905fde4fe1981dc61,65dcc804cf3073155f828e88,,,,,,,,,,,564.947,0.6,565.546,565.546,566.0799,right,1,0.5235,,566.08,567.0794,4,1,33,1,1,partial,2,images/Ex1.jpg,right,reversed,easy,4,,,,,
,,,,,6400d919945d23676a68b781,001,28,Female,Luxembourg,MA,2024-02-26_17h19.21.420,CRL1e,2023.2.3,MacIntel,59.52380952,65dbad3905fde4fe1981dc61,65dcc804cf3073155f828e88,,,,,,,,,,,567.0797,0.5,567.5796,567.5796,568.7639,right,1,1.1781,,568.7639,569.7638,4,2,34,7,1,partial,2,images/Ex4.jpg,right,nonreversed,easy,4,,,,,
,,,,,6400d919945d23676a68b781,001,28,Female,Luxembourg,MA,2024-02-26_17h19.21.420,CRL1e,2023.2.3,MacIntel,59.52380952,65dbad3905fde4fe1981dc61,65dcc804cf3073155f828e88,,,,,,,,,,,569.7643,1.4,571.1627,571.1627,571.9301,right,1,0.7605,,571.9302,572.9295,4,3,35,6,1,partial,2,images/Ex4.jpg,right,nonreversed,easy,4,,,,,
,,,,,6400d919945d23676a68b781,001,28,Female,Luxembourg,MA,2024-02-26_17h19.21.420,CRL1e,2023.2.3,MacIntel,59.52380952,65dbad3905fde4fe1981dc61,65dcc804cf3073155f828e88,,,,,,,,,,,572.9298,0.7,573.6296,573.6296,574.3805,left,1,0.7489,,574.3805,575.3795,4,4,36,2,1,partial,2,images/Ex2.jpg,left,nonreversed,easy,4,,,,,
,,,,,6400d919945d23676a68b781,001,28,Female,Luxembourg,MA,2024-02-26_17h19.21.420,CRL1e,2023.2.3,MacIntel,59.52380952,65dbad3905fde4fe1981dc61,65dcc804cf3073155f828e88,,,,,,,,,,,575.3799,1,576.3796,576.3796,576.9132,left,1,0.5232,,576.9132,577.9127,4,5,37,3,1,partial,2,images/Ex2.jpg,left,nonreversed,easy,4,,,,,
,,,,,6400d919945d23676a68b781,001,28,Female,Luxembourg,MA,2024-02-26_17h19.21.420,CRL1e,2023.2.3,MacIntel,59.52380952,65dbad3905fde4fe1981dc61,65dcc804cf3073155f828e88,,,,,,,,,,,577.9132,0.5,578.4131,578.4132,579.4461,left,1,1.0312,,579.4462,580.4472,4,6,38,4,1,partial,2,images/Ex3.jpg,left,reversed,easy,4,,,,,
,,,,,6400d919945d23676a68b781,001,28,Female,Luxembourg,MA,2024-02-26_17h19.21.420,CRL1e,2023.2.3,MacIntel,59.52380952,65dbad3905fde4fe1981dc61,65dcc804cf3073155f828e88,,,,,,,,,,,580.4477,1.5,581.947,581.947,582.5661,left,1,0.6146,,582.5661,583.5633,4,7,39,5,1,partial,2,images/Ex3.jpg,left,reversed,easy,4,,,,,
,,,,,6400d919945d23676a68b781,001,28,Female,Luxembourg,MA,2024-02-26_17h19.21.420,CRL1e,2023.2.3,MacIntel,59.52380952,65dbad3905fde4fe1981dc61,65dcc804cf3073155f828e88,,,,,,,,,,,583.5638,1,584.5628,584.5628,585.9476,right,1,1.3713,,585.9477,586.947,5,0,40,6,1,partial,2,images/Ex4.jpg,right,nonreversed,easy,4,,,,,
,,,,,6400d919945d23676a68b781,001,28,Female,Luxembourg,MA,2024-02-26_17h19.21.420,CRL1e,2023.2.3,MacIntel,59.52380952,65dbad3905fde4fe1981dc61,65dcc804cf3073155f828e88,,,,,,,,,,,586.9475,1.4,588.3468,588.3468,588.848,right,1,0.4924,,588.8482,589.8467,5,1,41,7,1,partial,2,images/Ex4.jpg,right,nonreversed,easy,4,,,,,
,,,,,6400d919945d23676a68b781,001,28,Female,Luxembourg,MA,2024-02-26_17h19.21.420,CRL1e,2023.2.3,MacIntel,59.52380952,65dbad3905fde4fe1981dc61,65dcc804cf3073155f828e88,,,,,,,,,,,589.8472,0.7,590.5461,590.5462,591.3125,right,1,0.76,,591.3125,592.3127,5,2,42,0,1,partial,2,images/Ex1.jpg,right,reversed,easy,4,,,,,
,,,,,6400d919945d23676a68b781,001,28,Female,Luxembourg,MA,2024-02-26_17h19.21.420,CRL1e,2023.2.3,MacIntel,59.52380952,65dbad3905fde4fe1981dc61,65dcc804cf3073155f828e88,,,,,,,,,,,592.3131,0.6,592.9126,592.9126,593.4971,left,1,0.5711,,593.4971,594.4964,5,3,43,3,1,partial,2,images/Ex2.jpg,left,nonreversed,easy,4,,,,,
,,,,,6400d919945d23676a68b781,001,28,Female,Luxembourg,MA,2024-02-26_17h19.21.420,CRL1e,2023.2.3,MacIntel,59.52380952,65dbad3905fde4fe1981dc61,65dcc804cf3073155f828e88,,,,,,,,,,,594.497,0.9,595.397,595.397,595.9125,left,1,0.5053,,595.9125,596.9125,5,4,44,2,1,partial,2,images/Ex2.jpg,left,nonreversed,easy,4,,,,,
,,,,,6400d919945d23676a68b781,001,28,Female,Luxembourg,MA,2024-02-26_17h19.21.420,CRL1e,2023.2.3,MacIntel,59.52380952,65dbad3905fde4fe1981dc61,65dcc804cf3073155f828e88,,,,,,,,,,,596.9128,1.3,598.2129,598.2129,599.0807,right,0,0.856,,599.0807,600.0792,5,5,45,5,1,partial,2,images/Ex3.jpg,left,reversed,easy,4,,,,,
,,,,,6400d919945d23676a68b781,001,28,Female,Luxembourg,MA,2024-02-26_17h19.21.420,CRL1e,2023.2.3,MacIntel,59.52380952,65dbad3905fde4fe1981dc61,65dcc804cf3073155f828e88,,,,,,,,,,,600.0796,0.6,600.679,600.679,601.3627,right,1,0.6732,,601.3627,602.3658,5,6,46,1,1,partial,2,images/Ex1.jpg,right,reversed,easy,4,,,,,
,,,,,6400d919945d23676a68b781,001,28,Female,Luxembourg,MA,2024-02-26_17h19.21.420,CRL1e,2023.2.3,MacIntel,59.52380952,65dbad3905fde4fe1981dc61,65dcc804cf3073155f828e88,,,,,,,,,,,602.3661,1.1,603.4624,603.4624,603.9472,left,1,0.4789,,603.9472,604.9467,5,7,47,4,1,partial,2,images/Ex3.jpg,left,reversed,easy,4,,,,,
,,,,,6400d919945d23676a68b781,001,28,Female,Luxembourg,MA,2024-02-26_17h19.21.420,CRL1e,2023.2.3,MacIntel,59.52380952,65dbad3905fde4fe1981dc61,65dcc804cf3073155f828e88,,,,,,,,,,,,,,,,,,,,,,,,,,,,,,,,,,604.9485,617.1471,space,12.1583,