infCons.started,infCons.stopped,resp_consent.keys,resp_consent.rt,resp_consent.duration,participant,session,Age?,Gender?,Nationality?,Highest Educational Degree?,date,expName,psychopyVersion,OS,frameRate,PROLIFIC_PID,STUDY_ID,SESSION_ID,instructions.started,instructions.stopped,resp_instructions.keys,resp_instructions.rt,resp_instructions.duration,nextTask.started,nextTask.stopped,ready_task.keys,ready_task.rt,ready_task.duration,fixation.started,ITI,fixation.stopped,stim.started,stim.stopped,slider.response,slider.rt,trials.thisRepN,trials.thisTrialN,trials.thisN,trials.thisIndex,trials.ran,task,exemplarLeft,exemplarRight,left,right,end.started,end.stopped,resp_end.keys,resp_end.rt,resp_end.duration
0.0005,33.2765,space,33.2432,,032883,001,38,Male,UK,Masters,2024-11-07_15h03.59.789,CatSimMDS,2023.2.3,Win32,60.24096386,56d6224aebdf10000c68538b,672bf50eac1463c2ad3c747f,672cd6b2e6f382e26c1a0e10,,,,,,,,,,,,,,,,,,,,,,,,,,,,,,,,
,,,,,032883,001,38,Male,UK,Masters,2024-11-07_15h03.59.789,CatSimMDS,2023.2.3,Win32,60.24096386,56d6224aebdf10000c68538b,672bf50eac1463c2ad3c747f,672cd6b2e6f382e26c1a0e10,33.2796,75.8864,space,42.5798,0.0003,,,,,,,,,,,,,,,,,,,,,,,,,,,
,,,,,032883,001,38,Male,UK,Masters,2024-11-07_15h03.59.789,CatSimMDS,2023.2.3,Win32,60.24096386,56d6224aebdf10000c68538b,672bf50eac1463c2ad3c747f,672cd6b2e6f382e26c1a0e10,,,,,,75.895,85.0928,space,9.1734,,85.1037,1.3,86.3935,86.3936,91.5301,3.00511323,5.1318,0,0,0,24,1,9_to_16,images/Ex12.jpg,images/Ex13.jpg,Ex12,Ex13,,,,,
,,,,,032883,001,38,Male,UK,Masters,2024-11-07_15h03.59.789,CatSimMDS,2023.2.3,Win32,60.24096386,56d6224aebdf10000c68538b,672bf50eac1463c2ad3c747f,672cd6b2e6f382e26c1a0e10,,,,,,,,,,,91.5304,0.7,92.2307,92.2307,96.3155,3.019904822,4.0829,0,1,1,10,1,9_to_16,images/Ex10.jpg,images/Ex13.jpg,Ex10,Ex13,,,,,
,,,,,032883,001,38,Male,UK,Masters,2024-11-07_15h03.59.789,CatSimMDS,2023.2.3,Win32,60.24096386,56d6224aebdf10000c68538b,672bf50eac1463c2ad3c747f,672cd6b2e6f382e26c1a0e10,,,,,,,,,,,96.316,1.5,97.8179,97.818,99.9192,3.019904822,2.0977,0,2,2,8,1,9_to_16,images/Ex10.jpg,images/Ex11.jpg,Ex10,Ex11,,,,,
,,,,,032883,001,38,Male,UK,Masters,2024-11-07_15h03.59.789,CatSimMDS,2023.2.3,Win32,60.24096386,56d6224aebdf10000c68538b,672bf50eac1463c2ad3c747f,672cd6b2e6f382e26c1a0e10,,,,,,,,,,,99.9195,1.4,101.3203,101.3203,103.9722,3.019904822,2.6479,0,3,3,42,1,9_to_16,images/Ex15.jpg,images/Ex9.jpg,Ex15,Ex9,,,,,
,,,,,032883,001,38,Male,UK,Masters,2024-11-07_15h03.59.789,CatSimMDS,2023.2.3,Win32,60.24096386,56d6224aebdf10000c68538b,672bf50eac1463c2ad3c747f,672cd6b2e6f382e26c1a0e10,,,,,,,,,,,103.9727,1.1,105.0727,105.0728,107.7415,6.984112216,2.6653,0,4,4,18,1,9_to_16,images/Ex11.jpg,images/Ex14.jpg,Ex11,Ex14,,,,,
,,,,,032883,001,38,Male,UK,Masters,2024-11-07_15h03.59.789,CatSimMDS,2023.2.3,Win32,60.24096386,56d6224aebdf10000c68538b,672bf50eac1463c2ad3c747f,672cd6b2e6f382e26c1a0e10,,,,,,,,,,,107.7419,1.4,109.1424,109.1425,111.8277,3.991234453,2.6825,0,5,5,17,1,9_to_16,images/Ex11.jpg,images/Ex13.jpg,Ex11,Ex13,,,,,
,,,,,032883,001,38,Male,UK,Masters,2024-11-07_15h03.59.789,CatSimMDS,2023.2.3,Win32,60.24096386,56d6224aebdf10000c68538b,672bf50eac1463c2ad3c747f,672cd6b2e6f382e26c1a0e10,,,,,,,,,,,111.8282,0.6,112.4282,112.4283,117.5818,4.010956953,5.1504,0,6,6,54,1,9_to_16,images/Ex16.jpg,images/Ex14.jpg,Ex16,Ex14,,,,,
,,,,,032883,001,38,Male,UK,Masters,2024-11-07_15h03.59.789,CatSimMDS,2023.2.3,Win32,60.24096386,56d6224aebdf10000c68538b,672bf50eac1463c2ad3c747f,672cd6b2e6f382e26c1a0e10,,,,,,,,,,,117.5823,1.5,119.0828,119.0828,121.7512,5.973337962,2.6643,0,7,7,52,1,9_to_16,images/Ex16.jpg,images/Ex12.jpg,Ex16,Ex12,,,,,
,,,,,032883,001,38,Male,UK,Masters,2024-11-07_15h03.59.789,CatSimMDS,2023.2.3,Win32,60.24096386,56d6224aebdf10000c68538b,672bf50eac1463c2ad3c747f,672cd6b2e6f382e26c1a0e10,,,,,,,,,,,121.7516,1.1,122.8519,122.8519,126.6879,1.989408445,3.8322,0,8,8,34,1,9_to_16,images/Ex13.jpg,images/Ex16.jpg,Ex13,Ex16,,,,,
,,,,,032883,001,38,Male,UK,Masters,2024-11-07_15h03.59.789,CatSimMDS,2023.2.3,Win32,60.24096386,56d6224aebdf10000c68538b,672bf50eac1463c2ad3c747f,672cd6b2e6f382e26c1a0e10,,,,,,,,,,,126.6883,1,127.6885,127.6886,131.1075,1.989408445,3.4148,0,9,9,13,1,9_to_16,images/Ex10.jpg,images/Ex16.jpg,Ex10,Ex16,,,,,
,,,,,032883,001,38,Male,UK,Masters,2024-11-07_15h03.59.789,CatSimMDS,2023.2.3,Win32,60.24096386,56d6224aebdf10000c68538b,672bf50eac1463c2ad3c747f,672cd6b2e6f382e26c1a0e10,,,,,,,,,,,131.1079,0.8,131.9082,131.9082,134.36,1.989408445,2.4481,0,10,10,6,1,9_to_16,images/Ex9.jpg,images/Ex16.jpg,Ex9,Ex16,,,,,
,,,,,032883,001,38,Male,UK,Masters,2024-11-07_15h03.59.789,CatSimMDS,2023.2.3,Win32,60.24096386,56d6224aebdf10000c68538b,672bf50eac1463c2ad3c747f,672cd6b2e6f382e26c1a0e10,,,,,,,,,,,134.3605,1.4,135.7608,135.7608,138.496,2.98539073,2.7312,0,11,11,39,1,9_to_16,images/Ex14.jpg,images/Ex13.jpg,Ex14,Ex13,,,,,
,,,,,032883,001,38,Male,UK,Masters,2024-11-07_15h03.59.789,CatSimMDS,2023.2.3,Win32,60.24096386,56d6224aebdf10000c68538b,672bf50eac1463c2ad3c747f,672cd6b2e6f382e26c1a0e10,,,,,,,,,,,138.4965,0.9,139.3966,139.3967,141.7817,6.007852054,2.381,0,12,12,37,1,9_to_16,images/Ex14.jpg,images/Ex11.jpg,Ex14,Ex11,,,,,
,,,,,032883,001,38,Male,UK,Masters,2024-11-07_15h03.59.789,CatSimMDS,2023.2.3,Win32,60.24096386,56d6224aebdf10000c68538b,672bf50eac1463c2ad3c747f,672cd6b2e6f382e26c1a0e10,,,,,,,,,,,141.7822,0.6,142.3821,142.3821,144.9506,6.984112216,2.5646,0,13,13,44,1,9_to_16,images/Ex15.jpg,images/Ex11.jpg,Ex15,Ex11,,,,,
,,,,,032883,001,38,Male,UK,Masters,2024-11-07_15h03.59.789,CatSimMDS,2023.2.3,Win32,60.24096386,56d6224aebdf10000c68538b,672bf50eac1463c2ad3c747f,672cd6b2e6f382e26c1a0e10,,,,,,,,,,,144.951,0.6,145.5509,145.5509,148.4695,6.022644023,2.9154,0,14,14,38,1,9_to_16,images/Ex14.jpg,images/Ex12.jpg,Ex14,Ex12,,,,,
,,,,,032883,001,38,Male,UK,Masters,2024-11-07_15h03.59.789,CatSimMDS,2023.2.3,Win32,60.24096386,56d6224aebdf10000c68538b,672bf50eac1463c2ad3c747f,672cd6b2e6f382e26c1a0e10,,,,,,,,,,,148.47,1.3,149.7704,149.7704,152.7726,5.993060838,2.9988,0,15,15,14,1,9_to_16,images/Ex11.jpg,images/Ex9.jpg,Ex11,Ex9,,,,,
,,,,,032883,001,38,Male,UK,Masters,2024-11-07_15h03.59.789,CatSimMDS,2023.2.3,Win32,60.24096386,56d6224aebdf10000c68538b,672bf50eac1463c2ad3c747f,672cd6b2e6f382e26c1a0e10,,,,,,,,,,,152.773,1.2,153.9734,153.9736,155.8748,5.993060838,1.8972,0,16,16,51,1,9_to_16,images/Ex16.jpg,images/Ex11.jpg,Ex16,Ex11,,,,,
,,,,,032883,001,38,Male,UK,Masters,2024-11-07_15h03.59.789,CatSimMDS,2023.2.3,Win32,60.24096386,56d6224aebdf10000c68538b,672bf50eac1463c2ad3c747f,672cd6b2e6f382e26c1a0e10,,,,,,,,,,,155.8752,1.4,157.2757,157.2757,160.9118,4.035609984,3.6329,0,17,17,22,1,9_to_16,images/Ex12.jpg,images/Ex10.jpg,Ex12,Ex10,,,,,
,,,,,032883,001,38,Male,UK,Masters,2024-11-07_15h03.59.789,CatSimMDS,2023.2.3,Win32,60.24096386,56d6224aebdf10000c68538b,672bf50eac1463c2ad3c747f,672cd6b2e6f382e26c1a0e10,,,,,,,,,,,160.9122,0.5,161.412,161.412,164.2805,4.977355677,2.8666,0,18,18,5,1,9_to_16,images/Ex9.jpg,images/Ex15.jpg,Ex9,Ex15,,,,,
,,,,,032883,001,38,Male,UK,Masters,2024-11-07_15h03.59.789,CatSimMDS,2023.2.3,Win32,60.24096386,56d6224aebdf10000c68538b,672bf50eac1463c2ad3c747f,672cd6b2e6f382e26c1a0e10,,,,,,,,,,,164.281,1.5,165.7817,165.7818,168.4972,7.999817377,2.714,0,19,19,36,1,9_to_16,images/Ex14.jpg,images/Ex10.jpg,Ex14,Ex10,,,,,
,,,,,032883,001,38,Male,UK,Masters,2024-11-07_15h03.59.789,CatSimMDS,2023.2.3,Win32,60.24096386,56d6224aebdf10000c68538b,672bf50eac1463c2ad3c747f,672cd6b2e6f382e26c1a0e10,,,,,,,,,,,168.4977,0.5,168.997,168.997,171.6023,4.962563708,2.6017,0,20,20,48,1,9_to_16,images/Ex15.jpg,images/Ex16.jpg,Ex15,Ex16,,,,,
,,,,,032883,001,38,Male,UK,Masters,2024-11-07_15h03.59.789,CatSimMDS,2023.2.3,Win32,60.24096386,56d6224aebdf10000c68538b,672bf50eac1463c2ad3c747f,672cd6b2e6f382e26c1a0e10,,,,,,,,,,,171.6027,1.5,173.1033,173.1033,176.1058,5.928962808,3.0008,0,21,21,26,1,9_to_16,images/Ex12.jpg,images/Ex15.jpg,Ex12,Ex15,,,,,
,,,,,032883,001,38,Male,UK,Masters,2024-11-07_15h03.59.789,CatSimMDS,2023.2.3,Win32,60.24096386,56d6224aebdf10000c68538b,672bf50eac1463c2ad3c747f,672cd6b2e6f382e26c1a0e10,,,,,,,,,,,176.1062,0.7,176.8059,176.8059,179.0577,6.984112216,2.2478,0,22,22,2,1,9_to_16,images/Ex9.jpg,images/Ex12.jpg,Ex9,Ex12,,,,,
,,,,,032883,001,38,Male,UK,Masters,2024-11-07_15h03.59.789,CatSimMDS,2023.2.3,Win32,60.24096386,56d6224aebdf10000c68538b,672bf50eac1463c2ad3c747f,672cd6b2e6f382e26c1a0e10,,,,,,,,,,,179.0581,0.7,179.758,179.7581,182.1929,8.049123438,2.431,0,23,23,19,1,9_to_16,images/Ex11.jpg,images/Ex15.jpg,Ex11,Ex15,,,,,
,,,,,032883,001,38,Male,UK,Masters,2024-11-07_15h03.59.789,CatSimMDS,2023.2.3,Win32,60.24096386,56d6224aebdf10000c68538b,672bf50eac1463c2ad3c747f,672cd6b2e6f382e26c1a0e10,,,,,,,,,,,182.1933,1.3,183.4939,183.4939,187.6133,7.038349184,4.1157,0,24,24,27,1,9_to_16,images/Ex12.jpg,images/Ex16.jpg,Ex12,Ex16,,,,,
,,,,,032883,001,38,Male,UK,Masters,2024-11-07_15h03.59.789,CatSimMDS,2023.2.3,Win32,60.24096386,56d6224aebdf10000c68538b,672bf50eac1463c2ad3c747f,672cd6b2e6f382e26c1a0e10,,,,,,,,,,,187.6137,0.8,188.414,188.414,191.1159,5.006939238,2.698,0,25,25,45,1,9_to_16,images/Ex15.jpg,images/Ex12.jpg,Ex15,Ex12,,,,,
,,,,,032883,001,38,Male,UK,Masters,2024-11-07_15h03.59.789,CatSimMDS,2023.2.3,Win32,60.24096386,56d6224aebdf10000c68538b,672bf50eac1463c2ad3c747f,672cd6b2e6f382e26c1a0e10,,,,,,,,,,,191.1163,1.1,192.2167,192.2167,194.516,6.989043123,2.2978,0,26,26,11,1,9_to_16,images/Ex10.jpg,images/Ex14.jpg,Ex10,Ex14,,,,,
,,,,,032883,001,38,Male,UK,Masters,2024-11-07_15h03.59.789,CatSimMDS,2023.2.3,Win32,60.24096386,56d6224aebdf10000c68538b,672bf50eac1463c2ad3c747f,672cd6b2e6f382e26c1a0e10,,,,,,,,,,,194.5164,1,195.5156,195.5157,198.0373,6.017713869,2.5181,0,27,27,16,1,9_to_16,images/Ex11.jpg,images/Ex12.jpg,Ex11,Ex12,,,,,
,,,,,032883,001,38,Male,UK,Masters,2024-11-07_15h03.59.789,CatSimMDS,2023.2.3,Win32,60.24096386,56d6224aebdf10000c68538b,672bf50eac1463c2ad3c747f,672cd6b2e6f382e26c1a0e10,,,,,,,,,,,198.0378,1,199.0381,199.0381,203.0408,6.993973278,3.9988,0,28,28,25,1,9_to_16,images/Ex12.jpg,images/Ex14.jpg,Ex12,Ex14,,,,,
,,,,,032883,001,38,Male,UK,Masters,2024-11-07_15h03.59.789,CatSimMDS,2023.2.3,Win32,60.24096386,56d6224aebdf10000c68538b,672bf50eac1463c2ad3c747f,672cd6b2e6f382e26c1a0e10,,,,,,,,,,,203.0413,1.3,204.3417,204.3418,208.211,5.006939238,3.8655,0,29,29,40,1,9_to_16,images/Ex14.jpg,images/Ex15.jpg,Ex14,Ex15,,,,,
,,,,,032883,001,38,Male,UK,Masters,2024-11-07_15h03.59.789,CatSimMDS,2023.2.3,Win32,60.24096386,56d6224aebdf10000c68538b,672bf50eac1463c2ad3c747f,672cd6b2e6f382e26c1a0e10,,,,,,,,,,,208.2114,1,209.2117,209.2117,214.2318,4.035609984,5.0166,0,30,30,23,1,9_to_16,images/Ex12.jpg,images/Ex11.jpg,Ex12,Ex11,,,,,
,,,,,032883,001,38,Male,UK,Masters,2024-11-07_15h03.59.789,CatSimMDS,2023.2.3,Win32,60.24096386,56d6224aebdf10000c68538b,672bf50eac1463c2ad3c747f,672cd6b2e6f382e26c1a0e10,,,,,,,,,,,214.2323,1.3,215.5328,215.5328,218.5558,4.035609984,3.0211,0,31,31,3,1,9_to_16,images/Ex9.jpg,images/Ex13.jpg,Ex9,Ex13,,,,,
,,,,,032883,001,38,Male,UK,Masters,2024-11-07_15h03.59.789,CatSimMDS,2023.2.3,Win32,60.24096386,56d6224aebdf10000c68538b,672bf50eac1463c2ad3c747f,672cd6b2e6f382e26c1a0e10,,,,,,,,,,,218.5562,0.6,219.1519,219.152,221.537,3.922205892,2.3812,0,32,32,15,1,9_to_16,images/Ex11.jpg,images/Ex10.jpg,Ex11,Ex10,,,,,
,,,,,032883,001,38,Male,UK,Masters,2024-11-07_15h03.59.789,CatSimMDS,2023.2.3,Win32,60.24096386,56d6224aebdf10000c68538b,672bf50eac1463c2ad3c747f,672cd6b2e6f382e26c1a0e10,,,,,,,,,,,221.5375,1,222.5377,222.5377,225.0394,5.056245299,2.4981,0,33,33,4,1,9_to_16,images/Ex9.jpg,images/Ex14.jpg,Ex9,Ex14,,,,,
,,,,,032883,001,38,Male,UK,Masters,2024-11-07_15h03.59.789,CatSimMDS,2023.2.3,Win32,60.24096386,56d6224aebdf10000c68538b,672bf50eac1463c2ad3c747f,672cd6b2e6f382e26c1a0e10,,,,,,,,,,,225.0398,1,226.0402,226.0403,228.3583,3.019904822,2.3142,0,34,34,46,1,9_to_16,images/Ex15.jpg,images/Ex13.jpg,Ex15,Ex13,,,,,
,,,,,032883,001,38,Male,UK,Masters,2024-11-07_15h03.59.789,CatSimMDS,2023.2.3,Win32,60.24096386,56d6224aebdf10000c68538b,672bf50eac1463c2ad3c747f,672cd6b2e6f382e26c1a0e10,,,,,,,,,,,228.3587,1.2,229.5592,229.5592,232.4946,4.015887484,2.9316,0,35,35,50,1,9_to_16,images/Ex16.jpg,images/Ex10.jpg,Ex16,Ex10,,,,,
,,,,,032883,001,38,Male,UK,Masters,2024-11-07_15h03.59.789,CatSimMDS,2023.2.3,Win32,60.24096386,56d6224aebdf10000c68538b,672bf50eac1463c2ad3c747f,672cd6b2e6f382e26c1a0e10,,,,,,,,,,,232.495,1.3,233.7955,233.7955,236.514,4.006026046,2.7148,0,36,36,0,1,9_to_16,images/Ex9.jpg,images/Ex10.jpg,Ex9,Ex10,,,,,
,,,,,032883,001,38,Male,UK,Masters,2024-11-07_15h03.59.789,CatSimMDS,2023.2.3,Win32,60.24096386,56d6224aebdf10000c68538b,672bf50eac1463c2ad3c747f,672cd6b2e6f382e26c1a0e10,,,,,,,,,,,236.5144,0.7,237.2145,237.2145,241.1673,2.033783599,3.9501,0,37,37,53,1,9_to_16,images/Ex16.jpg,images/Ex13.jpg,Ex16,Ex13,,,,,
,,,,,032883,001,38,Male,UK,Masters,2024-11-07_15h03.59.789,CatSimMDS,2023.2.3,Win32,60.24096386,56d6224aebdf10000c68538b,672bf50eac1463c2ad3c747f,672cd6b2e6f382e26c1a0e10,,,,,,,,,,,241.1678,0.6,241.7676,241.7676,244.136,3.02483573,2.3658,0,38,38,32,1,9_to_16,images/Ex13.jpg,images/Ex14.jpg,Ex13,Ex14,,,,,
,,,,,032883,001,38,Male,UK,Masters,2024-11-07_15h03.59.789,CatSimMDS,2023.2.3,Win32,60.24096386,56d6224aebdf10000c68538b,672bf50eac1463c2ad3c747f,672cd6b2e6f382e26c1a0e10,,,,,,,,,,,244.1366,1.2,245.3367,245.3368,247.6219,2.98539073,2.2823,0,39,39,31,1,9_to_16,images/Ex13.jpg,images/Ex12.jpg,Ex13,Ex12,,,,,
,,,,,032883,001,38,Male,UK,Masters,2024-11-07_15h03.59.789,CatSimMDS,2023.2.3,Win32,60.24096386,56d6224aebdf10000c68538b,672bf50eac1463c2ad3c747f,672cd6b2e6f382e26c1a0e10,,,,,,,,,,,247.6223,0.7,248.3222,248.3222,250.7883,4.015887484,2.4643,0,40,40,49,1,9_to_16,images/Ex16.jpg,images/Ex9.jpg,Ex16,Ex9,,,,,
,,,,,032883,001,38,Male,UK,Masters,2024-11-07_15h03.59.789,CatSimMDS,2023.2.3,Win32,60.24096386,56d6224aebdf10000c68538b,672bf50eac1463c2ad3c747f,672cd6b2e6f382e26c1a0e10,,,,,,,,,,,250.7887,1.1,251.8881,251.8881,254.0427,1.999269507,2.1522,0,41,41,30,1,9_to_16,images/Ex13.jpg,images/Ex11.jpg,Ex13,Ex11,,,,,
,,,,,032883,001,38,Male,UK,Masters,2024-11-07_15h03.59.789,CatSimMDS,2023.2.3,Win32,60.24096386,56d6224aebdf10000c68538b,672bf50eac1463c2ad3c747f,672cd6b2e6f382e26c1a0e10,,,,,,,,,,,254.0431,1.4,255.4439,255.4439,258.8439,4.957633177,3.3984,0,42,42,12,1,9_to_16,images/Ex10.jpg,images/Ex15.jpg,Ex10,Ex15,,,,,
,,,,,032883,001,38,Male,UK,Masters,2024-11-07_15h03.59.789,CatSimMDS,2023.2.3,Win32,60.24096386,56d6224aebdf10000c68538b,672bf50eac1463c2ad3c747f,672cd6b2e6f382e26c1a0e10,,,,,,,,,,,258.8443,0.6,259.4432,259.4434,263.466,4.050401576,4.0202,0,43,43,9,1,9_to_16,images/Ex10.jpg,images/Ex12.jpg,Ex10,Ex12,,,,,
,,,,,032883,001,38,Male,UK,Masters,2024-11-07_15h03.59.789,CatSimMDS,2023.2.3,Win32,60.24096386,56d6224aebdf10000c68538b,672bf50eac1463c2ad3c747f,672cd6b2e6f382e26c1a0e10,,,,,,,,,,,263.4665,1.2,264.6668,264.6669,266.7683,5.0365228,2.0977,0,44,44,21,1,9_to_16,images/Ex12.jpg,images/Ex9.jpg,Ex12,Ex9,,,,,
,,,,,032883,001,38,Male,UK,Masters,2024-11-07_15h03.59.789,CatSimMDS,2023.2.3,Win32,60.24096386,56d6224aebdf10000c68538b,672bf50eac1463c2ad3c747f,672cd6b2e6f382e26c1a0e10,,,,,,,,,,,266.7688,0.6,267.3686,267.3687,269.5036,4.972425146,2.1313,0,45,45,1,1,9_to_16,images/Ex9.jpg,images/Ex11.jpg,Ex9,Ex11,,,,,
,,,,,032883,001,38,Male,UK,Masters,2024-11-07_15h03.59.789,CatSimMDS,2023.2.3,Win32,60.24096386,56d6224aebdf10000c68538b,672bf50eac1463c2ad3c747f,672cd6b2e6f382e26c1a0e10,,,,,,,,,,,269.504,1.1,270.6043,270.6044,273.0564,2.014061475,2.4502,0,46,46,33,1,9_to_16,images/Ex13.jpg,images/Ex15.jpg,Ex13,Ex15,,,,,
,,,,,032883,001,38,Male,UK,Masters,2024-11-07_15h03.59.789,CatSimMDS,2023.2.3,Win32,60.24096386,56d6224aebdf10000c68538b,672bf50eac1463c2ad3c747f,672cd6b2e6f382e26c1a0e10,,,,,,,,,,,273.0567,1.4,274.4576,274.4576,277.1424,5.948684932,2.6819,0,47,47,47,1,9_to_16,images/Ex15.jpg,images/Ex14.jpg,Ex15,Ex14,,,,,
,,,,,032883,001,38,Male,UK,Masters,2024-11-07_15h03.59.789,CatSimMDS,2023.2.3,Win32,60.24096386,56d6224aebdf10000c68538b,672bf50eac1463c2ad3c747f,672cd6b2e6f382e26c1a0e10,,,,,,,,,,,277.143,1.5,278.6434,278.6435,281.0269,6.047297054,2.3815,0,48,48,20,1,9_to_16,images/Ex11.jpg,images/Ex16.jpg,Ex11,Ex16,,,,,
,,,,,032883,001,38,Male,UK,Masters,2024-11-07_15h03.59.789,CatSimMDS,2023.2.3,Win32,60.24096386,56d6224aebdf10000c68538b,672bf50eac1463c2ad3c747f,672cd6b2e6f382e26c1a0e10,,,,,,,,,,,281.0272,1.1,282.1287,282.1287,284.4971,5.041453331,2.3655,0,49,49,43,1,9_to_16,images/Ex15.jpg,images/Ex10.jpg,Ex15,Ex10,,,,,
,,,,,032883,001,38,Male,UK,Masters,2024-11-07_15h03.59.789,CatSimMDS,2023.2.3,Win32,60.24096386,56d6224aebdf10000c68538b,672bf50eac1463c2ad3c747f,672cd6b2e6f382e26c1a0e10,,,,,,,,,,,284.4976,1.3,285.7981,285.7981,288.2499,3.976442485,2.4495,0,50,50,7,1,9_to_16,images/Ex10.jpg,images/Ex9.jpg,Ex10,Ex9,,,,,
,,,,,032883,001,38,Male,UK,Masters,2024-11-07_15h03.59.789,CatSimMDS,2023.2.3,Win32,60.24096386,56d6224aebdf10000c68538b,672bf50eac1463c2ad3c747f,672cd6b2e6f382e26c1a0e10,,,,,,,,,,,288.2505,1.4,289.6507,289.6508,292.9198,3.981373015,3.2669,0,51,51,35,1,9_to_16,images/Ex14.jpg,images/Ex9.jpg,Ex14,Ex9,,,,,
,,,,,032883,001,38,Male,UK,Masters,2024-11-07_15h03.59.789,CatSimMDS,2023.2.3,Win32,60.24096386,56d6224aebdf10000c68538b,672bf50eac1463c2ad3c747f,672cd6b2e6f382e26c1a0e10,,,,,,,,,,,292.9202,1.3,294.2207,294.2208,296.6557,2.078159129,2.4321,0,52,52,29,1,9_to_16,images/Ex13.jpg,images/Ex10.jpg,Ex13,Ex10,,,,,
,,,,,032883,001,38,Male,UK,Masters,2024-11-07_15h03.59.789,CatSimMDS,2023.2.3,Win32,60.24096386,56d6224aebdf10000c68538b,672bf50eac1463c2ad3c747f,672cd6b2e6f382e26c1a0e10,,,,,,,,,,,296.6562,1.2,297.8565,297.8565,301.0255,4.040540515,3.1664,0,53,53,28,1,9_to_16,images/Ex13.jpg,images/Ex9.jpg,Ex13,Ex9,,,,,
,,,,,032883,001,38,Male,UK,Masters,2024-11-07_15h03.59.789,CatSimMDS,2023.2.3,Win32,60.24096386,56d6224aebdf10000c68538b,672bf50eac1463c2ad3c747f,672cd6b2e6f382e26c1a0e10,,,,,,,,,,,301.0261,0.9,301.926,301.926,305.2949,6.993973278,3.3652,0,54,54,41,1,9_to_16,images/Ex14.jpg,images/Ex16.jpg,Ex14,Ex16,,,,,
,,,,,032883,001,38,Male,UK,Masters,2024-11-07_15h03.59.789,CatSimMDS,2023.2.3,Win32,60.24096386,56d6224aebdf10000c68538b,672bf50eac1463c2ad3c747f,672cd6b2e6f382e26c1a0e10,,,,,,305.2958,311.3991,space,6.0734,,311.4076,1.5,312.9003,312.9003,317.9537,2.9607377,5.0495,0,0,0,29,1,1_to_8,images/Ex5.jpg,images/Ex2.jpg,Ex5,Ex2,,,,,
,,,,,032883,001,38,Male,UK,Masters,2024-11-07_15h03.59.789,CatSimMDS,2023.2.3,Win32,60.24096386,56d6224aebdf10000c68538b,672bf50eac1463c2ad3c747f,672cd6b2e6f382e26c1a0e10,,,,,,,,,,,317.9543,0.7,318.6543,318.6543,321.6898,4.952702646,3.0315,0,1,1,42,1,1_to_8,images/Ex7.jpg,images/Ex1.jpg,Ex7,Ex1,,,,,
,,,,,032883,001,38,Male,UK,Masters,2024-11-07_15h03.59.789,CatSimMDS,2023.2.3,Win32,60.24096386,56d6224aebdf10000c68538b,672bf50eac1463c2ad3c747f,672cd6b2e6f382e26c1a0e10,,,,,,,,,,,321.6903,1.1,322.7906,322.7906,325.559,7.940650254,2.7648,0,2,2,25,1,1_to_8,images/Ex4.jpg,images/Ex6.jpg,Ex4,Ex6,,,,,
,,,,,032883,001,38,Male,UK,Masters,2024-11-07_15h03.59.789,CatSimMDS,2023.2.3,Win32,60.24096386,56d6224aebdf10000c68538b,672bf50eac1463c2ad3c747f,672cd6b2e6f382e26c1a0e10,,,,,,,,,,,325.5594,1.4,326.9601,326.9601,329.6285,2.970598761,2.6646,0,3,3,28,1,1_to_8,images/Ex5.jpg,images/Ex1.jpg,Ex5,Ex1,,,,,
,,,,,032883,001,38,Male,UK,Masters,2024-11-07_15h03.59.789,CatSimMDS,2023.2.3,Win32,60.24096386,56d6224aebdf10000c68538b,672bf50eac1463c2ad3c747f,672cd6b2e6f382e26c1a0e10,,,,,,,,,,,329.6289,0.9,330.5292,330.5292,333.8481,6.012782962,3.3148,0,4,4,23,1,1_to_8,images/Ex4.jpg,images/Ex3.jpg,Ex4,Ex3,,,,,
,,,,,032883,001,38,Male,UK,Masters,2024-11-07_15h03.59.789,CatSimMDS,2023.2.3,Win32,60.24096386,56d6224aebdf10000c68538b,672bf50eac1463c2ad3c747f,672cd6b2e6f382e26c1a0e10,,,,,,,,,,,333.8485,0.6,334.4486,334.4486,338.2511,6.012782962,3.7988,0,5,5,26,1,1_to_8,images/Ex4.jpg,images/Ex7.jpg,Ex4,Ex7,,,,,
,,,,,032883,001,38,Male,UK,Masters,2024-11-07_15h03.59.789,CatSimMDS,2023.2.3,Win32,60.24096386,56d6224aebdf10000c68538b,672bf50eac1463c2ad3c747f,672cd6b2e6f382e26c1a0e10,,,,,,,,,,,338.2516,0.8,339.0515,339.0516,342.1372,5.988129931,3.0817,0,6,6,35,1,1_to_8,images/Ex6.jpg,images/Ex1.jpg,Ex6,Ex1,,,,,
,,,,,032883,001,38,Male,UK,Masters,2024-11-07_15h03.59.789,CatSimMDS,2023.2.3,Win32,60.24096386,56d6224aebdf10000c68538b,672bf50eac1463c2ad3c747f,672cd6b2e6f382e26c1a0e10,,,,,,,,,,,342.1378,0.6,342.7377,342.7377,346.0732,3.991234453,3.3318,0,7,7,6,1,1_to_8,images/Ex1.jpg,images/Ex8.jpg,Ex1,Ex8,,,,,
,,,,,032883,001,38,Male,UK,Masters,2024-11-07_15h03.59.789,CatSimMDS,2023.2.3,Win32,60.24096386,56d6224aebdf10000c68538b,672bf50eac1463c2ad3c747f,672cd6b2e6f382e26c1a0e10,,,,,,,,,,,346.0737,1.2,347.2741,347.2742,349.6258,5.006939238,2.3475,0,8,8,54,1,1_to_8,images/Ex8.jpg,images/Ex6.jpg,Ex8,Ex6,,,,,
,,,,,032883,001,38,Male,UK,Masters,2024-11-07_15h03.59.789,CatSimMDS,2023.2.3,Win32,60.24096386,56d6224aebdf10000c68538b,672bf50eac1463c2ad3c747f,672cd6b2e6f382e26c1a0e10,,,,,,,,,,,349.6262,1,350.6264,350.6265,353.1782,5.006939238,2.5478,0,9,9,41,1,1_to_8,images/Ex6.jpg,images/Ex8.jpg,Ex6,Ex8,,,,,
,,,,,032883,001,38,Male,UK,Masters,2024-11-07_15h03.59.789,CatSimMDS,2023.2.3,Win32,60.24096386,56d6224aebdf10000c68538b,672bf50eac1463c2ad3c747f,672cd6b2e6f382e26c1a0e10,,,,,,,,,,,353.1787,1.1,354.279,354.279,356.8143,7.013696154,2.5337,0,10,10,22,1,1_to_8,images/Ex4.jpg,images/Ex2.jpg,Ex4,Ex2,,,,,
,,,,,032883,001,38,Male,UK,Masters,2024-11-07_15h03.59.789,CatSimMDS,2023.2.3,Win32,60.24096386,56d6224aebdf10000c68538b,672bf50eac1463c2ad3c747f,672cd6b2e6f382e26c1a0e10,,,,,,,,,,,356.8148,1.1,357.9147,357.9148,360.2664,5.9634769,2.3476,0,11,11,32,1,1_to_8,images/Ex5.jpg,images/Ex6.jpg,Ex5,Ex6,,,,,
,,,,,032883,001,38,Male,UK,Masters,2024-11-07_15h03.59.789,CatSimMDS,2023.2.3,Win32,60.24096386,56d6224aebdf10000c68538b,672bf50eac1463c2ad3c747f,672cd6b2e6f382e26c1a0e10,,,,,,,,,,,360.2668,0.7,360.9669,360.9669,364.3026,4.982286208,3.3331,0,12,12,12,1,1_to_8,images/Ex2.jpg,images/Ex7.jpg,Ex2,Ex7,,,,,
,,,,,032883,001,38,Male,UK,Masters,2024-11-07_15h03.59.789,CatSimMDS,2023.2.3,Win32,60.24096386,56d6224aebdf10000c68538b,672bf50eac1463c2ad3c747f,672cd6b2e6f382e26c1a0e10,,,,,,,,,,,364.3031,0.8,365.1032,365.1032,367.855,2.955807169,2.7477,0,13,13,15,1,1_to_8,images/Ex3.jpg,images/Ex2.jpg,Ex3,Ex2,,,,,
,,,,,032883,001,38,Male,UK,Masters,2024-11-07_15h03.59.789,CatSimMDS,2023.2.3,Win32,60.24096386,56d6224aebdf10000c68538b,672bf50eac1463c2ad3c747f,672cd6b2e6f382e26c1a0e10,,,,,,,,,,,367.8554,0.8,368.6556,368.6556,370.3734,2.955807169,1.7139,0,14,14,43,1,1_to_8,images/Ex7.jpg,images/Ex2.jpg,Ex7,Ex2,,,,,
,,,,,032883,001,38,Male,UK,Masters,2024-11-07_15h03.59.789,CatSimMDS,2023.2.3,Win32,60.24096386,56d6224aebdf10000c68538b,672bf50eac1463c2ad3c747f,672cd6b2e6f382e26c1a0e10,,,,,,,,,,,370.3738,1,371.3741,371.3741,375.5603,7.003835092,4.1826,0,15,15,31,1,1_to_8,images/Ex5.jpg,images/Ex4.jpg,Ex5,Ex4,,,,,
,,,,,032883,001,38,Male,UK,Masters,2024-11-07_15h03.59.789,CatSimMDS,2023.2.3,Win32,60.24096386,56d6224aebdf10000c68538b,672bf50eac1463c2ad3c747f,672cd6b2e6f382e26c1a0e10,,,,,,,,,,,375.5608,1,376.561,376.5611,379.0127,6.964390093,2.4477,0,16,16,1,1,1_to_8,images/Ex1.jpg,images/Ex3.jpg,Ex1,Ex3,,,,,
,,,,,032883,001,38,Male,UK,Masters,2024-11-07_15h03.59.789,CatSimMDS,2023.2.3,Win32,60.24096386,56d6224aebdf10000c68538b,672bf50eac1463c2ad3c747f,672cd6b2e6f382e26c1a0e10,,,,,,,,,,,379.0133,1.4,380.4137,380.4137,383.1156,8.039262377,2.6993,0,17,17,46,1,1_to_8,images/Ex7.jpg,images/Ex5.jpg,Ex7,Ex5,,,,,
,,,,,032883,001,38,Male,UK,Masters,2024-11-07_15h03.59.789,CatSimMDS,2023.2.3,Win32,60.24096386,56d6224aebdf10000c68538b,672bf50eac1463c2ad3c747f,672cd6b2e6f382e26c1a0e10,,,,,,,,,,,383.1161,0.8,383.9161,383.9161,386.4011,3.00511323,2.4812,0,18,18,3,1,1_to_8,images/Ex1.jpg,images/Ex5.jpg,Ex1,Ex5,,,,,
,,,,,032883,001,38,Male,UK,Masters,2024-11-07_15h03.59.789,CatSimMDS,2023.2.3,Win32,60.24096386,56d6224aebdf10000c68538b,672bf50eac1463c2ad3c747f,672cd6b2e6f382e26c1a0e10,,,,,,,,,,,386.4015,0.8,387.2017,387.2018,389.4867,6.993973278,2.2809,0,19,19,11,1,1_to_8,images/Ex2.jpg,images/Ex6.jpg,Ex2,Ex6,,,,,
,,,,,032883,001,38,Male,UK,Masters,2024-11-07_15h03.59.789,CatSimMDS,2023.2.3,Win32,60.24096386,56d6224aebdf10000c68538b,672bf50eac1463c2ad3c747f,672cd6b2e6f382e26c1a0e10,,,,,,,,,,,389.4872,1,390.4874,390.4874,393.2559,5.006939238,2.7646,0,20,20,48,1,1_to_8,images/Ex7.jpg,images/Ex8.jpg,Ex7,Ex8,,,,,
,,,,,032883,001,38,Male,UK,Masters,2024-11-07_15h03.59.789,CatSimMDS,2023.2.3,Win32,60.24096386,56d6224aebdf10000c68538b,672bf50eac1463c2ad3c747f,672cd6b2e6f382e26c1a0e10,,,,,,,,,,,393.2563,1.3,394.5569,394.5569,397.559,7.058071308,2.9983,0,21,21,47,1,1_to_8,images/Ex7.jpg,images/Ex6.jpg,Ex7,Ex6,,,,,
,,,,,032883,001,38,Male,UK,Masters,2024-11-07_15h03.59.789,CatSimMDS,2023.2.3,Win32,60.24096386,56d6224aebdf10000c68538b,672bf50eac1463c2ad3c747f,672cd6b2e6f382e26c1a0e10,,,,,,,,,,,397.5594,1.1,398.66,398.6601,401.2449,3.00511323,2.5804,0,22,22,13,1,1_to_8,images/Ex2.jpg,images/Ex8.jpg,Ex2,Ex8,,,,,
,,,,,032883,001,38,Male,UK,Masters,2024-11-07_15h03.59.789,CatSimMDS,2023.2.3,Win32,60.24096386,56d6224aebdf10000c68538b,672bf50eac1463c2ad3c747f,672cd6b2e6f382e26c1a0e10,,,,,,,,,,,401.2453,0.8,402.0455,402.0455,404.6305,7.023557216,2.581,0,23,23,53,1,1_to_8,images/Ex8.jpg,images/Ex5.jpg,Ex8,Ex5,,,,,
,,,,,032883,001,38,Male,UK,Masters,2024-11-07_15h03.59.789,CatSimMDS,2023.2.3,Win32,60.24096386,56d6224aebdf10000c68538b,672bf50eac1463c2ad3c747f,672cd6b2e6f382e26c1a0e10,,,,,,,,,,,404.6308,1.5,406.1314,406.1315,408.9168,5.993060838,2.7815,0,24,24,10,1,1_to_8,images/Ex2.jpg,images/Ex5.jpg,Ex2,Ex5,,,,,
,,,,,032883,001,38,Male,UK,Masters,2024-11-07_15h03.59.789,CatSimMDS,2023.2.3,Win32,60.24096386,56d6224aebdf10000c68538b,672bf50eac1463c2ad3c747f,672cd6b2e6f382e26c1a0e10,,,,,,,,,,,408.9172,0.8,409.7172,409.7172,412.7861,7.003835092,3.0649,0,25,25,44,1,1_to_8,images/Ex7.jpg,images/Ex3.jpg,Ex7,Ex3,,,,,
,,,,,032883,001,38,Male,UK,Masters,2024-11-07_15h03.59.789,CatSimMDS,2023.2.3,Win32,60.24096386,56d6224aebdf10000c68538b,672bf50eac1463c2ad3c747f,672cd6b2e6f382e26c1a0e10,,,,,,,,,,,412.7866,0.9,413.6867,413.6869,417.4895,5.978268869,3.7988,0,26,26,30,1,1_to_8,images/Ex5.jpg,images/Ex3.jpg,Ex5,Ex3,,,,,
,,,,,032883,001,38,Male,UK,Masters,2024-11-07_15h03.59.789,CatSimMDS,2023.2.3,Win32,60.24096386,56d6224aebdf10000c68538b,672bf50eac1463c2ad3c747f,672cd6b2e6f382e26c1a0e10,,,,,,,,,,,417.4901,0.5,417.9896,417.9897,421.7256,6.969320247,3.7321,0,27,27,17,1,1_to_8,images/Ex3.jpg,images/Ex5.jpg,Ex3,Ex5,,,,,
,,,,,032883,001,38,Male,UK,Masters,2024-11-07_15h03.59.789,CatSimMDS,2023.2.3,Win32,60.24096386,56d6224aebdf10000c68538b,672bf50eac1463c2ad3c747f,672cd6b2e6f382e26c1a0e10,,,,,,,,,,,421.7261,1,422.7264,422.7264,424.9279,6.969320247,2.1974,0,28,28,5,1,1_to_8,images/Ex1.jpg,images/Ex7.jpg,Ex1,Ex7,,,,,
,,,,,032883,001,38,Male,UK,Masters,2024-11-07_15h03.59.789,CatSimMDS,2023.2.3,Win32,60.24096386,56d6224aebdf10000c68538b,672bf50eac1463c2ad3c747f,672cd6b2e6f382e26c1a0e10,,,,,,,,,,,424.9284,1.4,426.3289,426.329,428.397,6.969320247,2.0641,0,29,29,45,1,1_to_8,images/Ex7.jpg,images/Ex4.jpg,Ex7,Ex4,,,,,
,,,,,032883,001,38,Male,UK,Masters,2024-11-07_15h03.59.789,CatSimMDS,2023.2.3,Win32,60.24096386,56d6224aebdf10000c68538b,672bf50eac1463c2ad3c747f,672cd6b2e6f382e26c1a0e10,,,,,,,,,,,428.3974,0.8,429.1974,429.1974,432.4664,7.989956316,3.2659,0,30,30,18,1,1_to_8,images/Ex3.jpg,images/Ex6.jpg,Ex3,Ex6,,,,,
,,,,,032883,001,38,Male,UK,Masters,2024-11-07_15h03.59.789,CatSimMDS,2023.2.3,Win32,60.24096386,56d6224aebdf10000c68538b,672bf50eac1463c2ad3c747f,672cd6b2e6f382e26c1a0e10,,,,,,,,,,,432.467,1.4,433.8675,433.8675,435.9521,7.989956316,2.0812,0,31,31,24,1,1_to_8,images/Ex4.jpg,images/Ex5.jpg,Ex4,Ex5,,,,,
,,,,,032883,001,38,Male,UK,Masters,2024-11-07_15h03.59.789,CatSimMDS,2023.2.3,Win32,60.24096386,56d6224aebdf10000c68538b,672bf50eac1463c2ad3c747f,672cd6b2e6f382e26c1a0e10,,,,,,,,,,,435.9525,0.8,436.7528,436.7529,440.522,5.993060838,3.7655,0,32,32,9,1,1_to_8,images/Ex2.jpg,images/Ex4.jpg,Ex2,Ex4,,,,,
,,,,,032883,001,38,Male,UK,Masters,2024-11-07_15h03.59.789,CatSimMDS,2023.2.3,Win32,60.24096386,56d6224aebdf10000c68538b,672bf50eac1463c2ad3c747f,672cd6b2e6f382e26c1a0e10,,,,,,,,,,,440.5224,1.3,441.8229,441.8229,446.8597,4.035609984,5.0331,0,33,33,7,1,1_to_8,images/Ex2.jpg,images/Ex1.jpg,Ex2,Ex1,,,,,
,,,,,032883,001,38,Male,UK,Masters,2024-11-07_15h03.59.789,CatSimMDS,2023.2.3,Win32,60.24096386,56d6224aebdf10000c68538b,672bf50eac1463c2ad3c747f,672cd6b2e6f382e26c1a0e10,,,,,,,,,,,446.8602,1.2,448.0606,448.0606,451.3629,6.949598124,3.2984,0,34,34,49,1,1_to_8,images/Ex8.jpg,images/Ex1.jpg,Ex8,Ex1,,,,,
,,,,,032883,001,38,Male,UK,Masters,2024-11-07_15h03.59.789,CatSimMDS,2023.2.3,Win32,60.24096386,56d6224aebdf10000c68538b,672bf50eac1463c2ad3c747f,672cd6b2e6f382e26c1a0e10,,,,,,,,,,,451.3634,0.6,451.9633,451.9633,454.1484,6.949598124,2.1834,0,35,35,52,1,1_to_8,images/Ex8.jpg,images/Ex4.jpg,Ex8,Ex4,,,,,
,,,,,032883,001,38,Male,UK,Masters,2024-11-07_15h03.59.789,CatSimMDS,2023.2.3,Win32,60.24096386,56d6224aebdf10000c68538b,672bf50eac1463c2ad3c747f,672cd6b2e6f382e26c1a0e10,,,,,,,,,,,454.1488,0.8,454.9488,454.9488,457.5171,6.007852054,2.5643,0,36,36,39,1,1_to_8,images/Ex6.jpg,images/Ex5.jpg,Ex6,Ex5,,,,,
,,,,,032883,001,38,Male,UK,Masters,2024-11-07_15h03.59.789,CatSimMDS,2023.2.3,Win32,60.24096386,56d6224aebdf10000c68538b,672bf50eac1463c2ad3c747f,672cd6b2e6f382e26c1a0e10,,,,,,,,,,,457.5175,0.9,458.4178,458.4179,461.8536,7.033418277,3.432,0,37,37,19,1,1_to_8,images/Ex3.jpg,images/Ex7.jpg,Ex3,Ex7,,,,,
,,,,,032883,001,38,Male,UK,Masters,2024-11-07_15h03.59.789,CatSimMDS,2023.2.3,Win32,60.24096386,56d6224aebdf10000c68538b,672bf50eac1463c2ad3c747f,672cd6b2e6f382e26c1a0e10,,,,,,,,,,,461.8541,0.8,462.6538,462.6539,464.9721,6.02757493,2.3146,0,38,38,2,1,1_to_8,images/Ex1.jpg,images/Ex4.jpg,Ex1,Ex4,,,,,
,,,,,032883,001,38,Male,UK,Masters,2024-11-07_15h03.59.789,CatSimMDS,2023.2.3,Win32,60.24096386,56d6224aebdf10000c68538b,672bf50eac1463c2ad3c747f,672cd6b2e6f382e26c1a0e10,,,,,,,,,,,464.9725,1.4,466.3736,466.3737,469.109,4.957633177,2.7275,0,39,39,50,1,1_to_8,images/Ex8.jpg,images/Ex2.jpg,Ex8,Ex2,,,,,
,,,,,032883,001,38,Male,UK,Masters,2024-11-07_15h03.59.789,CatSimMDS,2023.2.3,Win32,60.24096386,56d6224aebdf10000c68538b,672bf50eac1463c2ad3c747f,672cd6b2e6f382e26c1a0e10,,,,,,,,,,,469.1095,1.2,470.31,470.31,473.5449,4.967494239,3.2308,0,40,40,51,1,1_to_8,images/Ex8.jpg,images/Ex3.jpg,Ex8,Ex3,,,,,
,,,,,032883,001,38,Male,UK,Masters,2024-11-07_15h03.59.789,CatSimMDS,2023.2.3,Win32,60.24096386,56d6224aebdf10000c68538b,672bf50eac1463c2ad3c747f,672cd6b2e6f382e26c1a0e10,,,,,,,,,,,473.5453,0.5,474.0452,474.0452,476.7805,6.0029219,2.7323,0,41,41,37,1,1_to_8,images/Ex6.jpg,images/Ex3.jpg,Ex6,Ex3,,,,,
,,,,,032883,001,38,Male,UK,Masters,2024-11-07_15h03.59.789,CatSimMDS,2023.2.3,Win32,60.24096386,56d6224aebdf10000c68538b,672bf50eac1463c2ad3c747f,672cd6b2e6f382e26c1a0e10,,,,,,,,,,,476.781,1.5,478.2816,478.2816,480.5498,6.959459186,2.2643,0,42,42,34,1,1_to_8,images/Ex5.jpg,images/Ex8.jpg,Ex5,Ex8,,,,,
,,,,,032883,001,38,Male,UK,Masters,2024-11-07_15h03.59.789,CatSimMDS,2023.2.3,Win32,60.24096386,56d6224aebdf10000c68538b,672bf50eac1463c2ad3c747f,672cd6b2e6f382e26c1a0e10,,,,,,,,,,,480.5502,0.8,481.3503,481.3504,484.3688,6.964390093,3.0157,0,43,43,4,1,1_to_8,images/Ex1.jpg,images/Ex6.jpg,Ex1,Ex6,,,,,
,,,,,032883,001,38,Male,UK,Masters,2024-11-07_15h03.59.789,CatSimMDS,2023.2.3,Win32,60.24096386,56d6224aebdf10000c68538b,672bf50eac1463c2ad3c747f,672cd6b2e6f382e26c1a0e10,,,,,,,,,,,484.369,0.7,485.0696,485.0696,488.3219,6.929876,3.2483,0,44,44,20,1,1_to_8,images/Ex3.jpg,images/Ex8.jpg,Ex3,Ex8,,,,,
,,,,,032883,001,38,Male,UK,Masters,2024-11-07_15h03.59.789,CatSimMDS,2023.2.3,Win32,60.24096386,56d6224aebdf10000c68538b,672bf50eac1463c2ad3c747f,672cd6b2e6f382e26c1a0e10,,,,,,,,,,,488.3224,1.3,489.6225,489.6225,491.7909,6.979182061,2.1644,0,45,45,36,1,1_to_8,images/Ex6.jpg,images/Ex2.jpg,Ex6,Ex2,,,,,
,,,,,032883,001,38,Male,UK,Masters,2024-11-07_15h03.59.789,CatSimMDS,2023.2.3,Win32,60.24096386,56d6224aebdf10000c68538b,672bf50eac1463c2ad3c747f,672cd6b2e6f382e26c1a0e10,,,,,,,,,,,491.7914,0.6,492.3914,492.3915,495.5434,6.022644023,3.1492,0,46,46,21,1,1_to_8,images/Ex4.jpg,images/Ex1.jpg,Ex4,Ex1,,,,,
,,,,,032883,001,38,Male,UK,Masters,2024-11-07_15h03.59.789,CatSimMDS,2023.2.3,Win32,60.24096386,56d6224aebdf10000c68538b,672bf50eac1463c2ad3c747f,672cd6b2e6f382e26c1a0e10,,,,,,,,,,,495.5439,1.2,496.7444,496.7444,499.3294,2.96566823,2.5811,0,47,47,16,1,1_to_8,images/Ex3.jpg,images/Ex4.jpg,Ex3,Ex4,,,,,
,,,,,032883,001,38,Male,UK,Masters,2024-11-07_15h03.59.789,CatSimMDS,2023.2.3,Win32,60.24096386,56d6224aebdf10000c68538b,672bf50eac1463c2ad3c747f,672cd6b2e6f382e26c1a0e10,,,,,,,,,,,499.3298,0.5,499.8268,499.8269,502.615,6.979182061,2.7844,0,48,48,38,1,1_to_8,images/Ex6.jpg,images/Ex4.jpg,Ex6,Ex4,,,,,
,,,,,032883,001,38,Male,UK,Masters,2024-11-07_15h03.59.789,CatSimMDS,2023.2.3,Win32,60.24096386,56d6224aebdf10000c68538b,672bf50eac1463c2ad3c747f,672cd6b2e6f382e26c1a0e10,,,,,,,,,,,502.6154,0.8,503.4156,503.4157,506.4843,4.030679077,3.0647,0,49,49,8,1,1_to_8,images/Ex2.jpg,images/Ex3.jpg,Ex2,Ex3,,,,,
,,,,,032883,001,38,Male,UK,Masters,2024-11-07_15h03.59.789,CatSimMDS,2023.2.3,Win32,60.24096386,56d6224aebdf10000c68538b,672bf50eac1463c2ad3c747f,672cd6b2e6f382e26c1a0e10,,,,,,,,,,,506.4847,1.4,507.8854,507.8855,509.6033,4.030679077,1.714,0,50,50,0,1,1_to_8,images/Ex1.jpg,images/Ex2.jpg,Ex1,Ex2,,,,,
,,,,,032883,001,38,Male,UK,Masters,2024-11-07_15h03.59.789,CatSimMDS,2023.2.3,Win32,60.24096386,56d6224aebdf10000c68538b,672bf50eac1463c2ad3c747f,672cd6b2e6f382e26c1a0e10,,,,,,,,,,,509.6038,1.3,510.9042,510.9042,514.4232,7.275018429,3.5152,0,51,51,33,1,1_to_8,images/Ex5.jpg,images/Ex7.jpg,Ex5,Ex7,,,,,
,,,,,032883,001,38,Male,UK,Masters,2024-11-07_15h03.59.789,CatSimMDS,2023.2.3,Win32,60.24096386,56d6224aebdf10000c68538b,672bf50eac1463c2ad3c747f,672cd6b2e6f382e26c1a0e10,,,,,,,,,,,514.4237,1,515.4239,515.4239,519.2931,6.042366899,3.8656,0,52,52,14,1,1_to_8,images/Ex3.jpg,images/Ex1.jpg,Ex3,Ex1,,,,,
,,,,,032883,001,38,Male,UK,Masters,2024-11-07_15h03.59.789,CatSimMDS,2023.2.3,Win32,60.24096386,56d6224aebdf10000c68538b,672bf50eac1463c2ad3c747f,672cd6b2e6f382e26c1a0e10,,,,,,,,,,,519.2936,0.5,519.7934,519.7935,521.7784,6.984112216,1.9809,0,53,53,27,1,1_to_8,images/Ex4.jpg,images/Ex8.jpg,Ex4,Ex8,,,,,
,,,,,032883,001,38,Male,UK,Masters,2024-11-07_15h03.59.789,CatSimMDS,2023.2.3,Win32,60.24096386,56d6224aebdf10000c68538b,672bf50eac1463c2ad3c747f,672cd6b2e6f382e26c1a0e10,,,,,,,,,,,521.7789,0.5,522.2788,522.2788,524.8803,6.949598124,2.5997,0,54,54,40,1,1_to_8,images/Ex6.jpg,images/Ex7.jpg,Ex6,Ex7,,,,,
,,,,,032883,001,38,Male,UK,Masters,2024-11-07_15h03.59.789,CatSimMDS,2023.2.3,Win32,60.24096386,56d6224aebdf10000c68538b,672bf50eac1463c2ad3c747f,672cd6b2e6f382e26c1a0e10,,,,,,,,,,,,,,,,,,,,,,,,,,,,524.8807,556.5694,space,31.6238,