infCons.started,infCons.stopped,resp_consent.keys,resp_consent.rt,resp_consent.duration,participant,session,Age?,Gender?,Nationality?,Highest Educational Degree?,date,expName,psychopyVersion,OS,frameRate,PROLIFIC_PID,STUDY_ID,SESSION_ID,instructions.started,instructions.stopped,resp_instructions.keys,resp_instructions.rt,resp_instructions.duration,nextTask.started,nextTask.stopped,ready_task.keys,ready_task.rt,ready_task.duration,fixation.started,ITI,fixation.stopped,stim.started,stim.stopped,slider.response,slider.rt,trials.thisRepN,trials.thisTrialN,trials.thisN,trials.thisIndex,trials.ran,task,exemplarLeft,exemplarRight,left,right,end.started,end.stopped,resp_end.keys,resp_end.rt,resp_end.duration
0.0053,8.7612,space,8.606,,037572,001,,,,,2024-11-07_15h03.59.589,CatSimMDS,2023.2.3,Win32,57.14285714,5c351b21d4ae620001d3ee01,672bf50eac1463c2ad3c747f,672cd6a9a2c3adebcbf242fc,,,,,,,,,,,,,,,,,,,,,,,,,,,,,,,,
,,,,,037572,001,,,,,2024-11-07_15h03.59.589,CatSimMDS,2023.2.3,Win32,57.14285714,5c351b21d4ae620001d3ee01,672bf50eac1463c2ad3c747f,672cd6a9a2c3adebcbf242fc,8.7633,162.1868,space,153.3947,,,,,,,,,,,,,,,,,,,,,,,,,,,,
,,,,,037572,001,,,,,2024-11-07_15h03.59.589,CatSimMDS,2023.2.3,Win32,57.14285714,5c351b21d4ae620001d3ee01,672bf50eac1463c2ad3c747f,672cd6a9a2c3adebcbf242fc,,,,,,162.203,280.9856,space,118.7597,,281.0103,1.4,282.4114,282.4117,288.0012,4.98664833,5.5836,0,0,0,19,1,9_to_16,images/Ex11.jpg,images/Ex15.jpg,Ex11,Ex15,,,,,
,,,,,037572,001,,,,,2024-11-07_15h03.59.589,CatSimMDS,2023.2.3,Win32,57.14285714,5c351b21d4ae620001d3ee01,672bf50eac1463c2ad3c747f,672cd6a9a2c3adebcbf242fc,,,,,,,,,,,288.0038,1.3,289.2966,289.2969,294.1962,1.001582505,4.8943,0,1,1,15,1,9_to_16,images/Ex11.jpg,images/Ex10.jpg,Ex11,Ex10,,,,,
,,,,,037572,001,,,,,2024-11-07_15h03.59.589,CatSimMDS,2023.2.3,Win32,57.14285714,5c351b21d4ae620001d3ee01,672bf50eac1463c2ad3c747f,672cd6a9a2c3adebcbf242fc,,,,,,,,,,,294.1979,0.7,294.8936,294.8937,296.8497,1.013303321,1.9498,0,2,2,33,1,9_to_16,images/Ex13.jpg,images/Ex15.jpg,Ex13,Ex15,,,,,
,,,,,037572,001,,,,,2024-11-07_15h03.59.589,CatSimMDS,2023.2.3,Win32,57.14285714,5c351b21d4ae620001d3ee01,672bf50eac1463c2ad3c747f,672cd6a9a2c3adebcbf242fc,,,,,,,,,,,296.8506,1,297.8421,297.8423,299.8111,1.071907401,1.9611,0,3,3,17,1,9_to_16,images/Ex11.jpg,images/Ex13.jpg,Ex11,Ex13,,,,,
,,,,,037572,001,,,,,2024-11-07_15h03.59.589,CatSimMDS,2023.2.3,Win32,57.14285714,5c351b21d4ae620001d3ee01,672bf50eac1463c2ad3c747f,672cd6a9a2c3adebcbf242fc,,,,,,,,,,,299.812,0.9,300.7081,300.7082,302.5407,1.001582505,1.8261,0,4,4,4,1,9_to_16,images/Ex9.jpg,images/Ex14.jpg,Ex9,Ex14,,,,,
,,,,,037572,001,,,,,2024-11-07_15h03.59.589,CatSimMDS,2023.2.3,Win32,57.14285714,5c351b21d4ae620001d3ee01,672bf50eac1463c2ad3c747f,672cd6a9a2c3adebcbf242fc,,,,,,,,,,,302.5416,0.5,303.0331,303.0332,304.5128,1.001582505,1.4736,0,5,5,13,1,9_to_16,images/Ex10.jpg,images/Ex16.jpg,Ex10,Ex16,,,,,
,,,,,037572,001,,,,,2024-11-07_15h03.59.589,CatSimMDS,2023.2.3,Win32,57.14285714,5c351b21d4ae620001d3ee01,672bf50eac1463c2ad3c747f,672cd6a9a2c3adebcbf242fc,,,,,,,,,,,304.5135,0.5,305.0046,305.0047,306.4398,1.001582505,1.4298,0,6,6,31,1,9_to_16,images/Ex13.jpg,images/Ex12.jpg,Ex13,Ex12,,,,,
,,,,,037572,001,,,,,2024-11-07_15h03.59.589,CatSimMDS,2023.2.3,Win32,57.14285714,5c351b21d4ae620001d3ee01,672bf50eac1463c2ad3c747f,672cd6a9a2c3adebcbf242fc,,,,,,,,,,,306.4411,0.6,307.0371,307.0374,309.0875,1.001582505,2.0435,0,7,7,42,1,9_to_16,images/Ex15.jpg,images/Ex9.jpg,Ex15,Ex9,,,,,
,,,,,037572,001,,,,,2024-11-07_15h03.59.589,CatSimMDS,2023.2.3,Win32,57.14285714,5c351b21d4ae620001d3ee01,672bf50eac1463c2ad3c747f,672cd6a9a2c3adebcbf242fc,,,,,,,,,,,309.0887,0.8,309.8793,309.8794,312.6534,2.98239428,2.7665,0,8,8,28,1,9_to_16,images/Ex13.jpg,images/Ex9.jpg,Ex13,Ex9,,,,,
,,,,,037572,001,,,,,2024-11-07_15h03.59.589,CatSimMDS,2023.2.3,Win32,57.14285714,5c351b21d4ae620001d3ee01,672bf50eac1463c2ad3c747f,672cd6a9a2c3adebcbf242fc,,,,,,,,,,,312.6543,0.5,313.1514,313.1514,315.3529,1.048465769,2.1937,0,9,9,50,1,9_to_16,images/Ex16.jpg,images/Ex10.jpg,Ex16,Ex10,,,,,
,,,,,037572,001,,,,,2024-11-07_15h03.59.589,CatSimMDS,2023.2.3,Win32,57.14285714,5c351b21d4ae620001d3ee01,672bf50eac1463c2ad3c747f,672cd6a9a2c3adebcbf242fc,,,,,,,,,,,315.3538,0.8,316.1502,316.1503,318.5156,1.048465769,2.3608,0,10,10,38,1,9_to_16,images/Ex14.jpg,images/Ex12.jpg,Ex14,Ex12,,,,,
,,,,,037572,001,,,,,2024-11-07_15h03.59.589,CatSimMDS,2023.2.3,Win32,57.14285714,5c351b21d4ae620001d3ee01,672bf50eac1463c2ad3c747f,672cd6a9a2c3adebcbf242fc,,,,,,,,,,,318.5172,0.6,319.1142,319.1144,320.2918,1.048465769,1.1724,0,11,11,32,1,9_to_16,images/Ex13.jpg,images/Ex14.jpg,Ex13,Ex14,,,,,
,,,,,037572,001,,,,,2024-11-07_15h03.59.589,CatSimMDS,2023.2.3,Win32,57.14285714,5c351b21d4ae620001d3ee01,672bf50eac1463c2ad3c747f,672cd6a9a2c3adebcbf242fc,,,,,,,,,,,320.2926,0.6,320.8809,320.881,322.2943,1.048465769,1.4078,0,12,12,14,1,9_to_16,images/Ex11.jpg,images/Ex9.jpg,Ex11,Ex9,,,,,
,,,,,037572,001,,,,,2024-11-07_15h03.59.589,CatSimMDS,2023.2.3,Win32,57.14285714,5c351b21d4ae620001d3ee01,672bf50eac1463c2ad3c747f,672cd6a9a2c3adebcbf242fc,,,,,,,,,,,322.2973,0.7,322.9899,322.9899,325.7136,3.978660736,2.7168,0,13,13,18,1,9_to_16,images/Ex11.jpg,images/Ex14.jpg,Ex11,Ex14,,,,,
,,,,,037572,001,,,,,2024-11-07_15h03.59.589,CatSimMDS,2023.2.3,Win32,57.14285714,5c351b21d4ae620001d3ee01,672bf50eac1463c2ad3c747f,672cd6a9a2c3adebcbf242fc,,,,,,,,,,,325.7145,0.7,326.4101,326.4103,329.4815,2.923790522,3.0671,0,14,14,27,1,9_to_16,images/Ex12.jpg,images/Ex16.jpg,Ex12,Ex16,,,,,
,,,,,037572,001,,,,,2024-11-07_15h03.59.589,CatSimMDS,2023.2.3,Win32,57.14285714,5c351b21d4ae620001d3ee01,672bf50eac1463c2ad3c747f,672cd6a9a2c3adebcbf242fc,,,,,,,,,,,329.4821,0.9,330.3758,330.3759,334.3916,4.963206698,4.0114,0,15,15,20,1,9_to_16,images/Ex11.jpg,images/Ex16.jpg,Ex11,Ex16,,,,,
,,,,,037572,001,,,,,2024-11-07_15h03.59.589,CatSimMDS,2023.2.3,Win32,57.14285714,5c351b21d4ae620001d3ee01,672bf50eac1463c2ad3c747f,672cd6a9a2c3adebcbf242fc,,,,,,,,,,,334.3927,1.1,335.4883,335.4884,338.0049,1.001582505,2.5116,0,16,16,0,1,9_to_16,images/Ex9.jpg,images/Ex10.jpg,Ex9,Ex10,,,,,
,,,,,037572,001,,,,,2024-11-07_15h03.59.589,CatSimMDS,2023.2.3,Win32,57.14285714,5c351b21d4ae620001d3ee01,672bf50eac1463c2ad3c747f,672cd6a9a2c3adebcbf242fc,,,,,,,,,,,338.006,1.2,339.203,339.2031,340.8251,1.001582505,1.6151,0,17,17,10,1,9_to_16,images/Ex10.jpg,images/Ex13.jpg,Ex10,Ex13,,,,,
,,,,,037572,001,,,,,2024-11-07_15h03.59.589,CatSimMDS,2023.2.3,Win32,57.14285714,5c351b21d4ae620001d3ee01,672bf50eac1463c2ad3c747f,672cd6a9a2c3adebcbf242fc,,,,,,,,,,,340.8268,0.7,341.5189,341.5191,342.7231,1.001582505,1.1984,0,18,18,34,1,9_to_16,images/Ex13.jpg,images/Ex16.jpg,Ex13,Ex16,,,,,
,,,,,037572,001,,,,,2024-11-07_15h03.59.589,CatSimMDS,2023.2.3,Win32,57.14285714,5c351b21d4ae620001d3ee01,672bf50eac1463c2ad3c747f,672cd6a9a2c3adebcbf242fc,,,,,,,,,,,342.7242,1,343.7156,343.7156,346.8736,2.947232154,3.1511,0,19,19,3,1,9_to_16,images/Ex9.jpg,images/Ex13.jpg,Ex9,Ex13,,,,,
,,,,,037572,001,,,,,2024-11-07_15h03.59.589,CatSimMDS,2023.2.3,Win32,57.14285714,5c351b21d4ae620001d3ee01,672bf50eac1463c2ad3c747f,672cd6a9a2c3adebcbf242fc,,,,,,,,,,,346.8741,1,347.8681,347.8683,352.9667,1.025024137,5.0922,0,20,20,37,1,9_to_16,images/Ex14.jpg,images/Ex11.jpg,Ex14,Ex11,,,,,
,,,,,037572,001,,,,,2024-11-07_15h03.59.589,CatSimMDS,2023.2.3,Win32,57.14285714,5c351b21d4ae620001d3ee01,672bf50eac1463c2ad3c747f,672cd6a9a2c3adebcbf242fc,,,,,,,,,,,352.9679,0.8,353.762,353.7622,355.5461,1.025024137,1.7796,0,21,21,41,1,9_to_16,images/Ex14.jpg,images/Ex16.jpg,Ex14,Ex16,,,,,
,,,,,037572,001,,,,,2024-11-07_15h03.59.589,CatSimMDS,2023.2.3,Win32,57.14285714,5c351b21d4ae620001d3ee01,672bf50eac1463c2ad3c747f,672cd6a9a2c3adebcbf242fc,,,,,,,,,,,355.5475,1.1,356.644,356.6441,359.907,3.978660736,3.2576,0,22,22,11,1,9_to_16,images/Ex10.jpg,images/Ex14.jpg,Ex10,Ex14,,,,,
,,,,,037572,001,,,,,2024-11-07_15h03.59.589,CatSimMDS,2023.2.3,Win32,57.14285714,5c351b21d4ae620001d3ee01,672bf50eac1463c2ad3c747f,672cd6a9a2c3adebcbf242fc,,,,,,,,,,,359.9094,1.1,361.0021,361.0022,363.3577,1.001582505,2.3493,0,23,23,29,1,9_to_16,images/Ex13.jpg,images/Ex10.jpg,Ex13,Ex10,,,,,
,,,,,037572,001,,,,,2024-11-07_15h03.59.589,CatSimMDS,2023.2.3,Win32,57.14285714,5c351b21d4ae620001d3ee01,672bf50eac1463c2ad3c747f,672cd6a9a2c3adebcbf242fc,,,,,,,,,,,363.3589,1.5,364.8499,364.85,370.1216,3.005835912,5.2675,0,24,24,25,1,9_to_16,images/Ex12.jpg,images/Ex14.jpg,Ex12,Ex14,,,,,
,,,,,037572,001,,,,,2024-11-07_15h03.59.589,CatSimMDS,2023.2.3,Win32,57.14285714,5c351b21d4ae620001d3ee01,672bf50eac1463c2ad3c747f,672cd6a9a2c3adebcbf242fc,,,,,,,,,,,370.123,0.6,370.7196,370.7197,374.1575,1.013303321,3.433,0,25,25,43,1,9_to_16,images/Ex15.jpg,images/Ex10.jpg,Ex15,Ex10,,,,,
,,,,,037572,001,,,,,2024-11-07_15h03.59.589,CatSimMDS,2023.2.3,Win32,57.14285714,5c351b21d4ae620001d3ee01,672bf50eac1463c2ad3c747f,672cd6a9a2c3adebcbf242fc,,,,,,,,,,,374.1586,1.4,375.5504,375.5505,379.479,1.013303321,3.9244,0,26,26,6,1,9_to_16,images/Ex9.jpg,images/Ex16.jpg,Ex9,Ex16,,,,,
,,,,,037572,001,,,,,2024-11-07_15h03.59.589,CatSimMDS,2023.2.3,Win32,57.14285714,5c351b21d4ae620001d3ee01,672bf50eac1463c2ad3c747f,672cd6a9a2c3adebcbf242fc,,,,,,,,,,,379.4803,0.7,380.1753,380.1755,385.7634,1.013303321,5.5825,0,27,27,35,1,9_to_16,images/Ex14.jpg,images/Ex9.jpg,Ex14,Ex9,,,,,
,,,,,037572,001,,,,,2024-11-07_15h03.59.589,CatSimMDS,2023.2.3,Win32,57.14285714,5c351b21d4ae620001d3ee01,672bf50eac1463c2ad3c747f,672cd6a9a2c3adebcbf242fc,,,,,,,,,,,385.7646,1.2,386.9609,386.961,393.0516,4.963206698,6.0848,0,28,28,36,1,9_to_16,images/Ex14.jpg,images/Ex10.jpg,Ex14,Ex10,,,,,
,,,,,037572,001,,,,,2024-11-07_15h03.59.589,CatSimMDS,2023.2.3,Win32,57.14285714,5c351b21d4ae620001d3ee01,672bf50eac1463c2ad3c747f,672cd6a9a2c3adebcbf242fc,,,,,,,,,,,393.0525,0.6,393.6406,393.6408,396.3875,1.001582505,2.7412,0,29,29,49,1,9_to_16,images/Ex16.jpg,images/Ex9.jpg,Ex16,Ex9,,,,,
,,,,,037572,001,,,,,2024-11-07_15h03.59.589,CatSimMDS,2023.2.3,Win32,57.14285714,5c351b21d4ae620001d3ee01,672bf50eac1463c2ad3c747f,672cd6a9a2c3adebcbf242fc,,,,,,,,,,,396.3894,0.6,396.9841,396.9842,402.8212,1.001582505,5.8335,0,30,30,52,1,9_to_16,images/Ex16.jpg,images/Ex12.jpg,Ex16,Ex12,,,,,
,,,,,037572,001,,,,,2024-11-07_15h03.59.589,CatSimMDS,2023.2.3,Win32,57.14285714,5c351b21d4ae620001d3ee01,672bf50eac1463c2ad3c747f,672cd6a9a2c3adebcbf242fc,,,,,,,,,,,402.8226,0.5,403.3203,403.3204,404.8698,1.001582505,1.5433,0,31,31,30,1,9_to_16,images/Ex13.jpg,images/Ex11.jpg,Ex13,Ex11,,,,,
,,,,,037572,001,,,,,2024-11-07_15h03.59.589,CatSimMDS,2023.2.3,Win32,57.14285714,5c351b21d4ae620001d3ee01,672bf50eac1463c2ad3c747f,672cd6a9a2c3adebcbf242fc,,,,,,,,,,,404.8712,1.2,406.0673,406.0674,409.8579,1.001582505,3.7832,0,32,32,46,1,9_to_16,images/Ex15.jpg,images/Ex13.jpg,Ex15,Ex13,,,,,
,,,,,037572,001,,,,,2024-11-07_15h03.59.589,CatSimMDS,2023.2.3,Win32,57.14285714,5c351b21d4ae620001d3ee01,672bf50eac1463c2ad3c747f,672cd6a9a2c3adebcbf242fc,,,,,,,,,,,409.8587,0.9,410.748,410.748,414.3777,1.001582505,3.6247,0,33,33,47,1,9_to_16,images/Ex15.jpg,images/Ex14.jpg,Ex15,Ex14,,,,,
,,,,,037572,001,,,,,2024-11-07_15h03.59.589,CatSimMDS,2023.2.3,Win32,57.14285714,5c351b21d4ae620001d3ee01,672bf50eac1463c2ad3c747f,672cd6a9a2c3adebcbf242fc,,,,,,,,,,,414.3784,1,415.3733,415.3736,417.1805,1.001582505,1.7998,0,34,34,7,1,9_to_16,images/Ex10.jpg,images/Ex9.jpg,Ex10,Ex9,,,,,
,,,,,037572,001,,,,,2024-11-07_15h03.59.589,CatSimMDS,2023.2.3,Win32,57.14285714,5c351b21d4ae620001d3ee01,672bf50eac1463c2ad3c747f,672cd6a9a2c3adebcbf242fc,,,,,,,,,,,417.1818,1.1,418.2732,418.2733,426.9953,1.001582505,8.7156,0,35,35,16,1,9_to_16,images/Ex11.jpg,images/Ex12.jpg,Ex11,Ex12,,,,,
,,,,,037572,001,,,,,2024-11-07_15h03.59.589,CatSimMDS,2023.2.3,Win32,57.14285714,5c351b21d4ae620001d3ee01,672bf50eac1463c2ad3c747f,672cd6a9a2c3adebcbf242fc,,,,,,,,,,,426.9964,1.2,428.1889,428.189,429.9916,1.001582505,1.7942,0,36,36,24,1,9_to_16,images/Ex12.jpg,images/Ex13.jpg,Ex12,Ex13,,,,,
,,,,,037572,001,,,,,2024-11-07_15h03.59.589,CatSimMDS,2023.2.3,Win32,57.14285714,5c351b21d4ae620001d3ee01,672bf50eac1463c2ad3c747f,672cd6a9a2c3adebcbf242fc,,,,,,,,,,,429.9923,0.9,430.8887,430.8888,432.1624,1.001582505,1.2674,0,37,37,45,1,9_to_16,images/Ex15.jpg,images/Ex12.jpg,Ex15,Ex12,,,,,
,,,,,037572,001,,,,,2024-11-07_15h03.59.589,CatSimMDS,2023.2.3,Win32,57.14285714,5c351b21d4ae620001d3ee01,672bf50eac1463c2ad3c747f,672cd6a9a2c3adebcbf242fc,,,,,,,,,,,432.1642,0.9,433.0534,433.0536,434.3281,1.001582505,1.2682,0,38,38,23,1,9_to_16,images/Ex12.jpg,images/Ex11.jpg,Ex12,Ex11,,,,,
,,,,,037572,001,,,,,2024-11-07_15h03.59.589,CatSimMDS,2023.2.3,Win32,57.14285714,5c351b21d4ae620001d3ee01,672bf50eac1463c2ad3c747f,672cd6a9a2c3adebcbf242fc,,,,,,,,,,,434.3289,0.8,435.1183,435.1183,436.4201,1.001582505,1.2952,0,39,39,12,1,9_to_16,images/Ex10.jpg,images/Ex15.jpg,Ex10,Ex15,,,,,
,,,,,037572,001,,,,,2024-11-07_15h03.59.589,CatSimMDS,2023.2.3,Win32,57.14285714,5c351b21d4ae620001d3ee01,672bf50eac1463c2ad3c747f,672cd6a9a2c3adebcbf242fc,,,,,,,,,,,436.4213,1.3,437.7112,437.7114,439.4029,1.001582505,1.6846,0,40,40,48,1,9_to_16,images/Ex15.jpg,images/Ex16.jpg,Ex15,Ex16,,,,,
,,,,,037572,001,,,,,2024-11-07_15h03.59.589,CatSimMDS,2023.2.3,Win32,57.14285714,5c351b21d4ae620001d3ee01,672bf50eac1463c2ad3c747f,672cd6a9a2c3adebcbf242fc,,,,,,,,,,,439.4037,1.2,440.599,440.599,444.9824,1.001582505,4.3788,0,41,41,22,1,9_to_16,images/Ex12.jpg,images/Ex10.jpg,Ex12,Ex10,,,,,
,,,,,037572,001,,,,,2024-11-07_15h03.59.589,CatSimMDS,2023.2.3,Win32,57.14285714,5c351b21d4ae620001d3ee01,672bf50eac1463c2ad3c747f,672cd6a9a2c3adebcbf242fc,,,,,,,,,,,444.9838,1.4,446.3791,446.3792,450.1278,5.971193649,3.742,0,42,42,44,1,9_to_16,images/Ex15.jpg,images/Ex11.jpg,Ex15,Ex11,,,,,
,,,,,037572,001,,,,,2024-11-07_15h03.59.589,CatSimMDS,2023.2.3,Win32,57.14285714,5c351b21d4ae620001d3ee01,672bf50eac1463c2ad3c747f,672cd6a9a2c3adebcbf242fc,,,,,,,,,,,450.1288,0.9,451.0214,451.0214,453.246,1.001582505,2.2207,0,43,43,5,1,9_to_16,images/Ex9.jpg,images/Ex15.jpg,Ex9,Ex15,,,,,
,,,,,037572,001,,,,,2024-11-07_15h03.59.589,CatSimMDS,2023.2.3,Win32,57.14285714,5c351b21d4ae620001d3ee01,672bf50eac1463c2ad3c747f,672cd6a9a2c3adebcbf242fc,,,,,,,,,,,453.2469,0.9,454.1356,454.1357,457.366,3.896615347,3.2249,0,44,44,51,1,9_to_16,images/Ex16.jpg,images/Ex11.jpg,Ex16,Ex11,,,,,
,,,,,037572,001,,,,,2024-11-07_15h03.59.589,CatSimMDS,2023.2.3,Win32,57.14285714,5c351b21d4ae620001d3ee01,672bf50eac1463c2ad3c747f,672cd6a9a2c3adebcbf242fc,,,,,,,,,,,457.3666,1.4,458.7559,458.7559,461.642,2.90034889,2.8768,0,45,45,2,1,9_to_16,images/Ex9.jpg,images/Ex12.jpg,Ex9,Ex12,,,,,
,,,,,037572,001,,,,,2024-11-07_15h03.59.589,CatSimMDS,2023.2.3,Win32,57.14285714,5c351b21d4ae620001d3ee01,672bf50eac1463c2ad3c747f,672cd6a9a2c3adebcbf242fc,,,,,,,,,,,461.6431,0.8,462.4384,462.4385,464.3802,1.060186585,1.9369,0,46,46,40,1,9_to_16,images/Ex14.jpg,images/Ex15.jpg,Ex14,Ex15,,,,,
,,,,,037572,001,,,,,2024-11-07_15h03.59.589,CatSimMDS,2023.2.3,Win32,57.14285714,5c351b21d4ae620001d3ee01,672bf50eac1463c2ad3c747f,672cd6a9a2c3adebcbf242fc,,,,,,,,,,,464.3811,0.7,465.0689,465.0691,466.6743,1.060186585,1.5995,0,47,47,26,1,9_to_16,images/Ex12.jpg,images/Ex15.jpg,Ex12,Ex15,,,,,
,,,,,037572,001,,,,,2024-11-07_15h03.59.589,CatSimMDS,2023.2.3,Win32,57.14285714,5c351b21d4ae620001d3ee01,672bf50eac1463c2ad3c747f,672cd6a9a2c3adebcbf242fc,,,,,,,,,,,466.675,1.2,467.8677,467.8677,472.0799,2.912070028,4.2079,0,48,48,54,1,9_to_16,images/Ex16.jpg,images/Ex14.jpg,Ex16,Ex14,,,,,
,,,,,037572,001,,,,,2024-11-07_15h03.59.589,CatSimMDS,2023.2.3,Win32,57.14285714,5c351b21d4ae620001d3ee01,672bf50eac1463c2ad3c747f,672cd6a9a2c3adebcbf242fc,,,,,,,,,,,472.0827,1.2,473.2751,473.2752,478.4135,1.15395279,5.1318,0,49,49,21,1,9_to_16,images/Ex12.jpg,images/Ex9.jpg,Ex12,Ex9,,,,,
,,,,,037572,001,,,,,2024-11-07_15h03.59.589,CatSimMDS,2023.2.3,Win32,57.14285714,5c351b21d4ae620001d3ee01,672bf50eac1463c2ad3c747f,672cd6a9a2c3adebcbf242fc,,,,,,,,,,,478.4147,1.1,479.5051,479.5054,483.4771,1.025024137,3.9652,0,50,50,53,1,9_to_16,images/Ex16.jpg,images/Ex13.jpg,Ex16,Ex13,,,,,
,,,,,037572,001,,,,,2024-11-07_15h03.59.589,CatSimMDS,2023.2.3,Win32,57.14285714,5c351b21d4ae620001d3ee01,672bf50eac1463c2ad3c747f,672cd6a9a2c3adebcbf242fc,,,,,,,,,,,483.4785,1.2,484.6661,484.6662,486.4092,1.025024137,1.7357,0,51,51,9,1,9_to_16,images/Ex10.jpg,images/Ex12.jpg,Ex10,Ex12,,,,,
,,,,,037572,001,,,,,2024-11-07_15h03.59.589,CatSimMDS,2023.2.3,Win32,57.14285714,5c351b21d4ae620001d3ee01,672bf50eac1463c2ad3c747f,672cd6a9a2c3adebcbf242fc,,,,,,,,,,,486.4105,1.3,487.7082,487.7083,489.8603,1.025024137,2.1473,0,52,52,39,1,9_to_16,images/Ex14.jpg,images/Ex13.jpg,Ex14,Ex13,,,,,
,,,,,037572,001,,,,,2024-11-07_15h03.59.589,CatSimMDS,2023.2.3,Win32,57.14285714,5c351b21d4ae620001d3ee01,672bf50eac1463c2ad3c747f,672cd6a9a2c3adebcbf242fc,,,,,,,,,,,489.8615,1,490.8581,490.8582,492.9557,1.025024137,2.0892,0,53,53,8,1,9_to_16,images/Ex10.jpg,images/Ex11.jpg,Ex10,Ex11,,,,,
,,,,,037572,001,,,,,2024-11-07_15h03.59.589,CatSimMDS,2023.2.3,Win32,57.14285714,5c351b21d4ae620001d3ee01,672bf50eac1463c2ad3c747f,672cd6a9a2c3adebcbf242fc,,,,,,,,,,,492.9574,0.7,493.6502,493.6503,497.8695,1.013303321,4.2132,0,54,54,1,1,9_to_16,images/Ex9.jpg,images/Ex11.jpg,Ex9,Ex11,,,,,
,,,,,037572,001,,,,,2024-11-07_15h03.59.589,CatSimMDS,2023.2.3,Win32,57.14285714,5c351b21d4ae620001d3ee01,672bf50eac1463c2ad3c747f,672cd6a9a2c3adebcbf242fc,,,,,,497.8712,501.6139,space,3.731,,501.6333,1,502.6275,502.6276,506.7823,6.955738967,4.1506,0,0,0,29,1,1_to_8,images/Ex5.jpg,images/Ex2.jpg,Ex5,Ex2,,,,,
,,,,,037572,001,,,,,2024-11-07_15h03.59.589,CatSimMDS,2023.2.3,Win32,57.14285714,5c351b21d4ae620001d3ee01,672bf50eac1463c2ad3c747f,672cd6a9a2c3adebcbf242fc,,,,,,,,,,,506.7834,0.8,507.5819,507.582,510.1463,1.025024137,2.5577,0,1,1,6,1,1_to_8,images/Ex1.jpg,images/Ex8.jpg,Ex1,Ex8,,,,,
,,,,,037572,001,,,,,2024-11-07_15h03.59.589,CatSimMDS,2023.2.3,Win32,57.14285714,5c351b21d4ae620001d3ee01,672bf50eac1463c2ad3c747f,672cd6a9a2c3adebcbf242fc,,,,,,,,,,,510.1475,1.1,511.2382,511.2383,514.5464,4.974927192,3.3003,0,2,2,41,1,1_to_8,images/Ex6.jpg,images/Ex8.jpg,Ex6,Ex8,,,,,
,,,,,037572,001,,,,,2024-11-07_15h03.59.589,CatSimMDS,2023.2.3,Win32,57.14285714,5c351b21d4ae620001d3ee01,672bf50eac1463c2ad3c747f,672cd6a9a2c3adebcbf242fc,,,,,,,,,,,514.5471,1.3,515.842,515.842,518.7481,3.873173715,2.9005,0,3,3,20,1,1_to_8,images/Ex3.jpg,images/Ex8.jpg,Ex3,Ex8,,,,,
,,,,,037572,001,,,,,2024-11-07_15h03.59.589,CatSimMDS,2023.2.3,Win32,57.14285714,5c351b21d4ae620001d3ee01,672bf50eac1463c2ad3c747f,672cd6a9a2c3adebcbf242fc,,,,,,,,,,,518.7496,0.6,519.3401,519.3401,521.5915,3.990381874,2.2461,0,4,4,53,1,1_to_8,images/Ex8.jpg,images/Ex5.jpg,Ex8,Ex5,,,,,
,,,,,037572,001,,,,,2024-11-07_15h03.59.589,CatSimMDS,2023.2.3,Win32,57.14285714,5c351b21d4ae620001d3ee01,672bf50eac1463c2ad3c747f,672cd6a9a2c3adebcbf242fc,,,,,,,,,,,521.5927,0.5,522.0886,522.0886,525.226,7.998888687,3.1323,0,5,5,37,1,1_to_8,images/Ex6.jpg,images/Ex3.jpg,Ex6,Ex3,,,,,
,,,,,037572,001,,,,,2024-11-07_15h03.59.589,CatSimMDS,2023.2.3,Win32,57.14285714,5c351b21d4ae620001d3ee01,672bf50eac1463c2ad3c747f,672cd6a9a2c3adebcbf242fc,,,,,,,,,,,525.2267,0.7,525.9213,525.9215,528.3862,1.997848962,2.4586,0,6,6,23,1,1_to_8,images/Ex4.jpg,images/Ex3.jpg,Ex4,Ex3,,,,,
,,,,,037572,001,,,,,2024-11-07_15h03.59.589,CatSimMDS,2023.2.3,Win32,57.14285714,5c351b21d4ae620001d3ee01,672bf50eac1463c2ad3c747f,672cd6a9a2c3adebcbf242fc,,,,,,,,,,,528.3872,0.8,529.183,529.183,533.5406,1.060186585,4.3517,0,7,7,48,1,1_to_8,images/Ex7.jpg,images/Ex8.jpg,Ex7,Ex8,,,,,
,,,,,037572,001,,,,,2024-11-07_15h03.59.589,CatSimMDS,2023.2.3,Win32,57.14285714,5c351b21d4ae620001d3ee01,672bf50eac1463c2ad3c747f,672cd6a9a2c3adebcbf242fc,,,,,,,,,,,533.5415,1.1,534.6334,534.6335,538.9168,1.025024137,4.275,0,8,8,46,1,1_to_8,images/Ex7.jpg,images/Ex5.jpg,Ex7,Ex5,,,,,
,,,,,037572,001,,,,,2024-11-07_15h03.59.589,CatSimMDS,2023.2.3,Win32,57.14285714,5c351b21d4ae620001d3ee01,672bf50eac1463c2ad3c747f,672cd6a9a2c3adebcbf242fc,,,,,,,,,,,538.918,0.5,539.4138,539.4139,541.6932,1.001582505,2.2757,0,9,9,35,1,1_to_8,images/Ex6.jpg,images/Ex1.jpg,Ex6,Ex1,,,,,
,,,,,037572,001,,,,,2024-11-07_15h03.59.589,CatSimMDS,2023.2.3,Win32,57.14285714,5c351b21d4ae620001d3ee01,672bf50eac1463c2ad3c747f,672cd6a9a2c3adebcbf242fc,,,,,,,,,,,541.6964,0.9,542.5895,542.5896,544.2979,1.001582505,1.7028,0,10,10,19,1,1_to_8,images/Ex3.jpg,images/Ex7.jpg,Ex3,Ex7,,,,,
,,,,,037572,001,,,,,2024-11-07_15h03.59.589,CatSimMDS,2023.2.3,Win32,57.14285714,5c351b21d4ae620001d3ee01,672bf50eac1463c2ad3c747f,672cd6a9a2c3adebcbf242fc,,,,,,,,,,,544.2988,1,545.2928,545.2928,546.9234,1.001582505,1.6256,0,11,11,7,1,1_to_8,images/Ex2.jpg,images/Ex1.jpg,Ex2,Ex1,,,,,
,,,,,037572,001,,,,,2024-11-07_15h03.59.589,CatSimMDS,2023.2.3,Win32,57.14285714,5c351b21d4ae620001d3ee01,672bf50eac1463c2ad3c747f,672cd6a9a2c3adebcbf242fc,,,,,,,,,,,546.924,0.9,547.8187,547.8187,550.8578,3.01755705,3.0342,0,12,12,36,1,1_to_8,images/Ex6.jpg,images/Ex2.jpg,Ex6,Ex2,,,,,
,,,,,037572,001,,,,,2024-11-07_15h03.59.589,CatSimMDS,2023.2.3,Win32,57.14285714,5c351b21d4ae620001d3ee01,672bf50eac1463c2ad3c747f,672cd6a9a2c3adebcbf242fc,,,,,,,,,,,550.8588,0.8,551.656,551.6562,553.4034,3.01755705,1.7419,0,13,13,25,1,1_to_8,images/Ex4.jpg,images/Ex6.jpg,Ex4,Ex6,,,,,
,,,,,037572,001,,,,,2024-11-07_15h03.59.589,CatSimMDS,2023.2.3,Win32,57.14285714,5c351b21d4ae620001d3ee01,672bf50eac1463c2ad3c747f,672cd6a9a2c3adebcbf242fc,,,,,,,,,,,553.4057,0.6,553.9999,553.9999,556.5882,1.986128146,2.581,0,14,14,32,1,1_to_8,images/Ex5.jpg,images/Ex6.jpg,Ex5,Ex6,,,,,
,,,,,037572,001,,,,,2024-11-07_15h03.59.589,CatSimMDS,2023.2.3,Win32,57.14285714,5c351b21d4ae620001d3ee01,672bf50eac1463c2ad3c747f,672cd6a9a2c3adebcbf242fc,,,,,,,,,,,556.5894,1.3,557.8864,557.8865,563.7981,1.013303321,5.9067,0,15,15,49,1,1_to_8,images/Ex8.jpg,images/Ex1.jpg,Ex8,Ex1,,,,,
,,,,,037572,001,,,,,2024-11-07_15h03.59.589,CatSimMDS,2023.2.3,Win32,57.14285714,5c351b21d4ae620001d3ee01,672bf50eac1463c2ad3c747f,672cd6a9a2c3adebcbf242fc,,,,,,,,,,,563.8006,1.4,565.1929,565.193,568.0818,2.994115418,2.8841,0,16,16,47,1,1_to_8,images/Ex7.jpg,images/Ex6.jpg,Ex7,Ex6,,,,,
,,,,,037572,001,,,,,2024-11-07_15h03.59.589,CatSimMDS,2023.2.3,Win32,57.14285714,5c351b21d4ae620001d3ee01,672bf50eac1463c2ad3c747f,672cd6a9a2c3adebcbf242fc,,,,,,,,,,,568.083,1.1,569.1798,569.1798,572.66,3.005835912,3.4749,0,17,17,5,1,1_to_8,images/Ex1.jpg,images/Ex7.jpg,Ex1,Ex7,,,,,
,,,,,037572,001,,,,,2024-11-07_15h03.59.589,CatSimMDS,2023.2.3,Win32,57.14285714,5c351b21d4ae620001d3ee01,672bf50eac1463c2ad3c747f,672cd6a9a2c3adebcbf242fc,,,,,,,,,,,572.6623,0.6,573.2549,573.255,576.4609,1.15395279,3.2018,0,18,18,2,1,1_to_8,images/Ex1.jpg,images/Ex4.jpg,Ex1,Ex4,,,,,
,,,,,037572,001,,,,,2024-11-07_15h03.59.589,CatSimMDS,2023.2.3,Win32,57.14285714,5c351b21d4ae620001d3ee01,672bf50eac1463c2ad3c747f,672cd6a9a2c3adebcbf242fc,,,,,,,,,,,576.4621,1.3,577.759,577.7591,581.2598,1.986128146,3.4956,0,19,19,1,1,1_to_8,images/Ex1.jpg,images/Ex3.jpg,Ex1,Ex3,,,,,
,,,,,037572,001,,,,,2024-11-07_15h03.59.589,CatSimMDS,2023.2.3,Win32,57.14285714,5c351b21d4ae620001d3ee01,672bf50eac1463c2ad3c747f,672cd6a9a2c3adebcbf242fc,,,,,,,,,,,581.2609,0.7,581.9565,581.9566,584.2904,1.048465769,2.327,0,20,20,21,1,1_to_8,images/Ex4.jpg,images/Ex1.jpg,Ex4,Ex1,,,,,
,,,,,037572,001,,,,,2024-11-07_15h03.59.589,CatSimMDS,2023.2.3,Win32,57.14285714,5c351b21d4ae620001d3ee01,672bf50eac1463c2ad3c747f,672cd6a9a2c3adebcbf242fc,,,,,,,,,,,584.2915,0.8,585.0879,585.0879,589.1843,1.001582505,4.0913,0,21,21,0,1,1_to_8,images/Ex1.jpg,images/Ex2.jpg,Ex1,Ex2,,,,,
,,,,,037572,001,,,,,2024-11-07_15h03.59.589,CatSimMDS,2023.2.3,Win32,57.14285714,5c351b21d4ae620001d3ee01,672bf50eac1463c2ad3c747f,672cd6a9a2c3adebcbf242fc,,,,,,,,,,,589.1866,0.6,589.7807,589.7808,596.5689,2.947232154,6.7804,0,22,22,42,1,1_to_8,images/Ex7.jpg,images/Ex1.jpg,Ex7,Ex1,,,,,
,,,,,037572,001,,,,,2024-11-07_15h03.59.589,CatSimMDS,2023.2.3,Win32,57.14285714,5c351b21d4ae620001d3ee01,672bf50eac1463c2ad3c747f,672cd6a9a2c3adebcbf242fc,,,,,,,,,,,596.5698,1.1,597.6646,597.6646,603.6815,1.048465769,6.0088,0,23,23,4,1,1_to_8,images/Ex1.jpg,images/Ex6.jpg,Ex1,Ex6,,,,,
,,,,,037572,001,,,,,2024-11-07_15h03.59.589,CatSimMDS,2023.2.3,Win32,57.14285714,5c351b21d4ae620001d3ee01,672bf50eac1463c2ad3c747f,672cd6a9a2c3adebcbf242fc,,,,,,,,,,,603.6823,0.8,604.4787,604.4788,608.243,1.986128146,3.7584,0,24,24,22,1,1_to_8,images/Ex4.jpg,images/Ex2.jpg,Ex4,Ex2,,,,,
,,,,,037572,001,,,,,2024-11-07_15h03.59.589,CatSimMDS,2023.2.3,Win32,57.14285714,5c351b21d4ae620001d3ee01,672bf50eac1463c2ad3c747f,672cd6a9a2c3adebcbf242fc,,,,,,,,,,,608.2442,0.9,609.1359,609.1359,614.1379,1.013303321,4.9971,0,25,25,8,1,1_to_8,images/Ex2.jpg,images/Ex3.jpg,Ex2,Ex3,,,,,
,,,,,037572,001,,,,,2024-11-07_15h03.59.589,CatSimMDS,2023.2.3,Win32,57.14285714,5c351b21d4ae620001d3ee01,672bf50eac1463c2ad3c747f,672cd6a9a2c3adebcbf242fc,,,,,,,,,,,614.141,0.8,614.9343,614.9344,618.7917,2.021290593,3.8526,0,26,26,9,1,1_to_8,images/Ex2.jpg,images/Ex4.jpg,Ex2,Ex4,,,,,
,,,,,037572,001,,,,,2024-11-07_15h03.59.589,CatSimMDS,2023.2.3,Win32,57.14285714,5c351b21d4ae620001d3ee01,672bf50eac1463c2ad3c747f,672cd6a9a2c3adebcbf242fc,,,,,,,,,,,618.7927,1.2,619.986,619.9861,621.4058,2.021290593,1.415,0,27,27,45,1,1_to_8,images/Ex7.jpg,images/Ex4.jpg,Ex7,Ex4,,,,,
,,,,,037572,001,,,,,2024-11-07_15h03.59.589,CatSimMDS,2023.2.3,Win32,57.14285714,5c351b21d4ae620001d3ee01,672bf50eac1463c2ad3c747f,672cd6a9a2c3adebcbf242fc,,,,,,,,,,,621.4067,0.5,621.8961,621.8962,626.1585,2.970673786,4.2551,0,28,28,18,1,1_to_8,images/Ex3.jpg,images/Ex6.jpg,Ex3,Ex6,,,,,
,,,,,037572,001,,,,,2024-11-07_15h03.59.589,CatSimMDS,2023.2.3,Win32,57.14285714,5c351b21d4ae620001d3ee01,672bf50eac1463c2ad3c747f,672cd6a9a2c3adebcbf242fc,,,,,,,,,,,626.1595,0.9,627.049,627.049,629.3788,2.009569778,2.3254,0,29,29,26,1,1_to_8,images/Ex4.jpg,images/Ex7.jpg,Ex4,Ex7,,,,,
,,,,,037572,001,,,,,2024-11-07_15h03.59.589,CatSimMDS,2023.2.3,Win32,57.14285714,5c351b21d4ae620001d3ee01,672bf50eac1463c2ad3c747f,672cd6a9a2c3adebcbf242fc,,,,,,,,,,,629.3819,0.6,629.9749,629.9751,631.9614,1.025024137,1.9827,0,30,30,50,1,1_to_8,images/Ex8.jpg,images/Ex2.jpg,Ex8,Ex2,,,,,
,,,,,037572,001,,,,,2024-11-07_15h03.59.589,CatSimMDS,2023.2.3,Win32,57.14285714,5c351b21d4ae620001d3ee01,672bf50eac1463c2ad3c747f,672cd6a9a2c3adebcbf242fc,,,,,,,,,,,631.9644,0.9,632.8566,632.8566,635.7158,1.962686514,2.8538,0,31,31,31,1,1_to_8,images/Ex5.jpg,images/Ex4.jpg,Ex5,Ex4,,,,,
,,,,,037572,001,,,,,2024-11-07_15h03.59.589,CatSimMDS,2023.2.3,Win32,57.14285714,5c351b21d4ae620001d3ee01,672bf50eac1463c2ad3c747f,672cd6a9a2c3adebcbf242fc,,,,,,,,,,,635.7167,1.5,637.2111,637.2112,640.9617,1.025024137,3.7438,0,32,32,52,1,1_to_8,images/Ex8.jpg,images/Ex4.jpg,Ex8,Ex4,,,,,
,,,,,037572,001,,,,,2024-11-07_15h03.59.589,CatSimMDS,2023.2.3,Win32,57.14285714,5c351b21d4ae620001d3ee01,672bf50eac1463c2ad3c747f,672cd6a9a2c3adebcbf242fc,,,,,,,,,,,640.9633,1.3,642.2585,642.2586,643.9255,1.025024137,1.6586,0,33,33,28,1,1_to_8,images/Ex5.jpg,images/Ex1.jpg,Ex5,Ex1,,,,,
,,,,,037572,001,,,,,2024-11-07_15h03.59.589,CatSimMDS,2023.2.3,Win32,57.14285714,5c351b21d4ae620001d3ee01,672bf50eac1463c2ad3c747f,672cd6a9a2c3adebcbf242fc,,,,,,,,,,,643.9267,0.5,644.4169,644.417,646.8441,1.986128146,2.4203,0,34,34,27,1,1_to_8,images/Ex4.jpg,images/Ex8.jpg,Ex4,Ex8,,,,,
,,,,,037572,001,,,,,2024-11-07_15h03.59.589,CatSimMDS,2023.2.3,Win32,57.14285714,5c351b21d4ae620001d3ee01,672bf50eac1463c2ad3c747f,672cd6a9a2c3adebcbf242fc,,,,,,,,,,,646.8449,0.8,647.638,647.6381,651.3542,1.025024137,3.7093,0,35,35,51,1,1_to_8,images/Ex8.jpg,images/Ex3.jpg,Ex8,Ex3,,,,,
,,,,,037572,001,,,,,2024-11-07_15h03.59.589,CatSimMDS,2023.2.3,Win32,57.14285714,5c351b21d4ae620001d3ee01,672bf50eac1463c2ad3c747f,672cd6a9a2c3adebcbf242fc,,,,,,,,,,,651.3557,0.9,652.2464,652.2464,654.8824,1.97440733,2.6312,0,36,36,10,1,1_to_8,images/Ex2.jpg,images/Ex5.jpg,Ex2,Ex5,,,,,
,,,,,037572,001,,,,,2024-11-07_15h03.59.589,CatSimMDS,2023.2.3,Win32,57.14285714,5c351b21d4ae620001d3ee01,672bf50eac1463c2ad3c747f,672cd6a9a2c3adebcbf242fc,,,,,,,,,,,654.8848,1,655.8775,655.8777,658.6806,1.97440733,2.7982,0,37,37,38,1,1_to_8,images/Ex6.jpg,images/Ex4.jpg,Ex6,Ex4,,,,,
,,,,,037572,001,,,,,2024-11-07_15h03.59.589,CatSimMDS,2023.2.3,Win32,57.14285714,5c351b21d4ae620001d3ee01,672bf50eac1463c2ad3c747f,672cd6a9a2c3adebcbf242fc,,,,,,,,,,,658.6833,1,659.6759,659.6761,661.7377,1.036744953,2.0576,0,38,38,39,1,1_to_8,images/Ex6.jpg,images/Ex5.jpg,Ex6,Ex5,,,,,
,,,,,037572,001,,,,,2024-11-07_15h03.59.589,CatSimMDS,2023.2.3,Win32,57.14285714,5c351b21d4ae620001d3ee01,672bf50eac1463c2ad3c747f,672cd6a9a2c3adebcbf242fc,,,,,,,,,,,661.7392,1.2,662.9298,662.9298,665.1308,2.009569778,2.1962,0,39,39,44,1,1_to_8,images/Ex7.jpg,images/Ex3.jpg,Ex7,Ex3,,,,,
,,,,,037572,001,,,,,2024-11-07_15h03.59.589,CatSimMDS,2023.2.3,Win32,57.14285714,5c351b21d4ae620001d3ee01,672bf50eac1463c2ad3c747f,672cd6a9a2c3adebcbf242fc,,,,,,,,,,,665.1319,1.5,666.6276,666.6277,669.077,1.013303321,2.4426,0,40,40,12,1,1_to_8,images/Ex2.jpg,images/Ex7.jpg,Ex2,Ex7,,,,,
,,,,,037572,001,,,,,2024-11-07_15h03.59.589,CatSimMDS,2023.2.3,Win32,57.14285714,5c351b21d4ae620001d3ee01,672bf50eac1463c2ad3c747f,672cd6a9a2c3adebcbf242fc,,,,,,,,,,,669.0781,0.6,669.6702,669.6702,671.4339,1.013303321,1.759,0,41,41,24,1,1_to_8,images/Ex4.jpg,images/Ex5.jpg,Ex4,Ex5,,,,,
,,,,,037572,001,,,,,2024-11-07_15h03.59.589,CatSimMDS,2023.2.3,Win32,57.14285714,5c351b21d4ae620001d3ee01,672bf50eac1463c2ad3c747f,672cd6a9a2c3adebcbf242fc,,,,,,,,,,,671.4355,1.4,672.8246,672.8246,674.5095,1.013303321,1.6799,0,42,42,30,1,1_to_8,images/Ex5.jpg,images/Ex3.jpg,Ex5,Ex3,,,,,
,,,,,037572,001,,,,,2024-11-07_15h03.59.589,CatSimMDS,2023.2.3,Win32,57.14285714,5c351b21d4ae620001d3ee01,672bf50eac1463c2ad3c747f,672cd6a9a2c3adebcbf242fc,,,,,,,,,,,674.5104,0.8,675.3066,675.3067,676.7077,1.013303321,1.3936,0,43,43,15,1,1_to_8,images/Ex3.jpg,images/Ex2.jpg,Ex3,Ex2,,,,,
,,,,,037572,001,,,,,2024-11-07_15h03.59.589,CatSimMDS,2023.2.3,Win32,57.14285714,5c351b21d4ae620001d3ee01,672bf50eac1463c2ad3c747f,672cd6a9a2c3adebcbf242fc,,,,,,,,,,,676.7087,1.2,677.8991,677.8991,679.6052,1.013303321,1.7001,0,44,44,17,1,1_to_8,images/Ex3.jpg,images/Ex5.jpg,Ex3,Ex5,,,,,
,,,,,037572,001,,,,,2024-11-07_15h03.59.589,CatSimMDS,2023.2.3,Win32,57.14285714,5c351b21d4ae620001d3ee01,672bf50eac1463c2ad3c747f,672cd6a9a2c3adebcbf242fc,,,,,,,,,,,679.6073,1.3,680.9048,680.9049,687.0856,3.052719175,6.1745,0,45,45,11,1,1_to_8,images/Ex2.jpg,images/Ex6.jpg,Ex2,Ex6,,,,,
,,,,,037572,001,,,,,2024-11-07_15h03.59.589,CatSimMDS,2023.2.3,Win32,57.14285714,5c351b21d4ae620001d3ee01,672bf50eac1463c2ad3c747f,672cd6a9a2c3adebcbf242fc,,,,,,,,,,,687.0867,0.7,687.7844,687.7845,690.1207,1.036744953,2.3323,0,46,46,54,1,1_to_8,images/Ex8.jpg,images/Ex6.jpg,Ex8,Ex6,,,,,
,,,,,037572,001,,,,,2024-11-07_15h03.59.589,CatSimMDS,2023.2.3,Win32,57.14285714,5c351b21d4ae620001d3ee01,672bf50eac1463c2ad3c747f,672cd6a9a2c3adebcbf242fc,,,,,,,,,,,690.1215,1.2,691.3164,691.3166,693.1457,1.036744953,1.8249,0,47,47,16,1,1_to_8,images/Ex3.jpg,images/Ex4.jpg,Ex3,Ex4,,,,,
,,,,,037572,001,,,,,2024-11-07_15h03.59.589,CatSimMDS,2023.2.3,Win32,57.14285714,5c351b21d4ae620001d3ee01,672bf50eac1463c2ad3c747f,672cd6a9a2c3adebcbf242fc,,,,,,,,,,,693.1479,1.1,694.241,694.2411,695.6458,1.036744953,1.3988,0,48,48,3,1,1_to_8,images/Ex1.jpg,images/Ex5.jpg,Ex1,Ex5,,,,,
,,,,,037572,001,,,,,2024-11-07_15h03.59.589,CatSimMDS,2023.2.3,Win32,57.14285714,5c351b21d4ae620001d3ee01,672bf50eac1463c2ad3c747f,672cd6a9a2c3adebcbf242fc,,,,,,,,,,,695.6471,0.6,696.2393,696.2393,698.1313,1.036744953,1.8872,0,49,49,43,1,1_to_8,images/Ex7.jpg,images/Ex2.jpg,Ex7,Ex2,,,,,
,,,,,037572,001,,,,,2024-11-07_15h03.59.589,CatSimMDS,2023.2.3,Win32,57.14285714,5c351b21d4ae620001d3ee01,672bf50eac1463c2ad3c747f,672cd6a9a2c3adebcbf242fc,,,,,,,,,,,698.1328,0.7,698.8213,698.8214,700.8109,1.036744953,1.9856,0,50,50,33,1,1_to_8,images/Ex5.jpg,images/Ex7.jpg,Ex5,Ex7,,,,,
,,,,,037572,001,,,,,2024-11-07_15h03.59.589,CatSimMDS,2023.2.3,Win32,57.14285714,5c351b21d4ae620001d3ee01,672bf50eac1463c2ad3c747f,672cd6a9a2c3adebcbf242fc,,,,,,,,,,,700.8119,0.5,701.3092,701.3093,703.3796,1.036744953,2.0614,0,51,51,14,1,1_to_8,images/Ex3.jpg,images/Ex1.jpg,Ex3,Ex1,,,,,
,,,,,037572,001,,,,,2024-11-07_15h03.59.589,CatSimMDS,2023.2.3,Win32,57.14285714,5c351b21d4ae620001d3ee01,672bf50eac1463c2ad3c747f,672cd6a9a2c3adebcbf242fc,,,,,,,,,,,703.3805,1.4,704.7751,704.7752,707.4757,1.036744953,2.6966,0,52,52,40,1,1_to_8,images/Ex6.jpg,images/Ex7.jpg,Ex6,Ex7,,,,,
,,,,,037572,001,,,,,2024-11-07_15h03.59.589,CatSimMDS,2023.2.3,Win32,57.14285714,5c351b21d4ae620001d3ee01,672bf50eac1463c2ad3c747f,672cd6a9a2c3adebcbf242fc,,,,,,,,,,,707.478,1.1,708.572,708.5721,711.7776,1.025024137,3.201,0,53,53,34,1,1_to_8,images/Ex5.jpg,images/Ex8.jpg,Ex5,Ex8,,,,,
,,,,,037572,001,,,,,2024-11-07_15h03.59.589,CatSimMDS,2023.2.3,Win32,57.14285714,5c351b21d4ae620001d3ee01,672bf50eac1463c2ad3c747f,672cd6a9a2c3adebcbf242fc,,,,,,,,,,,711.7786,1.3,713.0706,713.0707,714.4702,1.025024137,1.3945,0,54,54,13,1,1_to_8,images/Ex2.jpg,images/Ex8.jpg,Ex2,Ex8,,,,,
,,,,,037572,001,,,,,2024-11-07_15h03.59.589,CatSimMDS,2023.2.3,Win32,57.14285714,5c351b21d4ae620001d3ee01,672bf50eac1463c2ad3c747f,672cd6a9a2c3adebcbf242fc,,,,,,,,,,,,,,,,,,,,,,,,,,,,714.4712,874.3467,space,159.8013,