infCons.started,infCons.stopped,resp_consent.keys,resp_consent.rt,resp_consent.duration,participant,session,Age?,Gender?,Nationality?,Highest Educational Degree?,date,expName,psychopyVersion,OS,frameRate,PROLIFIC_PID,STUDY_ID,SESSION_ID,instructions.started,instructions.stopped,resp_instructions.keys,resp_instructions.rt,resp_instructions.duration,nextTask.started,nextTask.stopped,ready_task.keys,ready_task.rt,ready_task.duration,fixation.started,ITI,fixation.stopped,stim.started,stim.stopped,slider.response,slider.rt,trials.thisRepN,trials.thisTrialN,trials.thisN,trials.thisIndex,trials.ran,task,exemplarLeft,exemplarRight,left,right,end.started,end.stopped,resp_end.keys,resp_end.rt,resp_end.duration
0.0002,9.6802,space,9.6561,,073980,001,54,Femail,British,Secondary School,2024-11-07_15h03.49.991,CatSimMDS,2023.2.3,Win32,59.88023952,66577bd5fa02a29c30407e81,672bf50eac1463c2ad3c747f,672cd6ae00e78989d30fd4bb,,,,,,,,,,,,,,,,,,,,,,,,,,,,,,,,
,,,,,073980,001,54,Femail,British,Secondary School,2024-11-07_15h03.49.991,CatSimMDS,2023.2.3,Win32,59.88023952,66577bd5fa02a29c30407e81,672bf50eac1463c2ad3c747f,672cd6ae00e78989d30fd4bb,9.6805,23.231,space,13.5256,,,,,,,,,,,,,,,,,,,,,,,,,,,,
,,,,,073980,001,54,Femail,British,Secondary School,2024-11-07_15h03.49.991,CatSimMDS,2023.2.3,Win32,59.88023952,66577bd5fa02a29c30407e81,672bf50eac1463c2ad3c747f,672cd6ae00e78989d30fd4bb,,,,,,23.2366,25.9513,space,2.7009,,25.9618,1.3,27.2669,27.267,33.5451,2.975,6.2682,0,0,0,26,1,1_to_8,images/Ex4.jpg,images/Ex7.jpg,Ex4,Ex7,,,,,
,,,,,073980,001,54,Femail,British,Secondary School,2024-11-07_15h03.49.991,CatSimMDS,2023.2.3,Win32,59.88023952,66577bd5fa02a29c30407e81,672bf50eac1463c2ad3c747f,672cd6ae00e78989d30fd4bb,,,,,,,,,,,33.5458,1,34.5451,34.5451,40.2188,2.025,5.6717,0,1,1,20,1,1_to_8,images/Ex3.jpg,images/Ex8.jpg,Ex3,Ex8,,,,,
,,,,,073980,001,54,Femail,British,Secondary School,2024-11-07_15h03.49.991,CatSimMDS,2023.2.3,Win32,59.88023952,66577bd5fa02a29c30407e81,672bf50eac1463c2ad3c747f,672cd6ae00e78989d30fd4bb,,,,,,,,,,,40.2192,1.1,41.3123,41.3124,45.2371,2.983333333,3.9222,0,2,2,24,1,1_to_8,images/Ex4.jpg,images/Ex5.jpg,Ex4,Ex5,,,,,
,,,,,073980,001,54,Femail,British,Secondary School,2024-11-07_15h03.49.991,CatSimMDS,2023.2.3,Win32,59.88023952,66577bd5fa02a29c30407e81,672bf50eac1463c2ad3c747f,672cd6ae00e78989d30fd4bb,,,,,,,,,,,45.2374,1.1,46.3353,46.3354,50.0124,3.083333333,3.6731,0,3,3,46,1,1_to_8,images/Ex7.jpg,images/Ex5.jpg,Ex7,Ex5,,,,,
,,,,,073980,001,54,Femail,British,Secondary School,2024-11-07_15h03.49.991,CatSimMDS,2023.2.3,Win32,59.88023952,66577bd5fa02a29c30407e81,672bf50eac1463c2ad3c747f,672cd6ae00e78989d30fd4bb,,,,,,,,,,,50.0137,1,51.0183,51.0184,53.9531,1.016666667,2.9333,0,4,4,22,1,1_to_8,images/Ex4.jpg,images/Ex2.jpg,Ex4,Ex2,,,,,
,,,,,073980,001,54,Femail,British,Secondary School,2024-11-07_15h03.49.991,CatSimMDS,2023.2.3,Win32,59.88023952,66577bd5fa02a29c30407e81,672bf50eac1463c2ad3c747f,672cd6ae00e78989d30fd4bb,,,,,,,,,,,53.9534,0.9,54.8513,54.8513,59.8199,2.975,4.9671,0,5,5,15,1,1_to_8,images/Ex3.jpg,images/Ex2.jpg,Ex3,Ex2,,,,,
,,,,,073980,001,54,Femail,British,Secondary School,2024-11-07_15h03.49.991,CatSimMDS,2023.2.3,Win32,59.88023952,66577bd5fa02a29c30407e81,672bf50eac1463c2ad3c747f,672cd6ae00e78989d30fd4bb,,,,,,,,,,,59.8202,0.9,60.713,60.7134,64.0788,1.05,3.3606,0,6,6,49,1,1_to_8,images/Ex8.jpg,images/Ex1.jpg,Ex8,Ex1,,,,,
,,,,,073980,001,54,Femail,British,Secondary School,2024-11-07_15h03.49.991,CatSimMDS,2023.2.3,Win32,59.88023952,66577bd5fa02a29c30407e81,672bf50eac1463c2ad3c747f,672cd6ae00e78989d30fd4bb,,,,,,,,,,,64.0802,0.8,64.8695,64.8695,71.7189,3.008333333,6.8472,0,7,7,1,1,1_to_8,images/Ex1.jpg,images/Ex3.jpg,Ex1,Ex3,,,,,
,,,,,073980,001,54,Femail,British,Secondary School,2024-11-07_15h03.49.991,CatSimMDS,2023.2.3,Win32,59.88023952,66577bd5fa02a29c30407e81,672bf50eac1463c2ad3c747f,672cd6ae00e78989d30fd4bb,,,,,,,,,,,71.7193,1,72.7167,72.7168,75.0363,1.033333333,2.3184,0,8,8,5,1,1_to_8,images/Ex1.jpg,images/Ex7.jpg,Ex1,Ex7,,,,,
,,,,,073980,001,54,Femail,British,Secondary School,2024-11-07_15h03.49.991,CatSimMDS,2023.2.3,Win32,59.88023952,66577bd5fa02a29c30407e81,672bf50eac1463c2ad3c747f,672cd6ae00e78989d30fd4bb,,,,,,,,,,,75.0366,0.8,75.8345,75.8346,78.5781,2.008333333,2.7401,0,9,9,21,1,1_to_8,images/Ex4.jpg,images/Ex1.jpg,Ex4,Ex1,,,,,
,,,,,073980,001,54,Femail,British,Secondary School,2024-11-07_15h03.49.991,CatSimMDS,2023.2.3,Win32,59.88023952,66577bd5fa02a29c30407e81,672bf50eac1463c2ad3c747f,672cd6ae00e78989d30fd4bb,,,,,,,,,,,78.5785,0.7,79.2788,79.2789,83.2615,2.008333333,3.9735,0,10,10,4,1,1_to_8,images/Ex1.jpg,images/Ex6.jpg,Ex1,Ex6,,,,,
,,,,,073980,001,54,Femail,British,Secondary School,2024-11-07_15h03.49.991,CatSimMDS,2023.2.3,Win32,59.88023952,66577bd5fa02a29c30407e81,672bf50eac1463c2ad3c747f,672cd6ae00e78989d30fd4bb,,,,,,,,,,,83.2618,1.1,84.3621,84.3622,90.9616,3.966666667,6.5903,0,11,11,51,1,1_to_8,images/Ex8.jpg,images/Ex3.jpg,Ex8,Ex3,,,,,
,,,,,073980,001,54,Femail,British,Secondary School,2024-11-07_15h03.49.991,CatSimMDS,2023.2.3,Win32,59.88023952,66577bd5fa02a29c30407e81,672bf50eac1463c2ad3c747f,672cd6ae00e78989d30fd4bb,,,,,,,,,,,90.962,1.5,92.4614,92.4614,95.5114,2.916666667,3.042,0,12,12,17,1,1_to_8,images/Ex3.jpg,images/Ex5.jpg,Ex3,Ex5,,,,,
,,,,,073980,001,54,Femail,British,Secondary School,2024-11-07_15h03.49.991,CatSimMDS,2023.2.3,Win32,59.88023952,66577bd5fa02a29c30407e81,672bf50eac1463c2ad3c747f,672cd6ae00e78989d30fd4bb,,,,,,,,,,,95.5116,1.5,97.0123,97.0124,98.9284,1.175,1.9058,0,13,13,39,1,1_to_8,images/Ex6.jpg,images/Ex5.jpg,Ex6,Ex5,,,,,
,,,,,073980,001,54,Femail,British,Secondary School,2024-11-07_15h03.49.991,CatSimMDS,2023.2.3,Win32,59.88023952,66577bd5fa02a29c30407e81,672bf50eac1463c2ad3c747f,672cd6ae00e78989d30fd4bb,,,,,,,,,,,98.9288,1,99.9292,99.9293,105.7449,5.083333333,5.8048,0,14,14,40,1,1_to_8,images/Ex6.jpg,images/Ex7.jpg,Ex6,Ex7,,,,,
,,,,,073980,001,54,Femail,British,Secondary School,2024-11-07_15h03.49.991,CatSimMDS,2023.2.3,Win32,59.88023952,66577bd5fa02a29c30407e81,672bf50eac1463c2ad3c747f,672cd6ae00e78989d30fd4bb,,,,,,,,,,,105.7453,0.5,106.2448,106.2448,108.0944,2.95,1.848,0,15,15,10,1,1_to_8,images/Ex2.jpg,images/Ex5.jpg,Ex2,Ex5,,,,,
,,,,,073980,001,54,Femail,British,Secondary School,2024-11-07_15h03.49.991,CatSimMDS,2023.2.3,Win32,59.88023952,66577bd5fa02a29c30407e81,672bf50eac1463c2ad3c747f,672cd6ae00e78989d30fd4bb,,,,,,,,,,,108.0948,1.2,109.2949,109.295,114.5114,3.108333333,5.214,0,16,16,6,1,1_to_8,images/Ex1.jpg,images/Ex8.jpg,Ex1,Ex8,,,,,
,,,,,073980,001,54,Femail,British,Secondary School,2024-11-07_15h03.49.991,CatSimMDS,2023.2.3,Win32,59.88023952,66577bd5fa02a29c30407e81,672bf50eac1463c2ad3c747f,672cd6ae00e78989d30fd4bb,,,,,,,,,,,114.5117,1.4,115.9114,115.9114,118.0613,3.966666667,2.1408,0,17,17,43,1,1_to_8,images/Ex7.jpg,images/Ex2.jpg,Ex7,Ex2,,,,,
,,,,,073980,001,54,Femail,British,Secondary School,2024-11-07_15h03.49.991,CatSimMDS,2023.2.3,Win32,59.88023952,66577bd5fa02a29c30407e81,672bf50eac1463c2ad3c747f,672cd6ae00e78989d30fd4bb,,,,,,,,,,,118.0616,0.9,118.9623,118.9623,121.5855,1.991666667,2.6211,0,18,18,41,1,1_to_8,images/Ex6.jpg,images/Ex8.jpg,Ex6,Ex8,,,,,
,,,,,073980,001,54,Femail,British,Secondary School,2024-11-07_15h03.49.991,CatSimMDS,2023.2.3,Win32,59.88023952,66577bd5fa02a29c30407e81,672bf50eac1463c2ad3c747f,672cd6ae00e78989d30fd4bb,,,,,,,,,,,121.5858,0.6,122.1846,122.1846,131.3029,1.141666667,9.1172,0,19,19,2,1,1_to_8,images/Ex1.jpg,images/Ex4.jpg,Ex1,Ex4,,,,,
,,,,,073980,001,54,Femail,British,Secondary School,2024-11-07_15h03.49.991,CatSimMDS,2023.2.3,Win32,59.88023952,66577bd5fa02a29c30407e81,672bf50eac1463c2ad3c747f,672cd6ae00e78989d30fd4bb,,,,,,,,,,,131.3032,1,132.2966,132.2966,137.3693,1.008333333,5.0702,0,20,20,13,1,1_to_8,images/Ex2.jpg,images/Ex8.jpg,Ex2,Ex8,,,,,
,,,,,073980,001,54,Femail,British,Secondary School,2024-11-07_15h03.49.991,CatSimMDS,2023.2.3,Win32,59.88023952,66577bd5fa02a29c30407e81,672bf50eac1463c2ad3c747f,672cd6ae00e78989d30fd4bb,,,,,,,,,,,137.3696,0.6,137.9628,137.9629,145.803,2.975,7.8381,0,21,21,14,1,1_to_8,images/Ex3.jpg,images/Ex1.jpg,Ex3,Ex1,,,,,
,,,,,073980,001,54,Femail,British,Secondary School,2024-11-07_15h03.49.991,CatSimMDS,2023.2.3,Win32,59.88023952,66577bd5fa02a29c30407e81,672bf50eac1463c2ad3c747f,672cd6ae00e78989d30fd4bb,,,,,,,,,,,145.8033,1.1,146.901,146.901,150.868,1.116666667,3.9658,0,22,22,16,1,1_to_8,images/Ex3.jpg,images/Ex4.jpg,Ex3,Ex4,,,,,
,,,,,073980,001,54,Femail,British,Secondary School,2024-11-07_15h03.49.991,CatSimMDS,2023.2.3,Win32,59.88023952,66577bd5fa02a29c30407e81,672bf50eac1463c2ad3c747f,672cd6ae00e78989d30fd4bb,,,,,,,,,,,150.8683,0.6,151.4686,151.4686,155.7695,2.033333333,4.299,0,23,23,45,1,1_to_8,images/Ex7.jpg,images/Ex4.jpg,Ex7,Ex4,,,,,
,,,,,073980,001,54,Femail,British,Secondary School,2024-11-07_15h03.49.991,CatSimMDS,2023.2.3,Win32,59.88023952,66577bd5fa02a29c30407e81,672bf50eac1463c2ad3c747f,672cd6ae00e78989d30fd4bb,,,,,,,,,,,155.7698,0.9,156.6636,156.6636,163.7626,5,7.0942,0,24,24,18,1,1_to_8,images/Ex3.jpg,images/Ex6.jpg,Ex3,Ex6,,,,,
,,,,,073980,001,54,Femail,British,Secondary School,2024-11-07_15h03.49.991,CatSimMDS,2023.2.3,Win32,59.88023952,66577bd5fa02a29c30407e81,672bf50eac1463c2ad3c747f,672cd6ae00e78989d30fd4bb,,,,,,,,,,,163.7636,1.3,165.0519,165.0519,167.2454,1.058333333,2.19,0,25,25,3,1,1_to_8,images/Ex1.jpg,images/Ex5.jpg,Ex1,Ex5,,,,,
,,,,,073980,001,54,Femail,British,Secondary School,2024-11-07_15h03.49.991,CatSimMDS,2023.2.3,Win32,59.88023952,66577bd5fa02a29c30407e81,672bf50eac1463c2ad3c747f,672cd6ae00e78989d30fd4bb,,,,,,,,,,,167.2463,1.5,168.7346,168.7346,173.2617,1.108333333,4.5243,0,26,26,30,1,1_to_8,images/Ex5.jpg,images/Ex3.jpg,Ex5,Ex3,,,,,
,,,,,073980,001,54,Femail,British,Secondary School,2024-11-07_15h03.49.991,CatSimMDS,2023.2.3,Win32,59.88023952,66577bd5fa02a29c30407e81,672bf50eac1463c2ad3c747f,672cd6ae00e78989d30fd4bb,,,,,,,,,,,173.2629,0.6,173.8681,173.8682,180.6686,2.933333333,6.7992,0,27,27,27,1,1_to_8,images/Ex4.jpg,images/Ex8.jpg,Ex4,Ex8,,,,,
,,,,,073980,001,54,Femail,British,Secondary School,2024-11-07_15h03.49.991,CatSimMDS,2023.2.3,Win32,59.88023952,66577bd5fa02a29c30407e81,672bf50eac1463c2ad3c747f,672cd6ae00e78989d30fd4bb,,,,,,,,,,,180.6689,1.4,182.0693,182.0694,185.0616,1.025,2.985,0,28,28,44,1,1_to_8,images/Ex7.jpg,images/Ex3.jpg,Ex7,Ex3,,,,,
,,,,,073980,001,54,Femail,British,Secondary School,2024-11-07_15h03.49.991,CatSimMDS,2023.2.3,Win32,59.88023952,66577bd5fa02a29c30407e81,672bf50eac1463c2ad3c747f,672cd6ae00e78989d30fd4bb,,,,,,,,,,,185.0619,1.1,186.1614,186.1615,191.7115,1.983333333,5.5424,0,29,29,53,1,1_to_8,images/Ex8.jpg,images/Ex5.jpg,Ex8,Ex5,,,,,
,,,,,073980,001,54,Femail,British,Secondary School,2024-11-07_15h03.49.991,CatSimMDS,2023.2.3,Win32,59.88023952,66577bd5fa02a29c30407e81,672bf50eac1463c2ad3c747f,672cd6ae00e78989d30fd4bb,,,,,,,,,,,191.7119,1.2,192.9115,192.9116,200.9449,5.991666667,8.0259,0,30,30,37,1,1_to_8,images/Ex6.jpg,images/Ex3.jpg,Ex6,Ex3,,,,,
,,,,,073980,001,54,Femail,British,Secondary School,2024-11-07_15h03.49.991,CatSimMDS,2023.2.3,Win32,59.88023952,66577bd5fa02a29c30407e81,672bf50eac1463c2ad3c747f,672cd6ae00e78989d30fd4bb,,,,,,,,,,,200.9452,1.1,202.0447,202.0447,205.2617,1.958333333,3.2087,0,31,31,42,1,1_to_8,images/Ex7.jpg,images/Ex1.jpg,Ex7,Ex1,,,,,
,,,,,073980,001,54,Femail,British,Secondary School,2024-11-07_15h03.49.991,CatSimMDS,2023.2.3,Win32,59.88023952,66577bd5fa02a29c30407e81,672bf50eac1463c2ad3c747f,672cd6ae00e78989d30fd4bb,,,,,,,,,,,205.2621,1.3,206.5621,206.5622,210.5449,4.008333333,3.9747,0,32,32,54,1,1_to_8,images/Ex8.jpg,images/Ex6.jpg,Ex8,Ex6,,,,,
,,,,,073980,001,54,Femail,British,Secondary School,2024-11-07_15h03.49.991,CatSimMDS,2023.2.3,Win32,59.88023952,66577bd5fa02a29c30407e81,672bf50eac1463c2ad3c747f,672cd6ae00e78989d30fd4bb,,,,,,,,,,,210.5453,1.3,211.8451,211.8452,215.078,1.083333333,3.2291,0,33,33,32,1,1_to_8,images/Ex5.jpg,images/Ex6.jpg,Ex5,Ex6,,,,,
,,,,,073980,001,54,Femail,British,Secondary School,2024-11-07_15h03.49.991,CatSimMDS,2023.2.3,Win32,59.88023952,66577bd5fa02a29c30407e81,672bf50eac1463c2ad3c747f,672cd6ae00e78989d30fd4bb,,,,,,,,,,,215.0781,0.9,215.9789,215.979,219.5279,1.025,3.5407,0,34,34,23,1,1_to_8,images/Ex4.jpg,images/Ex3.jpg,Ex4,Ex3,,,,,
,,,,,073980,001,54,Femail,British,Secondary School,2024-11-07_15h03.49.991,CatSimMDS,2023.2.3,Win32,59.88023952,66577bd5fa02a29c30407e81,672bf50eac1463c2ad3c747f,672cd6ae00e78989d30fd4bb,,,,,,,,,,,219.5283,1.5,221.0287,221.0287,227.9869,2.033333333,6.9568,0,35,35,28,1,1_to_8,images/Ex5.jpg,images/Ex1.jpg,Ex5,Ex1,,,,,
,,,,,073980,001,54,Femail,British,Secondary School,2024-11-07_15h03.49.991,CatSimMDS,2023.2.3,Win32,59.88023952,66577bd5fa02a29c30407e81,672bf50eac1463c2ad3c747f,672cd6ae00e78989d30fd4bb,,,,,,,,,,,227.9872,1.4,229.379,229.379,234.8793,2.125,5.4951,0,36,36,38,1,1_to_8,images/Ex6.jpg,images/Ex4.jpg,Ex6,Ex4,,,,,
,,,,,073980,001,54,Femail,British,Secondary School,2024-11-07_15h03.49.991,CatSimMDS,2023.2.3,Win32,59.88023952,66577bd5fa02a29c30407e81,672bf50eac1463c2ad3c747f,672cd6ae00e78989d30fd4bb,,,,,,,,,,,234.8805,0.9,235.7854,235.7856,242.2358,4.983333333,6.4485,0,37,37,11,1,1_to_8,images/Ex2.jpg,images/Ex6.jpg,Ex2,Ex6,,,,,
,,,,,073980,001,54,Femail,British,Secondary School,2024-11-07_15h03.49.991,CatSimMDS,2023.2.3,Win32,59.88023952,66577bd5fa02a29c30407e81,672bf50eac1463c2ad3c747f,672cd6ae00e78989d30fd4bb,,,,,,,,,,,242.2362,0.8,243.0298,243.0299,245.97,1.05,2.9376,0,38,38,19,1,1_to_8,images/Ex3.jpg,images/Ex7.jpg,Ex3,Ex7,,,,,
,,,,,073980,001,54,Femail,British,Secondary School,2024-11-07_15h03.49.991,CatSimMDS,2023.2.3,Win32,59.88023952,66577bd5fa02a29c30407e81,672bf50eac1463c2ad3c747f,672cd6ae00e78989d30fd4bb,,,,,,,,,,,245.9702,0.8,246.7685,246.7686,250.2618,5.933333333,3.4876,0,39,39,36,1,1_to_8,images/Ex6.jpg,images/Ex2.jpg,Ex6,Ex2,,,,,
,,,,,073980,001,54,Femail,British,Secondary School,2024-11-07_15h03.49.991,CatSimMDS,2023.2.3,Win32,59.88023952,66577bd5fa02a29c30407e81,672bf50eac1463c2ad3c747f,672cd6ae00e78989d30fd4bb,,,,,,,,,,,250.2628,1.4,251.651,251.6511,256.7782,2.075,5.1197,0,40,40,33,1,1_to_8,images/Ex5.jpg,images/Ex7.jpg,Ex5,Ex7,,,,,
,,,,,073980,001,54,Femail,British,Secondary School,2024-11-07_15h03.49.991,CatSimMDS,2023.2.3,Win32,59.88023952,66577bd5fa02a29c30407e81,672bf50eac1463c2ad3c747f,672cd6ae00e78989d30fd4bb,,,,,,,,,,,256.7786,0.8,257.5791,257.5792,261.328,1.1,3.7397,0,41,41,25,1,1_to_8,images/Ex4.jpg,images/Ex6.jpg,Ex4,Ex6,,,,,
,,,,,073980,001,54,Femail,British,Secondary School,2024-11-07_15h03.49.991,CatSimMDS,2023.2.3,Win32,59.88023952,66577bd5fa02a29c30407e81,672bf50eac1463c2ad3c747f,672cd6ae00e78989d30fd4bb,,,,,,,,,,,261.3282,1.2,262.5282,262.5282,266.1784,1.275,3.6426,0,42,42,48,1,1_to_8,images/Ex7.jpg,images/Ex8.jpg,Ex7,Ex8,,,,,
,,,,,073980,001,54,Femail,British,Secondary School,2024-11-07_15h03.49.991,CatSimMDS,2023.2.3,Win32,59.88023952,66577bd5fa02a29c30407e81,672bf50eac1463c2ad3c747f,672cd6ae00e78989d30fd4bb,,,,,,,,,,,266.1788,0.9,267.0786,267.0788,271.695,3.016666667,4.6097,0,43,43,35,1,1_to_8,images/Ex6.jpg,images/Ex1.jpg,Ex6,Ex1,,,,,
,,,,,073980,001,54,Femail,British,Secondary School,2024-11-07_15h03.49.991,CatSimMDS,2023.2.3,Win32,59.88023952,66577bd5fa02a29c30407e81,672bf50eac1463c2ad3c747f,672cd6ae00e78989d30fd4bb,,,,,,,,,,,271.6954,0.9,272.5951,272.5951,275.4949,1.3,2.8886,0,44,44,52,1,1_to_8,images/Ex8.jpg,images/Ex4.jpg,Ex8,Ex4,,,,,
,,,,,073980,001,54,Femail,British,Secondary School,2024-11-07_15h03.49.991,CatSimMDS,2023.2.3,Win32,59.88023952,66577bd5fa02a29c30407e81,672bf50eac1463c2ad3c747f,672cd6ae00e78989d30fd4bb,,,,,,,,,,,275.4951,1.1,276.5948,276.5948,279.5616,4.016666667,2.9582,0,45,45,47,1,1_to_8,images/Ex7.jpg,images/Ex6.jpg,Ex7,Ex6,,,,,
,,,,,073980,001,54,Femail,British,Secondary School,2024-11-07_15h03.49.991,CatSimMDS,2023.2.3,Win32,59.88023952,66577bd5fa02a29c30407e81,672bf50eac1463c2ad3c747f,672cd6ae00e78989d30fd4bb,,,,,,,,,,,279.5619,0.7,280.2613,280.2613,283.5282,1.35,3.262,0,46,46,50,1,1_to_8,images/Ex8.jpg,images/Ex2.jpg,Ex8,Ex2,,,,,
,,,,,073980,001,54,Femail,British,Secondary School,2024-11-07_15h03.49.991,CatSimMDS,2023.2.3,Win32,59.88023952,66577bd5fa02a29c30407e81,672bf50eac1463c2ad3c747f,672cd6ae00e78989d30fd4bb,,,,,,,,,,,283.5286,1.4,284.9286,284.9287,291.6784,4.041666667,6.7419,0,47,47,31,1,1_to_8,images/Ex5.jpg,images/Ex4.jpg,Ex5,Ex4,,,,,
,,,,,073980,001,54,Femail,British,Secondary School,2024-11-07_15h03.49.991,CatSimMDS,2023.2.3,Win32,59.88023952,66577bd5fa02a29c30407e81,672bf50eac1463c2ad3c747f,672cd6ae00e78989d30fd4bb,,,,,,,,,,,291.6787,1.1,292.7792,292.7793,296.3449,1.041666667,3.5556,0,48,48,34,1,1_to_8,images/Ex5.jpg,images/Ex8.jpg,Ex5,Ex8,,,,,
,,,,,073980,001,54,Femail,British,Secondary School,2024-11-07_15h03.49.991,CatSimMDS,2023.2.3,Win32,59.88023952,66577bd5fa02a29c30407e81,672bf50eac1463c2ad3c747f,672cd6ae00e78989d30fd4bb,,,,,,,,,,,296.3453,1.4,297.7455,297.7455,302.445,1.033333333,4.6947,0,49,49,8,1,1_to_8,images/Ex2.jpg,images/Ex3.jpg,Ex2,Ex3,,,,,
,,,,,073980,001,54,Femail,British,Secondary School,2024-11-07_15h03.49.991,CatSimMDS,2023.2.3,Win32,59.88023952,66577bd5fa02a29c30407e81,672bf50eac1463c2ad3c747f,672cd6ae00e78989d30fd4bb,,,,,,,,,,,302.4453,1.3,303.7455,303.7455,308.945,1.416666667,5.1922,0,50,50,9,1,1_to_8,images/Ex2.jpg,images/Ex4.jpg,Ex2,Ex4,,,,,
,,,,,073980,001,54,Femail,British,Secondary School,2024-11-07_15h03.49.991,CatSimMDS,2023.2.3,Win32,59.88023952,66577bd5fa02a29c30407e81,672bf50eac1463c2ad3c747f,672cd6ae00e78989d30fd4bb,,,,,,,,,,,308.9453,1,309.9444,309.9445,311.9285,1.4,1.9807,0,51,51,0,1,1_to_8,images/Ex1.jpg,images/Ex2.jpg,Ex1,Ex2,,,,,
,,,,,073980,001,54,Femail,British,Secondary School,2024-11-07_15h03.49.991,CatSimMDS,2023.2.3,Win32,59.88023952,66577bd5fa02a29c30407e81,672bf50eac1463c2ad3c747f,672cd6ae00e78989d30fd4bb,,,,,,,,,,,311.9288,1.3,313.2278,313.2278,317.2947,3.991666667,4.0588,0,52,52,12,1,1_to_8,images/Ex2.jpg,images/Ex7.jpg,Ex2,Ex7,,,,,
,,,,,073980,001,54,Femail,British,Secondary School,2024-11-07_15h03.49.991,CatSimMDS,2023.2.3,Win32,59.88023952,66577bd5fa02a29c30407e81,672bf50eac1463c2ad3c747f,672cd6ae00e78989d30fd4bb,,,,,,,,,,,317.2949,0.9,318.1955,318.1956,320.5616,1.325,2.3566,0,53,53,29,1,1_to_8,images/Ex5.jpg,images/Ex2.jpg,Ex5,Ex2,,,,,
,,,,,073980,001,54,Femail,British,Secondary School,2024-11-07_15h03.49.991,CatSimMDS,2023.2.3,Win32,59.88023952,66577bd5fa02a29c30407e81,672bf50eac1463c2ad3c747f,672cd6ae00e78989d30fd4bb,,,,,,,,,,,320.5619,0.9,321.4623,321.4624,324.9785,1.033333333,3.5068,0,54,54,7,1,1_to_8,images/Ex2.jpg,images/Ex1.jpg,Ex2,Ex1,,,,,
,,,,,073980,001,54,Femail,British,Secondary School,2024-11-07_15h03.49.991,CatSimMDS,2023.2.3,Win32,59.88023952,66577bd5fa02a29c30407e81,672bf50eac1463c2ad3c747f,672cd6ae00e78989d30fd4bb,,,,,,324.9792,328.0783,space,3.083,,328.084,1.4,329.4781,329.4781,335.9784,3.983333333,6.4971,0,0,0,1,1,9_to_16,images/Ex9.jpg,images/Ex11.jpg,Ex9,Ex11,,,,,
,,,,,073980,001,54,Femail,British,Secondary School,2024-11-07_15h03.49.991,CatSimMDS,2023.2.3,Win32,59.88023952,66577bd5fa02a29c30407e81,672bf50eac1463c2ad3c747f,672cd6ae00e78989d30fd4bb,,,,,,,,,,,335.9787,1.4,337.3786,337.3787,341.2203,1.058333333,3.8399,0,1,1,31,1,9_to_16,images/Ex13.jpg,images/Ex12.jpg,Ex13,Ex12,,,,,
,,,,,073980,001,54,Femail,British,Secondary School,2024-11-07_15h03.49.991,CatSimMDS,2023.2.3,Win32,59.88023952,66577bd5fa02a29c30407e81,672bf50eac1463c2ad3c747f,672cd6ae00e78989d30fd4bb,,,,,,,,,,,341.2206,1.2,342.4186,342.4186,345.3684,1.866666667,2.9484,0,2,2,2,1,9_to_16,images/Ex9.jpg,images/Ex12.jpg,Ex9,Ex12,,,,,
,,,,,073980,001,54,Femail,British,Secondary School,2024-11-07_15h03.49.991,CatSimMDS,2023.2.3,Win32,59.88023952,66577bd5fa02a29c30407e81,672bf50eac1463c2ad3c747f,672cd6ae00e78989d30fd4bb,,,,,,,,,,,345.3686,1.4,346.7628,346.7629,349.1615,1.066666667,2.3873,0,3,3,20,1,9_to_16,images/Ex11.jpg,images/Ex16.jpg,Ex11,Ex16,,,,,
,,,,,073980,001,54,Femail,British,Secondary School,2024-11-07_15h03.49.991,CatSimMDS,2023.2.3,Win32,59.88023952,66577bd5fa02a29c30407e81,672bf50eac1463c2ad3c747f,672cd6ae00e78989d30fd4bb,,,,,,,,,,,349.1618,1.3,350.4612,350.4612,352.269,1.066666667,1.8066,0,4,4,16,1,9_to_16,images/Ex11.jpg,images/Ex12.jpg,Ex11,Ex12,,,,,
,,,,,073980,001,54,Femail,British,Secondary School,2024-11-07_15h03.49.991,CatSimMDS,2023.2.3,Win32,59.88023952,66577bd5fa02a29c30407e81,672bf50eac1463c2ad3c747f,672cd6ae00e78989d30fd4bb,,,,,,,,,,,352.2694,1,353.2693,353.2694,361.6115,1.8,8.3332,0,5,5,19,1,9_to_16,images/Ex11.jpg,images/Ex15.jpg,Ex11,Ex15,,,,,
,,,,,073980,001,54,Femail,British,Secondary School,2024-11-07_15h03.49.991,CatSimMDS,2023.2.3,Win32,59.88023952,66577bd5fa02a29c30407e81,672bf50eac1463c2ad3c747f,672cd6ae00e78989d30fd4bb,,,,,,,,,,,361.6118,1.2,362.8119,362.8119,367.7869,1.075,4.9736,0,6,6,33,1,9_to_16,images/Ex13.jpg,images/Ex15.jpg,Ex13,Ex15,,,,,
,,,,,073980,001,54,Femail,British,Secondary School,2024-11-07_15h03.49.991,CatSimMDS,2023.2.3,Win32,59.88023952,66577bd5fa02a29c30407e81,672bf50eac1463c2ad3c747f,672cd6ae00e78989d30fd4bb,,,,,,,,,,,367.7873,0.6,368.379,368.3792,371.1544,1.125,2.7727,0,7,7,5,1,9_to_16,images/Ex9.jpg,images/Ex15.jpg,Ex9,Ex15,,,,,
,,,,,073980,001,54,Femail,British,Secondary School,2024-11-07_15h03.49.991,CatSimMDS,2023.2.3,Win32,59.88023952,66577bd5fa02a29c30407e81,672bf50eac1463c2ad3c747f,672cd6ae00e78989d30fd4bb,,,,,,,,,,,371.1547,0.6,371.7531,371.7532,378.5034,4.016666667,6.7481,0,8,8,36,1,9_to_16,images/Ex14.jpg,images/Ex10.jpg,Ex14,Ex10,,,,,
,,,,,073980,001,54,Femail,British,Secondary School,2024-11-07_15h03.49.991,CatSimMDS,2023.2.3,Win32,59.88023952,66577bd5fa02a29c30407e81,672bf50eac1463c2ad3c747f,672cd6ae00e78989d30fd4bb,,,,,,,,,,,378.5036,0.5,379.0024,379.0024,382.295,1,3.2864,0,9,9,28,1,9_to_16,images/Ex13.jpg,images/Ex9.jpg,Ex13,Ex9,,,,,
,,,,,073980,001,54,Femail,British,Secondary School,2024-11-07_15h03.49.991,CatSimMDS,2023.2.3,Win32,59.88023952,66577bd5fa02a29c30407e81,672bf50eac1463c2ad3c747f,672cd6ae00e78989d30fd4bb,,,,,,,,,,,382.2953,1.4,383.6953,383.6953,385.9781,1.05,2.2735,0,10,10,0,1,9_to_16,images/Ex9.jpg,images/Ex10.jpg,Ex9,Ex10,,,,,
,,,,,073980,001,54,Femail,British,Secondary School,2024-11-07_15h03.49.991,CatSimMDS,2023.2.3,Win32,59.88023952,66577bd5fa02a29c30407e81,672bf50eac1463c2ad3c747f,672cd6ae00e78989d30fd4bb,,,,,,,,,,,385.9784,1,386.9786,386.9786,390.3952,1.058333333,3.4093,0,11,11,42,1,9_to_16,images/Ex15.jpg,images/Ex9.jpg,Ex15,Ex9,,,,,
,,,,,073980,001,54,Femail,British,Secondary School,2024-11-07_15h03.49.991,CatSimMDS,2023.2.3,Win32,59.88023952,66577bd5fa02a29c30407e81,672bf50eac1463c2ad3c747f,672cd6ae00e78989d30fd4bb,,,,,,,,,,,390.3955,0.7,391.0956,391.0957,395.7111,2.858333333,4.609,0,12,12,32,1,9_to_16,images/Ex13.jpg,images/Ex14.jpg,Ex13,Ex14,,,,,
,,,,,073980,001,54,Femail,British,Secondary School,2024-11-07_15h03.49.991,CatSimMDS,2023.2.3,Win32,59.88023952,66577bd5fa02a29c30407e81,672bf50eac1463c2ad3c747f,672cd6ae00e78989d30fd4bb,,,,,,,,,,,395.7114,0.8,396.5114,396.5115,399.9284,2.825,3.4107,0,13,13,38,1,9_to_16,images/Ex14.jpg,images/Ex12.jpg,Ex14,Ex12,,,,,
,,,,,073980,001,54,Femail,British,Secondary School,2024-11-07_15h03.49.991,CatSimMDS,2023.2.3,Win32,59.88023952,66577bd5fa02a29c30407e81,672bf50eac1463c2ad3c747f,672cd6ae00e78989d30fd4bb,,,,,,,,,,,399.9287,1,400.9293,400.9294,406.4948,4.908333333,5.5547,0,14,14,41,1,9_to_16,images/Ex14.jpg,images/Ex16.jpg,Ex14,Ex16,,,,,
,,,,,073980,001,54,Femail,British,Secondary School,2024-11-07_15h03.49.991,CatSimMDS,2023.2.3,Win32,59.88023952,66577bd5fa02a29c30407e81,672bf50eac1463c2ad3c747f,672cd6ae00e78989d30fd4bb,,,,,,,,,,,406.4952,0.6,407.0959,407.096,410.2192,1.116666667,3.121,0,15,15,11,1,9_to_16,images/Ex10.jpg,images/Ex14.jpg,Ex10,Ex14,,,,,
,,,,,073980,001,54,Femail,British,Secondary School,2024-11-07_15h03.49.991,CatSimMDS,2023.2.3,Win32,59.88023952,66577bd5fa02a29c30407e81,672bf50eac1463c2ad3c747f,672cd6ae00e78989d30fd4bb,,,,,,,,,,,410.2195,1.2,411.4192,411.4193,414.9474,3.025,3.5241,0,16,16,10,1,9_to_16,images/Ex10.jpg,images/Ex13.jpg,Ex10,Ex13,,,,,
,,,,,073980,001,54,Femail,British,Secondary School,2024-11-07_15h03.49.991,CatSimMDS,2023.2.3,Win32,59.88023952,66577bd5fa02a29c30407e81,672bf50eac1463c2ad3c747f,672cd6ae00e78989d30fd4bb,,,,,,,,,,,414.9478,1.2,416.1456,416.1458,418.6037,5,2.4561,0,17,17,14,1,9_to_16,images/Ex11.jpg,images/Ex9.jpg,Ex11,Ex9,,,,,
,,,,,073980,001,54,Femail,British,Secondary School,2024-11-07_15h03.49.991,CatSimMDS,2023.2.3,Win32,59.88023952,66577bd5fa02a29c30407e81,672bf50eac1463c2ad3c747f,672cd6ae00e78989d30fd4bb,,,,,,,,,,,418.6041,1.3,419.9007,419.9007,422.837,3.141666667,2.935,0,18,18,21,1,9_to_16,images/Ex12.jpg,images/Ex9.jpg,Ex12,Ex9,,,,,
,,,,,073980,001,54,Femail,British,Secondary School,2024-11-07_15h03.49.991,CatSimMDS,2023.2.3,Win32,59.88023952,66577bd5fa02a29c30407e81,672bf50eac1463c2ad3c747f,672cd6ae00e78989d30fd4bb,,,,,,,,,,,422.8373,0.7,423.5358,423.5358,429.0959,3.9,5.557,0,19,19,51,1,9_to_16,images/Ex16.jpg,images/Ex11.jpg,Ex16,Ex11,,,,,
,,,,,073980,001,54,Femail,British,Secondary School,2024-11-07_15h03.49.991,CatSimMDS,2023.2.3,Win32,59.88023952,66577bd5fa02a29c30407e81,672bf50eac1463c2ad3c747f,672cd6ae00e78989d30fd4bb,,,,,,,,,,,429.0972,0.6,429.6984,429.6985,437.6369,3.091666667,7.9363,0,20,20,44,1,9_to_16,images/Ex15.jpg,images/Ex11.jpg,Ex15,Ex11,,,,,
,,,,,073980,001,54,Femail,British,Secondary School,2024-11-07_15h03.49.991,CatSimMDS,2023.2.3,Win32,59.88023952,66577bd5fa02a29c30407e81,672bf50eac1463c2ad3c747f,672cd6ae00e78989d30fd4bb,,,,,,,,,,,437.6372,1.1,438.7295,438.7296,440.7792,1.083333333,2.0452,0,21,21,8,1,9_to_16,images/Ex10.jpg,images/Ex11.jpg,Ex10,Ex11,,,,,
,,,,,073980,001,54,Femail,British,Secondary School,2024-11-07_15h03.49.991,CatSimMDS,2023.2.3,Win32,59.88023952,66577bd5fa02a29c30407e81,672bf50eac1463c2ad3c747f,672cd6ae00e78989d30fd4bb,,,,,,,,,,,440.7804,1.2,441.9688,441.9688,444.0023,1.216666667,2.032,0,22,22,30,1,9_to_16,images/Ex13.jpg,images/Ex11.jpg,Ex13,Ex11,,,,,
,,,,,073980,001,54,Femail,British,Secondary School,2024-11-07_15h03.49.991,CatSimMDS,2023.2.3,Win32,59.88023952,66577bd5fa02a29c30407e81,672bf50eac1463c2ad3c747f,672cd6ae00e78989d30fd4bb,,,,,,,,,,,444.0027,0.6,444.5967,444.5968,448.7952,3.866666667,4.1932,0,23,23,35,1,9_to_16,images/Ex14.jpg,images/Ex9.jpg,Ex14,Ex9,,,,,
,,,,,073980,001,54,Femail,British,Secondary School,2024-11-07_15h03.49.991,CatSimMDS,2023.2.3,Win32,59.88023952,66577bd5fa02a29c30407e81,672bf50eac1463c2ad3c747f,672cd6ae00e78989d30fd4bb,,,,,,,,,,,448.7956,0.8,449.5948,449.5949,451.6616,2.233333333,2.0562,0,24,24,43,1,9_to_16,images/Ex15.jpg,images/Ex10.jpg,Ex15,Ex10,,,,,
,,,,,073980,001,54,Femail,British,Secondary School,2024-11-07_15h03.49.991,CatSimMDS,2023.2.3,Win32,59.88023952,66577bd5fa02a29c30407e81,672bf50eac1463c2ad3c747f,672cd6ae00e78989d30fd4bb,,,,,,,,,,,451.6618,0.8,452.4625,452.4626,454.3037,1.033333333,1.8392,0,25,25,15,1,9_to_16,images/Ex11.jpg,images/Ex10.jpg,Ex11,Ex10,,,,,
,,,,,073980,001,54,Femail,British,Secondary School,2024-11-07_15h03.49.991,CatSimMDS,2023.2.3,Win32,59.88023952,66577bd5fa02a29c30407e81,672bf50eac1463c2ad3c747f,672cd6ae00e78989d30fd4bb,,,,,,,,,,,454.304,0.8,455.1009,455.1009,459.5125,1.058333333,4.4081,0,26,26,17,1,9_to_16,images/Ex11.jpg,images/Ex13.jpg,Ex11,Ex13,,,,,
,,,,,073980,001,54,Femail,British,Secondary School,2024-11-07_15h03.49.991,CatSimMDS,2023.2.3,Win32,59.88023952,66577bd5fa02a29c30407e81,672bf50eac1463c2ad3c747f,672cd6ae00e78989d30fd4bb,,,,,,,,,,,459.5141,1.4,460.9182,460.9183,464.4698,3.033333333,3.5504,0,27,27,49,1,9_to_16,images/Ex16.jpg,images/Ex9.jpg,Ex16,Ex9,,,,,
,,,,,073980,001,54,Femail,British,Secondary School,2024-11-07_15h03.49.991,CatSimMDS,2023.2.3,Win32,59.88023952,66577bd5fa02a29c30407e81,672bf50eac1463c2ad3c747f,672cd6ae00e78989d30fd4bb,,,,,,,,,,,464.47,1.2,465.6696,465.6697,470.2284,1.05,4.5493,0,28,28,12,1,9_to_16,images/Ex10.jpg,images/Ex15.jpg,Ex10,Ex15,,,,,
,,,,,073980,001,54,Femail,British,Secondary School,2024-11-07_15h03.49.991,CatSimMDS,2023.2.3,Win32,59.88023952,66577bd5fa02a29c30407e81,672bf50eac1463c2ad3c747f,672cd6ae00e78989d30fd4bb,,,,,,,,,,,470.2288,1.1,471.3288,471.3288,472.5948,1.05,1.2567,0,29,29,7,1,9_to_16,images/Ex10.jpg,images/Ex9.jpg,Ex10,Ex9,,,,,
,,,,,073980,001,54,Femail,British,Secondary School,2024-11-07_15h03.49.991,CatSimMDS,2023.2.3,Win32,59.88023952,66577bd5fa02a29c30407e81,672bf50eac1463c2ad3c747f,672cd6ae00e78989d30fd4bb,,,,,,,,,,,472.5952,1.4,473.9955,473.9957,477.3035,3.075,3.3064,0,30,30,6,1,9_to_16,images/Ex9.jpg,images/Ex16.jpg,Ex9,Ex16,,,,,
,,,,,073980,001,54,Femail,British,Secondary School,2024-11-07_15h03.49.991,CatSimMDS,2023.2.3,Win32,59.88023952,66577bd5fa02a29c30407e81,672bf50eac1463c2ad3c747f,672cd6ae00e78989d30fd4bb,,,,,,,,,,,477.3037,0.9,478.1961,478.1962,482.3189,2.933333333,4.1201,0,31,31,3,1,9_to_16,images/Ex9.jpg,images/Ex13.jpg,Ex9,Ex13,,,,,
,,,,,073980,001,54,Femail,British,Secondary School,2024-11-07_15h03.49.991,CatSimMDS,2023.2.3,Win32,59.88023952,66577bd5fa02a29c30407e81,672bf50eac1463c2ad3c747f,672cd6ae00e78989d30fd4bb,,,,,,,,,,,482.3191,0.6,482.9124,482.9125,488.5039,4.941666667,5.5889,0,32,32,25,1,9_to_16,images/Ex12.jpg,images/Ex14.jpg,Ex12,Ex14,,,,,
,,,,,073980,001,54,Femail,British,Secondary School,2024-11-07_15h03.49.991,CatSimMDS,2023.2.3,Win32,59.88023952,66577bd5fa02a29c30407e81,672bf50eac1463c2ad3c747f,672cd6ae00e78989d30fd4bb,,,,,,,,,,,488.5042,1.1,489.5966,489.5967,492.6686,2.975,3.0701,0,33,33,39,1,9_to_16,images/Ex14.jpg,images/Ex13.jpg,Ex14,Ex13,,,,,
,,,,,073980,001,54,Femail,British,Secondary School,2024-11-07_15h03.49.991,CatSimMDS,2023.2.3,Win32,59.88023952,66577bd5fa02a29c30407e81,672bf50eac1463c2ad3c747f,672cd6ae00e78989d30fd4bb,,,,,,,,,,,492.6688,1.3,493.9618,493.962,497.7126,4.075,3.7465,0,34,34,54,1,9_to_16,images/Ex16.jpg,images/Ex14.jpg,Ex16,Ex14,,,,,
,,,,,073980,001,54,Femail,British,Secondary School,2024-11-07_15h03.49.991,CatSimMDS,2023.2.3,Win32,59.88023952,66577bd5fa02a29c30407e81,672bf50eac1463c2ad3c747f,672cd6ae00e78989d30fd4bb,,,,,,,,,,,497.7137,0.9,498.6117,498.6118,500.7029,5.933333333,2.0886,0,35,35,52,1,9_to_16,images/Ex16.jpg,images/Ex12.jpg,Ex16,Ex12,,,,,
,,,,,073980,001,54,Femail,British,Secondary School,2024-11-07_15h03.49.991,CatSimMDS,2023.2.3,Win32,59.88023952,66577bd5fa02a29c30407e81,672bf50eac1463c2ad3c747f,672cd6ae00e78989d30fd4bb,,,,,,,,,,,500.7032,0.9,501.5956,501.5957,503.3366,1.008333333,1.7387,0,36,36,22,1,9_to_16,images/Ex12.jpg,images/Ex10.jpg,Ex12,Ex10,,,,,
,,,,,073980,001,54,Femail,British,Secondary School,2024-11-07_15h03.49.991,CatSimMDS,2023.2.3,Win32,59.88023952,66577bd5fa02a29c30407e81,672bf50eac1463c2ad3c747f,672cd6ae00e78989d30fd4bb,,,,,,,,,,,503.3369,1.3,504.6285,504.6287,506.9288,1.166666667,2.2933,0,37,37,9,1,9_to_16,images/Ex10.jpg,images/Ex12.jpg,Ex10,Ex12,,,,,
,,,,,073980,001,54,Femail,British,Secondary School,2024-11-07_15h03.49.991,CatSimMDS,2023.2.3,Win32,59.88023952,66577bd5fa02a29c30407e81,672bf50eac1463c2ad3c747f,672cd6ae00e78989d30fd4bb,,,,,,,,,,,506.9301,1,507.9281,507.9282,511.7352,1.125,3.8043,0,38,38,45,1,9_to_16,images/Ex15.jpg,images/Ex12.jpg,Ex15,Ex12,,,,,
,,,,,073980,001,54,Femail,British,Secondary School,2024-11-07_15h03.49.991,CatSimMDS,2023.2.3,Win32,59.88023952,66577bd5fa02a29c30407e81,672bf50eac1463c2ad3c747f,672cd6ae00e78989d30fd4bb,,,,,,,,,,,511.7353,1,512.7286,512.7288,519.1528,4.1,6.4216,0,39,39,18,1,9_to_16,images/Ex11.jpg,images/Ex14.jpg,Ex11,Ex14,,,,,
,,,,,073980,001,54,Femail,British,Secondary School,2024-11-07_15h03.49.991,CatSimMDS,2023.2.3,Win32,59.88023952,66577bd5fa02a29c30407e81,672bf50eac1463c2ad3c747f,672cd6ae00e78989d30fd4bb,,,,,,,,,,,519.153,1.5,520.6448,520.645,524.1364,1.933333333,3.4886,0,40,40,26,1,9_to_16,images/Ex12.jpg,images/Ex15.jpg,Ex12,Ex15,,,,,
,,,,,073980,001,54,Femail,British,Secondary School,2024-11-07_15h03.49.991,CatSimMDS,2023.2.3,Win32,59.88023952,66577bd5fa02a29c30407e81,672bf50eac1463c2ad3c747f,672cd6ae00e78989d30fd4bb,,,,,,,,,,,524.1367,1.1,525.2289,525.229,529.1202,1.925,3.8888,0,41,41,48,1,9_to_16,images/Ex15.jpg,images/Ex16.jpg,Ex15,Ex16,,,,,
,,,,,073980,001,54,Femail,British,Secondary School,2024-11-07_15h03.49.991,CatSimMDS,2023.2.3,Win32,59.88023952,66577bd5fa02a29c30407e81,672bf50eac1463c2ad3c747f,672cd6ae00e78989d30fd4bb,,,,,,,,,,,529.1203,1,530.1133,530.1135,533.1947,2.058333333,3.0723,0,42,42,53,1,9_to_16,images/Ex16.jpg,images/Ex13.jpg,Ex16,Ex13,,,,,
,,,,,073980,001,54,Femail,British,Secondary School,2024-11-07_15h03.49.991,CatSimMDS,2023.2.3,Win32,59.88023952,66577bd5fa02a29c30407e81,672bf50eac1463c2ad3c747f,672cd6ae00e78989d30fd4bb,,,,,,,,,,,533.195,1.4,534.5957,534.5957,536.6618,4.983333333,2.0589,0,43,43,23,1,9_to_16,images/Ex12.jpg,images/Ex11.jpg,Ex12,Ex11,,,,,
,,,,,073980,001,54,Femail,British,Secondary School,2024-11-07_15h03.49.991,CatSimMDS,2023.2.3,Win32,59.88023952,66577bd5fa02a29c30407e81,672bf50eac1463c2ad3c747f,672cd6ae00e78989d30fd4bb,,,,,,,,,,,536.6621,0.6,537.2621,537.2622,538.8448,5.025,1.578,0,44,44,37,1,9_to_16,images/Ex14.jpg,images/Ex11.jpg,Ex14,Ex11,,,,,
,,,,,073980,001,54,Femail,British,Secondary School,2024-11-07_15h03.49.991,CatSimMDS,2023.2.3,Win32,59.88023952,66577bd5fa02a29c30407e81,672bf50eac1463c2ad3c747f,672cd6ae00e78989d30fd4bb,,,,,,,,,,,538.8451,0.6,539.4457,539.4457,541.2964,1.091666667,1.8449,0,45,45,50,1,9_to_16,images/Ex16.jpg,images/Ex10.jpg,Ex16,Ex10,,,,,
,,,,,073980,001,54,Femail,British,Secondary School,2024-11-07_15h03.49.991,CatSimMDS,2023.2.3,Win32,59.88023952,66577bd5fa02a29c30407e81,672bf50eac1463c2ad3c747f,672cd6ae00e78989d30fd4bb,,,,,,,,,,,541.2976,0.8,542.0857,542.0857,543.962,1,1.873,0,46,46,13,1,9_to_16,images/Ex10.jpg,images/Ex16.jpg,Ex10,Ex16,,,,,
,,,,,073980,001,54,Femail,British,Secondary School,2024-11-07_15h03.49.991,CatSimMDS,2023.2.3,Win32,59.88023952,66577bd5fa02a29c30407e81,672bf50eac1463c2ad3c747f,672cd6ae00e78989d30fd4bb,,,,,,,,,,,543.9623,0.9,544.8632,544.8632,548.5454,2.983333333,3.6791,0,47,47,24,1,9_to_16,images/Ex12.jpg,images/Ex13.jpg,Ex12,Ex13,,,,,
,,,,,073980,001,54,Femail,British,Secondary School,2024-11-07_15h03.49.991,CatSimMDS,2023.2.3,Win32,59.88023952,66577bd5fa02a29c30407e81,672bf50eac1463c2ad3c747f,672cd6ae00e78989d30fd4bb,,,,,,,,,,,548.5458,1.4,549.9447,549.9447,551.6783,1.125,1.7239,0,48,48,46,1,9_to_16,images/Ex15.jpg,images/Ex13.jpg,Ex15,Ex13,,,,,
,,,,,073980,001,54,Femail,British,Secondary School,2024-11-07_15h03.49.991,CatSimMDS,2023.2.3,Win32,59.88023952,66577bd5fa02a29c30407e81,672bf50eac1463c2ad3c747f,672cd6ae00e78989d30fd4bb,,,,,,,,,,,551.6786,0.7,552.3787,552.3787,554.1618,3.175,1.7803,0,49,49,27,1,9_to_16,images/Ex12.jpg,images/Ex16.jpg,Ex12,Ex16,,,,,
,,,,,073980,001,54,Femail,British,Secondary School,2024-11-07_15h03.49.991,CatSimMDS,2023.2.3,Win32,59.88023952,66577bd5fa02a29c30407e81,672bf50eac1463c2ad3c747f,672cd6ae00e78989d30fd4bb,,,,,,,,,,,554.1622,1.3,555.4621,555.4621,557.7297,1.616666667,2.2641,0,50,50,47,1,9_to_16,images/Ex15.jpg,images/Ex14.jpg,Ex15,Ex14,,,,,
,,,,,073980,001,54,Femail,British,Secondary School,2024-11-07_15h03.49.991,CatSimMDS,2023.2.3,Win32,59.88023952,66577bd5fa02a29c30407e81,672bf50eac1463c2ad3c747f,672cd6ae00e78989d30fd4bb,,,,,,,,,,,557.7307,0.7,558.4194,558.4195,560.2796,4.333333333,1.8548,0,51,51,4,1,9_to_16,images/Ex9.jpg,images/Ex14.jpg,Ex9,Ex14,,,,,
,,,,,073980,001,54,Femail,British,Secondary School,2024-11-07_15h03.49.991,CatSimMDS,2023.2.3,Win32,59.88023952,66577bd5fa02a29c30407e81,672bf50eac1463c2ad3c747f,672cd6ae00e78989d30fd4bb,,,,,,,,,,,560.2807,1,561.2861,561.2861,563.0951,3.225,1.7999,0,52,52,34,1,9_to_16,images/Ex13.jpg,images/Ex16.jpg,Ex13,Ex16,,,,,
,,,,,073980,001,54,Femail,British,Secondary School,2024-11-07_15h03.49.991,CatSimMDS,2023.2.3,Win32,59.88023952,66577bd5fa02a29c30407e81,672bf50eac1463c2ad3c747f,672cd6ae00e78989d30fd4bb,,,,,,,,,,,563.0954,1.1,564.1973,564.1973,567.3955,2.366666667,3.1948,0,53,53,40,1,9_to_16,images/Ex14.jpg,images/Ex15.jpg,Ex14,Ex15,,,,,
,,,,,073980,001,54,Femail,British,Secondary School,2024-11-07_15h03.49.991,CatSimMDS,2023.2.3,Win32,59.88023952,66577bd5fa02a29c30407e81,672bf50eac1463c2ad3c747f,672cd6ae00e78989d30fd4bb,,,,,,,,,,,567.3966,0.6,567.9847,567.9847,569.8374,1.066666667,1.8514,0,54,54,29,1,9_to_16,images/Ex13.jpg,images/Ex10.jpg,Ex13,Ex10,,,,,
,,,,,073980,001,54,Femail,British,Secondary School,2024-11-07_15h03.49.991,CatSimMDS,2023.2.3,Win32,59.88023952,66577bd5fa02a29c30407e81,672bf50eac1463c2ad3c747f,672cd6ae00e78989d30fd4bb,,,,,,,,,,,,,,,,,,,,,,,,,,,,569.8377,589.9458,space,20.0755,