infCons.started,infCons.stopped,resp_consent.keys,resp_consent.rt,resp_consent.duration,participant,session,Age?,Gender?,Nationality?,Highest Educational Degree?,date,expName,psychopyVersion,OS,frameRate,PROLIFIC_PID,STUDY_ID,SESSION_ID,instructions.started,instructions.stopped,resp_instructions.keys,resp_instructions.rt,resp_instructions.duration,nextTask.started,nextTask.stopped,ready_task.keys,ready_task.rt,ready_task.duration,fixation.started,ITI,fixation.stopped,stim.started,stim.stopped,slider.response,slider.rt,trials.thisRepN,trials.thisTrialN,trials.thisN,trials.thisIndex,trials.ran,task,exemplarLeft,exemplarRight,left,right,end.started,end.stopped,resp_end.keys,resp_end.rt,resp_end.duration
0.0001,22.8919,space,22.8839,,415564,001,38,male,British,Professional degree,2024-11-07_15h05.33.381,CatSimMDS,2023.2.3,Win32,59.88023952,6321dd8071382720694df153,672bf50eac1463c2ad3c747f,672cd721781ace206e7cd88e,,,,,,,,,,,,,,,,,,,,,,,,,,,,,,,,
,,,,,415564,001,38,male,British,Professional degree,2024-11-07_15h05.33.381,CatSimMDS,2023.2.3,Win32,59.88023952,6321dd8071382720694df153,672bf50eac1463c2ad3c747f,672cd721781ace206e7cd88e,22.8921,44.3047,space,21.3961,,,,,,,,,,,,,,,,,,,,,,,,,,,,
,,,,,415564,001,38,male,British,Professional degree,2024-11-07_15h05.33.381,CatSimMDS,2023.2.3,Win32,59.88023952,6321dd8071382720694df153,672bf50eac1463c2ad3c747f,672cd721781ace206e7cd88e,,,,,,44.307,46.7215,space,2.4047,,46.725,0.9,47.6139,47.614,54.9218,6.965714286,7.3071,0,0,0,52,1,1_to_8,images/Ex8.jpg,images/Ex4.jpg,Ex8,Ex4,,,,,
,,,,,415564,001,38,male,British,Professional degree,2024-11-07_15h05.33.381,CatSimMDS,2023.2.3,Win32,59.88023952,6321dd8071382720694df153,672bf50eac1463c2ad3c747f,672cd721781ace206e7cd88e,,,,,,,,,,,54.9219,0.8,55.7224,55.7224,60.3352,5.911428571,4.6122,0,1,1,48,1,1_to_8,images/Ex7.jpg,images/Ex8.jpg,Ex7,Ex8,,,,,
,,,,,415564,001,38,male,British,Professional degree,2024-11-07_15h05.33.381,CatSimMDS,2023.2.3,Win32,59.88023952,6321dd8071382720694df153,672bf50eac1463c2ad3c747f,672cd721781ace206e7cd88e,,,,,,,,,,,60.3354,1.4,61.7394,61.7395,64.5306,4.642857143,2.7886,0,2,2,50,1,1_to_8,images/Ex8.jpg,images/Ex2.jpg,Ex8,Ex2,,,,,
,,,,,415564,001,38,male,British,Professional degree,2024-11-07_15h05.33.381,CatSimMDS,2023.2.3,Win32,59.88023952,6321dd8071382720694df153,672bf50eac1463c2ad3c747f,672cd721781ace206e7cd88e,,,,,,,,,,,64.5307,1,65.5418,65.5418,71.5544,6.742857143,6.012,0,3,3,8,1,1_to_8,images/Ex2.jpg,images/Ex3.jpg,Ex2,Ex3,,,,,
,,,,,415564,001,38,male,British,Professional degree,2024-11-07_15h05.33.381,CatSimMDS,2023.2.3,Win32,59.88023952,6321dd8071382720694df153,672bf50eac1463c2ad3c747f,672cd721781ace206e7cd88e,,,,,,,,,,,71.5545,0.5,72.0547,72.0547,74.4935,7.617142857,2.4381,0,4,4,46,1,1_to_8,images/Ex7.jpg,images/Ex5.jpg,Ex7,Ex5,,,,,
,,,,,415564,001,38,male,British,Professional degree,2024-11-07_15h05.33.381,CatSimMDS,2023.2.3,Win32,59.88023952,6321dd8071382720694df153,672bf50eac1463c2ad3c747f,672cd721781ace206e7cd88e,,,,,,,,,,,74.4936,1.2,75.6973,75.6973,78.3726,3.802857143,2.6749,0,5,5,7,1,1_to_8,images/Ex2.jpg,images/Ex1.jpg,Ex2,Ex1,,,,,
,,,,,415564,001,38,male,British,Professional degree,2024-11-07_15h05.33.381,CatSimMDS,2023.2.3,Win32,59.88023952,6321dd8071382720694df153,672bf50eac1463c2ad3c747f,672cd721781ace206e7cd88e,,,,,,,,,,,78.3728,1.4,79.7716,79.7716,81.4736,2.885714286,1.7014,0,6,6,15,1,1_to_8,images/Ex3.jpg,images/Ex2.jpg,Ex3,Ex2,,,,,
,,,,,415564,001,38,male,British,Professional degree,2024-11-07_15h05.33.381,CatSimMDS,2023.2.3,Win32,59.88023952,6321dd8071382720694df153,672bf50eac1463c2ad3c747f,672cd721781ace206e7cd88e,,,,,,,,,,,81.4738,1,82.4745,82.4745,84.414,6.845714286,1.9378,0,7,7,23,1,1_to_8,images/Ex4.jpg,images/Ex3.jpg,Ex4,Ex3,,,,,
,,,,,415564,001,38,male,British,Professional degree,2024-11-07_15h05.33.381,CatSimMDS,2023.2.3,Win32,59.88023952,6321dd8071382720694df153,672bf50eac1463c2ad3c747f,672cd721781ace206e7cd88e,,,,,,,,,,,84.4142,0.9,85.3302,85.3302,87.214,8.877142857,1.8819,0,8,8,14,1,1_to_8,images/Ex3.jpg,images/Ex1.jpg,Ex3,Ex1,,,,,
,,,,,415564,001,38,male,British,Professional degree,2024-11-07_15h05.33.381,CatSimMDS,2023.2.3,Win32,59.88023952,6321dd8071382720694df153,672bf50eac1463c2ad3c747f,672cd721781ace206e7cd88e,,,,,,,,,,,87.2142,0.7,87.919,87.919,92.3782,5.002857143,4.4587,0,9,9,54,1,1_to_8,images/Ex8.jpg,images/Ex6.jpg,Ex8,Ex6,,,,,
,,,,,415564,001,38,male,British,Professional degree,2024-11-07_15h05.33.381,CatSimMDS,2023.2.3,Win32,59.88023952,6321dd8071382720694df153,672bf50eac1463c2ad3c747f,672cd721781ace206e7cd88e,,,,,,,,,,,92.3782,0.6,92.9807,92.9807,94.6706,2.937142857,1.6893,0,10,10,28,1,1_to_8,images/Ex5.jpg,images/Ex1.jpg,Ex5,Ex1,,,,,
,,,,,415564,001,38,male,British,Professional degree,2024-11-07_15h05.33.381,CatSimMDS,2023.2.3,Win32,59.88023952,6321dd8071382720694df153,672bf50eac1463c2ad3c747f,672cd721781ace206e7cd88e,,,,,,,,,,,94.6707,1,95.6714,95.6715,98.1063,6.134285714,2.4343,0,11,11,35,1,1_to_8,images/Ex6.jpg,images/Ex1.jpg,Ex6,Ex1,,,,,
,,,,,415564,001,38,male,British,Professional degree,2024-11-07_15h05.33.381,CatSimMDS,2023.2.3,Win32,59.88023952,6321dd8071382720694df153,672bf50eac1463c2ad3c747f,672cd721781ace206e7cd88e,,,,,,,,,,,98.1064,1.3,99.4074,99.4074,102.3141,7.051428571,2.9061,0,12,12,24,1,1_to_8,images/Ex4.jpg,images/Ex5.jpg,Ex4,Ex5,,,,,
,,,,,415564,001,38,male,British,Professional degree,2024-11-07_15h05.33.381,CatSimMDS,2023.2.3,Win32,59.88023952,6321dd8071382720694df153,672bf50eac1463c2ad3c747f,672cd721781ace206e7cd88e,,,,,,,,,,,102.3143,0.9,103.2152,103.2152,107.207,2.86,3.9913,0,13,13,2,1,1_to_8,images/Ex1.jpg,images/Ex4.jpg,Ex1,Ex4,,,,,
,,,,,415564,001,38,male,British,Professional degree,2024-11-07_15h05.33.381,CatSimMDS,2023.2.3,Win32,59.88023952,6321dd8071382720694df153,672bf50eac1463c2ad3c747f,672cd721781ace206e7cd88e,,,,,,,,,,,107.2072,0.9,108.1081,108.1082,110.2129,6.751428571,2.1041,0,14,14,27,1,1_to_8,images/Ex4.jpg,images/Ex8.jpg,Ex4,Ex8,,,,,
,,,,,415564,001,38,male,British,Professional degree,2024-11-07_15h05.33.381,CatSimMDS,2023.2.3,Win32,59.88023952,6321dd8071382720694df153,672bf50eac1463c2ad3c747f,672cd721781ace206e7cd88e,,,,,,,,,,,110.213,0.7,110.9134,110.9134,113.0725,1.591428571,2.1585,0,15,15,3,1,1_to_8,images/Ex1.jpg,images/Ex5.jpg,Ex1,Ex5,,,,,
,,,,,415564,001,38,male,British,Professional degree,2024-11-07_15h05.33.381,CatSimMDS,2023.2.3,Win32,59.88023952,6321dd8071382720694df153,672bf50eac1463c2ad3c747f,672cd721781ace206e7cd88e,,,,,,,,,,,113.0725,1,114.0642,114.0642,117.9948,3.922857143,3.9302,0,16,16,42,1,1_to_8,images/Ex7.jpg,images/Ex1.jpg,Ex7,Ex1,,,,,
,,,,,415564,001,38,male,British,Professional degree,2024-11-07_15h05.33.381,CatSimMDS,2023.2.3,Win32,59.88023952,6321dd8071382720694df153,672bf50eac1463c2ad3c747f,672cd721781ace206e7cd88e,,,,,,,,,,,117.995,1.1,119.0975,119.0975,134.6643,6.168571429,15.5626,0,17,17,5,1,1_to_8,images/Ex1.jpg,images/Ex7.jpg,Ex1,Ex7,,,,,
,,,,,415564,001,38,male,British,Professional degree,2024-11-07_15h05.33.381,CatSimMDS,2023.2.3,Win32,59.88023952,6321dd8071382720694df153,672bf50eac1463c2ad3c747f,672cd721781ace206e7cd88e,,,,,,,,,,,134.6645,1.3,135.9627,135.9627,138.186,4.934285714,2.2228,0,18,18,10,1,1_to_8,images/Ex2.jpg,images/Ex5.jpg,Ex2,Ex5,,,,,
,,,,,415564,001,38,male,British,Professional degree,2024-11-07_15h05.33.381,CatSimMDS,2023.2.3,Win32,59.88023952,6321dd8071382720694df153,672bf50eac1463c2ad3c747f,672cd721781ace206e7cd88e,,,,,,,,,,,138.1862,0.6,138.79,138.79,141.0905,4.162857143,2.2999,0,19,19,6,1,1_to_8,images/Ex1.jpg,images/Ex8.jpg,Ex1,Ex8,,,,,
,,,,,415564,001,38,male,British,Professional degree,2024-11-07_15h05.33.381,CatSimMDS,2023.2.3,Win32,59.88023952,6321dd8071382720694df153,672bf50eac1463c2ad3c747f,672cd721781ace206e7cd88e,,,,,,,,,,,141.0906,0.6,141.681,141.681,143.5281,3.588571429,1.8466,0,20,20,11,1,1_to_8,images/Ex2.jpg,images/Ex6.jpg,Ex2,Ex6,,,,,
,,,,,415564,001,38,male,British,Professional degree,2024-11-07_15h05.33.381,CatSimMDS,2023.2.3,Win32,59.88023952,6321dd8071382720694df153,672bf50eac1463c2ad3c747f,672cd721781ace206e7cd88e,,,,,,,,,,,143.5283,1.1,144.6295,144.6296,146.8347,6.014285714,2.2047,0,21,21,9,1,1_to_8,images/Ex2.jpg,images/Ex4.jpg,Ex2,Ex4,,,,,
,,,,,415564,001,38,male,British,Professional degree,2024-11-07_15h05.33.381,CatSimMDS,2023.2.3,Win32,59.88023952,6321dd8071382720694df153,672bf50eac1463c2ad3c747f,672cd721781ace206e7cd88e,,,,,,,,,,,146.8348,1,147.8353,147.8353,149.6567,6.331428571,1.8206,0,22,22,25,1,1_to_8,images/Ex4.jpg,images/Ex6.jpg,Ex4,Ex6,,,,,
,,,,,415564,001,38,male,British,Professional degree,2024-11-07_15h05.33.381,CatSimMDS,2023.2.3,Win32,59.88023952,6321dd8071382720694df153,672bf50eac1463c2ad3c747f,672cd721781ace206e7cd88e,,,,,,,,,,,149.6569,0.7,150.357,150.357,153.1635,6.691428571,2.8058,0,23,23,4,1,1_to_8,images/Ex1.jpg,images/Ex6.jpg,Ex1,Ex6,,,,,
,,,,,415564,001,38,male,British,Professional degree,2024-11-07_15h05.33.381,CatSimMDS,2023.2.3,Win32,59.88023952,6321dd8071382720694df153,672bf50eac1463c2ad3c747f,672cd721781ace206e7cd88e,,,,,,,,,,,153.1635,0.7,153.8638,153.8638,155.4018,2.045714286,1.5376,0,24,24,12,1,1_to_8,images/Ex2.jpg,images/Ex7.jpg,Ex2,Ex7,,,,,
,,,,,415564,001,38,male,British,Professional degree,2024-11-07_15h05.33.381,CatSimMDS,2023.2.3,Win32,59.88023952,6321dd8071382720694df153,672bf50eac1463c2ad3c747f,672cd721781ace206e7cd88e,,,,,,,,,,,155.402,0.7,156.0897,156.0898,157.8978,3.391428571,1.7993,0,25,25,29,1,1_to_8,images/Ex5.jpg,images/Ex2.jpg,Ex5,Ex2,,,,,
,,,,,415564,001,38,male,British,Professional degree,2024-11-07_15h05.33.381,CatSimMDS,2023.2.3,Win32,59.88023952,6321dd8071382720694df153,672bf50eac1463c2ad3c747f,672cd721781ace206e7cd88e,,,,,,,,,,,157.8979,0.7,158.5977,158.5978,163.7341,7.034285714,5.1357,0,26,26,36,1,1_to_8,images/Ex6.jpg,images/Ex2.jpg,Ex6,Ex2,,,,,
,,,,,415564,001,38,male,British,Professional degree,2024-11-07_15h05.33.381,CatSimMDS,2023.2.3,Win32,59.88023952,6321dd8071382720694df153,672bf50eac1463c2ad3c747f,672cd721781ace206e7cd88e,,,,,,,,,,,163.7343,1.5,165.2223,165.2223,168.6273,3.28,3.4043,0,27,27,22,1,1_to_8,images/Ex4.jpg,images/Ex2.jpg,Ex4,Ex2,,,,,
,,,,,415564,001,38,male,British,Professional degree,2024-11-07_15h05.33.381,CatSimMDS,2023.2.3,Win32,59.88023952,6321dd8071382720694df153,672bf50eac1463c2ad3c747f,672cd721781ace206e7cd88e,,,,,,,,,,,168.6274,1.2,169.8284,169.8284,181.4689,3.991428571,11.64,0,28,28,41,1,1_to_8,images/Ex6.jpg,images/Ex8.jpg,Ex6,Ex8,,,,,
,,,,,415564,001,38,male,British,Professional degree,2024-11-07_15h05.33.381,CatSimMDS,2023.2.3,Win32,59.88023952,6321dd8071382720694df153,672bf50eac1463c2ad3c747f,672cd721781ace206e7cd88e,,,,,,,,,,,181.469,0.8,182.2645,182.2645,184.7252,5.671428571,2.46,0,29,29,19,1,1_to_8,images/Ex3.jpg,images/Ex7.jpg,Ex3,Ex7,,,,,
,,,,,415564,001,38,male,British,Professional degree,2024-11-07_15h05.33.381,CatSimMDS,2023.2.3,Win32,59.88023952,6321dd8071382720694df153,672bf50eac1463c2ad3c747f,672cd721781ace206e7cd88e,,,,,,,,,,,184.7253,0.7,185.4258,185.4258,186.9296,2.482857143,1.5032,0,30,30,43,1,1_to_8,images/Ex7.jpg,images/Ex2.jpg,Ex7,Ex2,,,,,
,,,,,415564,001,38,male,British,Professional degree,2024-11-07_15h05.33.381,CatSimMDS,2023.2.3,Win32,59.88023952,6321dd8071382720694df153,672bf50eac1463c2ad3c747f,672cd721781ace206e7cd88e,,,,,,,,,,,186.9296,0.8,187.7313,187.7313,189.7146,3.614285714,1.9766,0,31,31,16,1,1_to_8,images/Ex3.jpg,images/Ex4.jpg,Ex3,Ex4,,,,,
,,,,,415564,001,38,male,British,Professional degree,2024-11-07_15h05.33.381,CatSimMDS,2023.2.3,Win32,59.88023952,6321dd8071382720694df153,672bf50eac1463c2ad3c747f,672cd721781ace206e7cd88e,,,,,,,,,,,189.7147,1,190.703,190.703,197.7674,4.06,7.0639,0,32,32,18,1,1_to_8,images/Ex3.jpg,images/Ex6.jpg,Ex3,Ex6,,,,,
,,,,,415564,001,38,male,British,Professional degree,2024-11-07_15h05.33.381,CatSimMDS,2023.2.3,Win32,59.88023952,6321dd8071382720694df153,672bf50eac1463c2ad3c747f,672cd721781ace206e7cd88e,,,,,,,,,,,197.7677,0.8,198.5554,198.5554,200.623,1.608571429,2.067,0,33,33,17,1,1_to_8,images/Ex3.jpg,images/Ex5.jpg,Ex3,Ex5,,,,,
,,,,,415564,001,38,male,British,Professional degree,2024-11-07_15h05.33.381,CatSimMDS,2023.2.3,Win32,59.88023952,6321dd8071382720694df153,672bf50eac1463c2ad3c747f,672cd721781ace206e7cd88e,,,,,,,,,,,200.6231,1.4,202.0245,202.0245,204.731,4.231428571,2.706,0,34,34,44,1,1_to_8,images/Ex7.jpg,images/Ex3.jpg,Ex7,Ex3,,,,,
,,,,,415564,001,38,male,British,Professional degree,2024-11-07_15h05.33.381,CatSimMDS,2023.2.3,Win32,59.88023952,6321dd8071382720694df153,672bf50eac1463c2ad3c747f,672cd721781ace206e7cd88e,,,,,,,,,,,204.7311,1,205.7314,205.7314,207.9982,5.302857143,2.2575,0,35,35,51,1,1_to_8,images/Ex8.jpg,images/Ex3.jpg,Ex8,Ex3,,,,,
,,,,,415564,001,38,male,British,Professional degree,2024-11-07_15h05.33.381,CatSimMDS,2023.2.3,Win32,59.88023952,6321dd8071382720694df153,672bf50eac1463c2ad3c747f,672cd721781ace206e7cd88e,,,,,,,,,,,207.9982,1.4,209.3981,209.3981,211.3147,3.057142857,1.9116,0,36,36,49,1,1_to_8,images/Ex8.jpg,images/Ex1.jpg,Ex8,Ex1,,,,,
,,,,,415564,001,38,male,British,Professional degree,2024-11-07_15h05.33.381,CatSimMDS,2023.2.3,Win32,59.88023952,6321dd8071382720694df153,672bf50eac1463c2ad3c747f,672cd721781ace206e7cd88e,,,,,,,,,,,211.3148,1,212.3148,212.3148,215.1904,2.654285714,2.875,0,37,37,13,1,1_to_8,images/Ex2.jpg,images/Ex8.jpg,Ex2,Ex8,,,,,
,,,,,415564,001,38,male,British,Professional degree,2024-11-07_15h05.33.381,CatSimMDS,2023.2.3,Win32,59.88023952,6321dd8071382720694df153,672bf50eac1463c2ad3c747f,672cd721781ace206e7cd88e,,,,,,,,,,,215.1905,0.5,215.6889,215.6889,218.0905,6.58,2.401,0,38,38,40,1,1_to_8,images/Ex6.jpg,images/Ex7.jpg,Ex6,Ex7,,,,,
,,,,,415564,001,38,male,British,Professional degree,2024-11-07_15h05.33.381,CatSimMDS,2023.2.3,Win32,59.88023952,6321dd8071382720694df153,672bf50eac1463c2ad3c747f,672cd721781ace206e7cd88e,,,,,,,,,,,218.0906,1.2,219.2917,219.2917,220.9792,4.634285714,1.6869,0,39,39,26,1,1_to_8,images/Ex4.jpg,images/Ex7.jpg,Ex4,Ex7,,,,,
,,,,,415564,001,38,male,British,Professional degree,2024-11-07_15h05.33.381,CatSimMDS,2023.2.3,Win32,59.88023952,6321dd8071382720694df153,672bf50eac1463c2ad3c747f,672cd721781ace206e7cd88e,,,,,,,,,,,220.9793,1.1,222.0802,222.0802,223.7481,3.382857143,1.6659,0,40,40,38,1,1_to_8,images/Ex6.jpg,images/Ex4.jpg,Ex6,Ex4,,,,,
,,,,,415564,001,38,male,British,Professional degree,2024-11-07_15h05.33.381,CatSimMDS,2023.2.3,Win32,59.88023952,6321dd8071382720694df153,672bf50eac1463c2ad3c747f,672cd721781ace206e7cd88e,,,,,,,,,,,223.7482,1.2,224.9555,224.9555,227.0579,2.988571429,2.1019,0,41,41,30,1,1_to_8,images/Ex5.jpg,images/Ex3.jpg,Ex5,Ex3,,,,,
,,,,,415564,001,38,male,British,Professional degree,2024-11-07_15h05.33.381,CatSimMDS,2023.2.3,Win32,59.88023952,6321dd8071382720694df153,672bf50eac1463c2ad3c747f,672cd721781ace206e7cd88e,,,,,,,,,,,227.0581,0.8,227.8481,227.8482,229.3958,3.048571429,1.5471,0,42,42,39,1,1_to_8,images/Ex6.jpg,images/Ex5.jpg,Ex6,Ex5,,,,,
,,,,,415564,001,38,male,British,Professional degree,2024-11-07_15h05.33.381,CatSimMDS,2023.2.3,Win32,59.88023952,6321dd8071382720694df153,672bf50eac1463c2ad3c747f,672cd721781ace206e7cd88e,,,,,,,,,,,229.3959,1.2,230.613,230.613,233.8316,3.091428571,3.211,0,43,43,21,1,1_to_8,images/Ex4.jpg,images/Ex1.jpg,Ex4,Ex1,,,,,
,,,,,415564,001,38,male,British,Professional degree,2024-11-07_15h05.33.381,CatSimMDS,2023.2.3,Win32,59.88023952,6321dd8071382720694df153,672bf50eac1463c2ad3c747f,672cd721781ace206e7cd88e,,,,,,,,,,,233.8318,0.9,234.7393,234.7394,236.3272,3.022857143,1.5872,0,44,44,45,1,1_to_8,images/Ex7.jpg,images/Ex4.jpg,Ex7,Ex4,,,,,
,,,,,415564,001,38,male,British,Professional degree,2024-11-07_15h05.33.381,CatSimMDS,2023.2.3,Win32,59.88023952,6321dd8071382720694df153,672bf50eac1463c2ad3c747f,672cd721781ace206e7cd88e,,,,,,,,,,,236.3272,1.1,237.4274,237.4274,240.59,7.565714286,3.162,0,45,45,34,1,1_to_8,images/Ex5.jpg,images/Ex8.jpg,Ex5,Ex8,,,,,
,,,,,415564,001,38,male,British,Professional degree,2024-11-07_15h05.33.381,CatSimMDS,2023.2.3,Win32,59.88023952,6321dd8071382720694df153,672bf50eac1463c2ad3c747f,672cd721781ace206e7cd88e,,,,,,,,,,,240.5902,1.3,241.8815,241.8815,243.3983,7.531428571,1.5079,0,46,46,31,1,1_to_8,images/Ex5.jpg,images/Ex4.jpg,Ex5,Ex4,,,,,
,,,,,415564,001,38,male,British,Professional degree,2024-11-07_15h05.33.381,CatSimMDS,2023.2.3,Win32,59.88023952,6321dd8071382720694df153,672bf50eac1463c2ad3c747f,672cd721781ace206e7cd88e,,,,,,,,,,,243.3984,0.6,244.0071,244.0071,246.0983,1.454285714,2.0873,0,47,47,0,1,1_to_8,images/Ex1.jpg,images/Ex2.jpg,Ex1,Ex2,,,,,
,,,,,415564,001,38,male,British,Professional degree,2024-11-07_15h05.33.381,CatSimMDS,2023.2.3,Win32,59.88023952,6321dd8071382720694df153,672bf50eac1463c2ad3c747f,672cd721781ace206e7cd88e,,,,,,,,,,,246.0984,1.1,247.1965,247.1965,249.6234,1.96,2.4264,0,48,48,32,1,1_to_8,images/Ex5.jpg,images/Ex6.jpg,Ex5,Ex6,,,,,
,,,,,415564,001,38,male,British,Professional degree,2024-11-07_15h05.33.381,CatSimMDS,2023.2.3,Win32,59.88023952,6321dd8071382720694df153,672bf50eac1463c2ad3c747f,672cd721781ace206e7cd88e,,,,,,,,,,,249.6236,1,250.622,250.622,252.2403,2.122857143,1.6176,0,49,49,33,1,1_to_8,images/Ex5.jpg,images/Ex7.jpg,Ex5,Ex7,,,,,
,,,,,415564,001,38,male,British,Professional degree,2024-11-07_15h05.33.381,CatSimMDS,2023.2.3,Win32,59.88023952,6321dd8071382720694df153,672bf50eac1463c2ad3c747f,672cd721781ace206e7cd88e,,,,,,,,,,,252.2404,1.4,253.6418,253.6419,257.3317,7.025714286,3.6851,0,50,50,37,1,1_to_8,images/Ex6.jpg,images/Ex3.jpg,Ex6,Ex3,,,,,
,,,,,415564,001,38,male,British,Professional degree,2024-11-07_15h05.33.381,CatSimMDS,2023.2.3,Win32,59.88023952,6321dd8071382720694df153,672bf50eac1463c2ad3c747f,672cd721781ace206e7cd88e,,,,,,,,,,,257.3317,1,258.3223,258.3223,261.6085,6.64,3.2858,0,51,51,53,1,1_to_8,images/Ex8.jpg,images/Ex5.jpg,Ex8,Ex5,,,,,
,,,,,415564,001,38,male,British,Professional degree,2024-11-07_15h05.33.381,CatSimMDS,2023.2.3,Win32,59.88023952,6321dd8071382720694df153,672bf50eac1463c2ad3c747f,672cd721781ace206e7cd88e,,,,,,,,,,,261.6087,0.9,262.4983,262.4983,293.571,8.028571429,31.0721,0,52,52,47,1,1_to_8,images/Ex7.jpg,images/Ex6.jpg,Ex7,Ex6,,,,,
,,,,,415564,001,38,male,British,Professional degree,2024-11-07_15h05.33.381,CatSimMDS,2023.2.3,Win32,59.88023952,6321dd8071382720694df153,672bf50eac1463c2ad3c747f,672cd721781ace206e7cd88e,,,,,,,,,,,293.5711,1.4,294.9726,294.9726,296.9775,8.311428571,2.0043,0,53,53,1,1,1_to_8,images/Ex1.jpg,images/Ex3.jpg,Ex1,Ex3,,,,,
,,,,,415564,001,38,male,British,Professional degree,2024-11-07_15h05.33.381,CatSimMDS,2023.2.3,Win32,59.88023952,6321dd8071382720694df153,672bf50eac1463c2ad3c747f,672cd721781ace206e7cd88e,,,,,,,,,,,296.9776,0.9,297.8651,297.8652,373.2921,5.92,75.4263,0,54,54,20,1,1_to_8,images/Ex3.jpg,images/Ex8.jpg,Ex3,Ex8,,,,,
,,,,,415564,001,38,male,British,Professional degree,2024-11-07_15h05.33.381,CatSimMDS,2023.2.3,Win32,59.88023952,6321dd8071382720694df153,672bf50eac1463c2ad3c747f,672cd721781ace206e7cd88e,,,,,,373.2924,376.833,space,3.5237,,376.8358,0.6,377.434,377.434,380.5741,4.034285714,3.1396,0,0,0,35,1,9_to_16,images/Ex14.jpg,images/Ex9.jpg,Ex14,Ex9,,,,,
,,,,,415564,001,38,male,British,Professional degree,2024-11-07_15h05.33.381,CatSimMDS,2023.2.3,Win32,59.88023952,6321dd8071382720694df153,672bf50eac1463c2ad3c747f,672cd721781ace206e7cd88e,,,,,,,,,,,380.5742,1,381.575,381.575,383.2324,2.037142857,1.654,0,1,1,42,1,9_to_16,images/Ex15.jpg,images/Ex9.jpg,Ex15,Ex9,,,,,
,,,,,415564,001,38,male,British,Professional degree,2024-11-07_15h05.33.381,CatSimMDS,2023.2.3,Win32,59.88023952,6321dd8071382720694df153,672bf50eac1463c2ad3c747f,672cd721781ace206e7cd88e,,,,,,,,,,,383.2326,1.5,384.7324,384.7324,386.699,1.008571429,1.9555,0,2,2,48,1,9_to_16,images/Ex15.jpg,images/Ex16.jpg,Ex15,Ex16,,,,,
,,,,,415564,001,38,male,British,Professional degree,2024-11-07_15h05.33.381,CatSimMDS,2023.2.3,Win32,59.88023952,6321dd8071382720694df153,672bf50eac1463c2ad3c747f,672cd721781ace206e7cd88e,,,,,,,,,,,386.6992,1.1,387.799,387.799,389.3491,6.854285714,1.5469,0,3,3,27,1,9_to_16,images/Ex12.jpg,images/Ex16.jpg,Ex12,Ex16,,,,,
,,,,,415564,001,38,male,British,Professional degree,2024-11-07_15h05.33.381,CatSimMDS,2023.2.3,Win32,59.88023952,6321dd8071382720694df153,672bf50eac1463c2ad3c747f,672cd721781ace206e7cd88e,,,,,,,,,,,389.3493,1,390.3422,390.3422,391.9825,2.165714286,1.637,0,4,4,50,1,9_to_16,images/Ex16.jpg,images/Ex10.jpg,Ex16,Ex10,,,,,
,,,,,415564,001,38,male,British,Professional degree,2024-11-07_15h05.33.381,CatSimMDS,2023.2.3,Win32,59.88023952,6321dd8071382720694df153,672bf50eac1463c2ad3c747f,672cd721781ace206e7cd88e,,,,,,,,,,,391.9826,1.2,393.1824,393.1824,395.6369,5.817142857,2.4539,0,5,5,25,1,9_to_16,images/Ex12.jpg,images/Ex14.jpg,Ex12,Ex14,,,,,
,,,,,415564,001,38,male,British,Professional degree,2024-11-07_15h05.33.381,CatSimMDS,2023.2.3,Win32,59.88023952,6321dd8071382720694df153,672bf50eac1463c2ad3c747f,672cd721781ace206e7cd88e,,,,,,,,,,,395.637,1.4,397.0383,397.0384,404.1492,6.297142857,7.0978,0,6,6,53,1,9_to_16,images/Ex16.jpg,images/Ex13.jpg,Ex16,Ex13,,,,,
,,,,,415564,001,38,male,British,Professional degree,2024-11-07_15h05.33.381,CatSimMDS,2023.2.3,Win32,59.88023952,6321dd8071382720694df153,672bf50eac1463c2ad3c747f,672cd721781ace206e7cd88e,,,,,,,,,,,404.1494,1.1,405.255,405.255,407.2262,1.128571429,1.9707,0,7,7,33,1,9_to_16,images/Ex13.jpg,images/Ex15.jpg,Ex13,Ex15,,,,,
,,,,,415564,001,38,male,British,Professional degree,2024-11-07_15h05.33.381,CatSimMDS,2023.2.3,Win32,59.88023952,6321dd8071382720694df153,672bf50eac1463c2ad3c747f,672cd721781ace206e7cd88e,,,,,,,,,,,407.2264,1.4,408.6158,408.6159,410.2308,7.882857143,1.6142,0,8,8,2,1,9_to_16,images/Ex9.jpg,images/Ex12.jpg,Ex9,Ex12,,,,,
,,,,,415564,001,38,male,British,Professional degree,2024-11-07_15h05.33.381,CatSimMDS,2023.2.3,Win32,59.88023952,6321dd8071382720694df153,672bf50eac1463c2ad3c747f,672cd721781ace206e7cd88e,,,,,,,,,,,410.2309,0.8,411.033,411.033,412.6702,7.994285714,1.6365,0,9,9,3,1,9_to_16,images/Ex9.jpg,images/Ex13.jpg,Ex9,Ex13,,,,,
,,,,,415564,001,38,male,British,Professional degree,2024-11-07_15h05.33.381,CatSimMDS,2023.2.3,Win32,59.88023952,6321dd8071382720694df153,672bf50eac1463c2ad3c747f,672cd721781ace206e7cd88e,,,,,,,,,,,412.6702,0.6,413.2703,413.2703,416.6785,6.674285714,3.4075,0,10,10,11,1,9_to_16,images/Ex10.jpg,images/Ex14.jpg,Ex10,Ex14,,,,,
,,,,,415564,001,38,male,British,Professional degree,2024-11-07_15h05.33.381,CatSimMDS,2023.2.3,Win32,59.88023952,6321dd8071382720694df153,672bf50eac1463c2ad3c747f,672cd721781ace206e7cd88e,,,,,,,,,,,416.6786,0.9,417.5783,417.5783,421.2492,1.668571429,3.6677,0,11,11,47,1,9_to_16,images/Ex15.jpg,images/Ex14.jpg,Ex15,Ex14,,,,,
,,,,,415564,001,38,male,British,Professional degree,2024-11-07_15h05.33.381,CatSimMDS,2023.2.3,Win32,59.88023952,6321dd8071382720694df153,672bf50eac1463c2ad3c747f,672cd721781ace206e7cd88e,,,,,,,,,,,421.2494,1.5,422.7492,422.7492,425.6441,1.257142857,2.8944,0,12,12,8,1,9_to_16,images/Ex10.jpg,images/Ex11.jpg,Ex10,Ex11,,,,,
,,,,,415564,001,38,male,British,Professional degree,2024-11-07_15h05.33.381,CatSimMDS,2023.2.3,Win32,59.88023952,6321dd8071382720694df153,672bf50eac1463c2ad3c747f,672cd721781ace206e7cd88e,,,,,,,,,,,425.6442,0.8,426.4326,426.4326,428.2503,6.648571429,1.8171,0,13,13,49,1,9_to_16,images/Ex16.jpg,images/Ex9.jpg,Ex16,Ex9,,,,,
,,,,,415564,001,38,male,British,Professional degree,2024-11-07_15h05.33.381,CatSimMDS,2023.2.3,Win32,59.88023952,6321dd8071382720694df153,672bf50eac1463c2ad3c747f,672cd721781ace206e7cd88e,,,,,,,,,,,428.2503,1.1,429.3518,429.3518,431.5902,2.928571429,2.2379,0,14,14,20,1,9_to_16,images/Ex11.jpg,images/Ex16.jpg,Ex11,Ex16,,,,,
,,,,,415564,001,38,male,British,Professional degree,2024-11-07_15h05.33.381,CatSimMDS,2023.2.3,Win32,59.88023952,6321dd8071382720694df153,672bf50eac1463c2ad3c747f,672cd721781ace206e7cd88e,,,,,,,,,,,431.5903,1,432.5911,432.5912,437.8327,7.565714286,5.2327,0,15,15,19,1,9_to_16,images/Ex11.jpg,images/Ex15.jpg,Ex11,Ex15,,,,,
,,,,,415564,001,38,male,British,Professional degree,2024-11-07_15h05.33.381,CatSimMDS,2023.2.3,Win32,59.88023952,6321dd8071382720694df153,672bf50eac1463c2ad3c747f,672cd721781ace206e7cd88e,,,,,,,,,,,437.8329,0.9,438.737,438.737,440.4064,5.388571429,1.6688,0,16,16,22,1,9_to_16,images/Ex12.jpg,images/Ex10.jpg,Ex12,Ex10,,,,,
,,,,,415564,001,38,male,British,Professional degree,2024-11-07_15h05.33.381,CatSimMDS,2023.2.3,Win32,59.88023952,6321dd8071382720694df153,672bf50eac1463c2ad3c747f,672cd721781ace206e7cd88e,,,,,,,,,,,440.4065,1.1,441.4993,441.4993,443.095,5.517142857,1.5951,0,17,17,21,1,9_to_16,images/Ex12.jpg,images/Ex9.jpg,Ex12,Ex9,,,,,
,,,,,415564,001,38,male,British,Professional degree,2024-11-07_15h05.33.381,CatSimMDS,2023.2.3,Win32,59.88023952,6321dd8071382720694df153,672bf50eac1463c2ad3c747f,672cd721781ace206e7cd88e,,,,,,,,,,,443.0951,0.9,443.997,443.997,445.8828,3.665714286,1.8729,0,18,18,29,1,9_to_16,images/Ex13.jpg,images/Ex10.jpg,Ex13,Ex10,,,,,
,,,,,415564,001,38,male,British,Professional degree,2024-11-07_15h05.33.381,CatSimMDS,2023.2.3,Win32,59.88023952,6321dd8071382720694df153,672bf50eac1463c2ad3c747f,672cd721781ace206e7cd88e,,,,,,,,,,,445.8829,0.8,446.6708,446.6708,448.5661,8.028571429,1.8855,0,19,19,44,1,9_to_16,images/Ex15.jpg,images/Ex11.jpg,Ex15,Ex11,,,,,
,,,,,415564,001,38,male,British,Professional degree,2024-11-07_15h05.33.381,CatSimMDS,2023.2.3,Win32,59.88023952,6321dd8071382720694df153,672bf50eac1463c2ad3c747f,672cd721781ace206e7cd88e,,,,,,,,,,,448.5663,0.6,449.1575,449.1575,450.7446,3.134285714,1.5864,0,20,20,54,1,9_to_16,images/Ex16.jpg,images/Ex14.jpg,Ex16,Ex14,,,,,
,,,,,415564,001,38,male,British,Professional degree,2024-11-07_15h05.33.381,CatSimMDS,2023.2.3,Win32,59.88023952,6321dd8071382720694df153,672bf50eac1463c2ad3c747f,672cd721781ace206e7cd88e,,,,,,,,,,,450.7446,0.7,451.4449,451.4449,452.9821,1.942857143,1.5368,0,21,21,5,1,9_to_16,images/Ex9.jpg,images/Ex15.jpg,Ex9,Ex15,,,,,
,,,,,415564,001,38,male,British,Professional degree,2024-11-07_15h05.33.381,CatSimMDS,2023.2.3,Win32,59.88023952,6321dd8071382720694df153,672bf50eac1463c2ad3c747f,672cd721781ace206e7cd88e,,,,,,,,,,,452.9822,0.7,453.6827,453.6827,455.2996,1.72,1.603,0,22,22,14,1,9_to_16,images/Ex11.jpg,images/Ex9.jpg,Ex11,Ex9,,,,,
,,,,,415564,001,38,male,British,Professional degree,2024-11-07_15h05.33.381,CatSimMDS,2023.2.3,Win32,59.88023952,6321dd8071382720694df153,672bf50eac1463c2ad3c747f,672cd721781ace206e7cd88e,,,,,,,,,,,455.2996,1.1,456.3883,456.3883,458.1926,2.962857143,1.8037,0,23,23,0,1,9_to_16,images/Ex9.jpg,images/Ex10.jpg,Ex9,Ex10,,,,,
,,,,,415564,001,38,male,British,Professional degree,2024-11-07_15h05.33.381,CatSimMDS,2023.2.3,Win32,59.88023952,6321dd8071382720694df153,672bf50eac1463c2ad3c747f,672cd721781ace206e7cd88e,,,,,,,,,,,458.1928,1.4,459.5828,459.5828,463.0855,2.422857143,3.502,0,24,24,31,1,9_to_16,images/Ex13.jpg,images/Ex12.jpg,Ex13,Ex12,,,,,
,,,,,415564,001,38,male,British,Professional degree,2024-11-07_15h05.33.381,CatSimMDS,2023.2.3,Win32,59.88023952,6321dd8071382720694df153,672bf50eac1463c2ad3c747f,672cd721781ace206e7cd88e,,,,,,,,,,,463.0856,1.5,464.5868,464.5868,466.3248,5.105714286,1.7374,0,25,25,39,1,9_to_16,images/Ex14.jpg,images/Ex13.jpg,Ex14,Ex13,,,,,
,,,,,415564,001,38,male,British,Professional degree,2024-11-07_15h05.33.381,CatSimMDS,2023.2.3,Win32,59.88023952,6321dd8071382720694df153,672bf50eac1463c2ad3c747f,672cd721781ace206e7cd88e,,,,,,,,,,,466.3249,0.7,467.0252,467.0252,468.646,5.602857143,1.6204,0,26,26,16,1,9_to_16,images/Ex11.jpg,images/Ex12.jpg,Ex11,Ex12,,,,,
,,,,,415564,001,38,male,British,Professional degree,2024-11-07_15h05.33.381,CatSimMDS,2023.2.3,Win32,59.88023952,6321dd8071382720694df153,672bf50eac1463c2ad3c747f,672cd721781ace206e7cd88e,,,,,,,,,,,468.6462,0.9,469.5469,469.5469,472.3663,6.382857143,2.8078,0,27,27,34,1,9_to_16,images/Ex13.jpg,images/Ex16.jpg,Ex13,Ex16,,,,,
,,,,,415564,001,38,male,British,Professional degree,2024-11-07_15h05.33.381,CatSimMDS,2023.2.3,Win32,59.88023952,6321dd8071382720694df153,672bf50eac1463c2ad3c747f,672cd721781ace206e7cd88e,,,,,,,,,,,472.3665,1,473.3713,473.3713,475.7921,2.954285714,2.4203,0,28,28,7,1,9_to_16,images/Ex10.jpg,images/Ex9.jpg,Ex10,Ex9,,,,,
,,,,,415564,001,38,male,British,Professional degree,2024-11-07_15h05.33.381,CatSimMDS,2023.2.3,Win32,59.88023952,6321dd8071382720694df153,672bf50eac1463c2ad3c747f,672cd721781ace206e7cd88e,,,,,,,,,,,475.7922,0.9,476.6829,476.6829,478.6144,1.042857143,1.9309,0,29,29,46,1,9_to_16,images/Ex15.jpg,images/Ex13.jpg,Ex15,Ex13,,,,,
,,,,,415564,001,38,male,British,Professional degree,2024-11-07_15h05.33.381,CatSimMDS,2023.2.3,Win32,59.88023952,6321dd8071382720694df153,672bf50eac1463c2ad3c747f,672cd721781ace206e7cd88e,,,,,,,,,,,478.6145,1.3,479.9171,479.9171,481.8831,3.357142857,1.9648,0,30,30,26,1,9_to_16,images/Ex12.jpg,images/Ex15.jpg,Ex12,Ex15,,,,,
,,,,,415564,001,38,male,British,Professional degree,2024-11-07_15h05.33.381,CatSimMDS,2023.2.3,Win32,59.88023952,6321dd8071382720694df153,672bf50eac1463c2ad3c747f,672cd721781ace206e7cd88e,,,,,,,,,,,481.8832,0.8,482.6829,482.6829,484.5102,2.928571429,1.8266,0,31,31,32,1,9_to_16,images/Ex13.jpg,images/Ex14.jpg,Ex13,Ex14,,,,,
,,,,,415564,001,38,male,British,Professional degree,2024-11-07_15h05.33.381,CatSimMDS,2023.2.3,Win32,59.88023952,6321dd8071382720694df153,672bf50eac1463c2ad3c747f,672cd721781ace206e7cd88e,,,,,,,,,,,484.5103,1.1,485.6116,485.6116,487.2493,5.671428571,1.6371,0,32,32,52,1,9_to_16,images/Ex16.jpg,images/Ex12.jpg,Ex16,Ex12,,,,,
,,,,,415564,001,38,male,British,Professional degree,2024-11-07_15h05.33.381,CatSimMDS,2023.2.3,Win32,59.88023952,6321dd8071382720694df153,672bf50eac1463c2ad3c747f,672cd721781ace206e7cd88e,,,,,,,,,,,487.2494,1.3,488.5504,488.5504,490.4389,3.845714286,1.8881,0,33,33,15,1,9_to_16,images/Ex11.jpg,images/Ex10.jpg,Ex11,Ex10,,,,,
,,,,,415564,001,38,male,British,Professional degree,2024-11-07_15h05.33.381,CatSimMDS,2023.2.3,Win32,59.88023952,6321dd8071382720694df153,672bf50eac1463c2ad3c747f,672cd721781ace206e7cd88e,,,,,,,,,,,490.439,0.7,491.1388,491.1389,492.7264,3.502857143,1.587,0,34,34,37,1,9_to_16,images/Ex14.jpg,images/Ex11.jpg,Ex14,Ex11,,,,,
,,,,,415564,001,38,male,British,Professional degree,2024-11-07_15h05.33.381,CatSimMDS,2023.2.3,Win32,59.88023952,6321dd8071382720694df153,672bf50eac1463c2ad3c747f,672cd721781ace206e7cd88e,,,,,,,,,,,492.7265,0.7,493.4266,493.4266,495.0975,2.422857143,1.6704,0,35,35,41,1,9_to_16,images/Ex14.jpg,images/Ex16.jpg,Ex14,Ex16,,,,,
,,,,,415564,001,38,male,British,Professional degree,2024-11-07_15h05.33.381,CatSimMDS,2023.2.3,Win32,59.88023952,6321dd8071382720694df153,672bf50eac1463c2ad3c747f,672cd721781ace206e7cd88e,,,,,,,,,,,495.0976,1.4,496.4993,496.4993,500.1164,1.882857143,3.6076,0,36,36,51,1,9_to_16,images/Ex16.jpg,images/Ex11.jpg,Ex16,Ex11,,,,,
,,,,,415564,001,38,male,British,Professional degree,2024-11-07_15h05.33.381,CatSimMDS,2023.2.3,Win32,59.88023952,6321dd8071382720694df153,672bf50eac1463c2ad3c747f,672cd721781ace206e7cd88e,,,,,,,,,,,500.1165,1.2,501.3092,501.3092,502.9294,5.002857143,1.6196,0,37,37,28,1,9_to_16,images/Ex13.jpg,images/Ex9.jpg,Ex13,Ex9,,,,,
,,,,,415564,001,38,male,British,Professional degree,2024-11-07_15h05.33.381,CatSimMDS,2023.2.3,Win32,59.88023952,6321dd8071382720694df153,672bf50eac1463c2ad3c747f,672cd721781ace206e7cd88e,,,,,,,,,,,502.9295,0.8,503.7303,503.7303,505.368,5.414285714,1.6372,0,38,38,24,1,9_to_16,images/Ex12.jpg,images/Ex13.jpg,Ex12,Ex13,,,,,
,,,,,415564,001,38,male,British,Professional degree,2024-11-07_15h05.33.381,CatSimMDS,2023.2.3,Win32,59.88023952,6321dd8071382720694df153,672bf50eac1463c2ad3c747f,672cd721781ace206e7cd88e,,,,,,,,,,,505.3681,1.5,506.8664,506.8664,509.6096,2.962857143,2.7427,0,39,39,43,1,9_to_16,images/Ex15.jpg,images/Ex10.jpg,Ex15,Ex10,,,,,
,,,,,415564,001,38,male,British,Professional degree,2024-11-07_15h05.33.381,CatSimMDS,2023.2.3,Win32,59.88023952,6321dd8071382720694df153,672bf50eac1463c2ad3c747f,672cd721781ace206e7cd88e,,,,,,,,,,,509.6097,1.1,510.6997,510.6998,512.8658,3.297142857,2.1654,0,40,40,23,1,9_to_16,images/Ex12.jpg,images/Ex11.jpg,Ex12,Ex11,,,,,
,,,,,415564,001,38,male,British,Professional degree,2024-11-07_15h05.33.381,CatSimMDS,2023.2.3,Win32,59.88023952,6321dd8071382720694df153,672bf50eac1463c2ad3c747f,672cd721781ace206e7cd88e,,,,,,,,,,,512.8658,0.6,513.4665,513.4665,515.4211,4.162857143,1.9542,0,41,41,10,1,9_to_16,images/Ex10.jpg,images/Ex13.jpg,Ex10,Ex13,,,,,
,,,,,415564,001,38,male,British,Professional degree,2024-11-07_15h05.33.381,CatSimMDS,2023.2.3,Win32,59.88023952,6321dd8071382720694df153,672bf50eac1463c2ad3c747f,672cd721781ace206e7cd88e,,,,,,,,,,,515.4212,0.9,516.3219,516.322,518.4769,2.26,2.1546,0,42,42,45,1,9_to_16,images/Ex15.jpg,images/Ex12.jpg,Ex15,Ex12,,,,,
,,,,,415564,001,38,male,British,Professional degree,2024-11-07_15h05.33.381,CatSimMDS,2023.2.3,Win32,59.88023952,6321dd8071382720694df153,672bf50eac1463c2ad3c747f,672cd721781ace206e7cd88e,,,,,,,,,,,518.477,1,519.4665,519.4665,521.3498,3.005714286,1.8816,0,43,43,40,1,9_to_16,images/Ex14.jpg,images/Ex15.jpg,Ex14,Ex15,,,,,
,,,,,415564,001,38,male,British,Professional degree,2024-11-07_15h05.33.381,CatSimMDS,2023.2.3,Win32,59.88023952,6321dd8071382720694df153,672bf50eac1463c2ad3c747f,672cd721781ace206e7cd88e,,,,,,,,,,,521.3499,1.4,522.7506,522.7506,524.856,4.094285714,2.1048,0,44,44,1,1,9_to_16,images/Ex9.jpg,images/Ex11.jpg,Ex9,Ex11,,,,,
,,,,,415564,001,38,male,British,Professional degree,2024-11-07_15h05.33.381,CatSimMDS,2023.2.3,Win32,59.88023952,6321dd8071382720694df153,672bf50eac1463c2ad3c747f,672cd721781ace206e7cd88e,,,,,,,,,,,524.8562,0.6,525.4564,525.4564,529.6989,5.337142857,4.242,0,45,45,9,1,9_to_16,images/Ex10.jpg,images/Ex12.jpg,Ex10,Ex12,,,,,
,,,,,415564,001,38,male,British,Professional degree,2024-11-07_15h05.33.381,CatSimMDS,2023.2.3,Win32,59.88023952,6321dd8071382720694df153,672bf50eac1463c2ad3c747f,672cd721781ace206e7cd88e,,,,,,,,,,,529.699,0.6,530.2988,530.2988,532.3666,4.051428571,2.0619,0,46,46,4,1,9_to_16,images/Ex9.jpg,images/Ex14.jpg,Ex9,Ex14,,,,,
,,,,,415564,001,38,male,British,Professional degree,2024-11-07_15h05.33.381,CatSimMDS,2023.2.3,Win32,59.88023952,6321dd8071382720694df153,672bf50eac1463c2ad3c747f,672cd721781ace206e7cd88e,,,,,,,,,,,532.3667,1.3,533.6557,533.6557,535.36,2.577142857,1.7037,0,47,47,13,1,9_to_16,images/Ex10.jpg,images/Ex16.jpg,Ex10,Ex16,,,,,
,,,,,415564,001,38,male,British,Professional degree,2024-11-07_15h05.33.381,CatSimMDS,2023.2.3,Win32,59.88023952,6321dd8071382720694df153,672bf50eac1463c2ad3c747f,672cd721781ace206e7cd88e,,,,,,,,,,,535.3601,1.1,536.4498,536.4499,538.1317,8.431428571,1.6813,0,48,48,36,1,9_to_16,images/Ex14.jpg,images/Ex10.jpg,Ex14,Ex10,,,,,
,,,,,415564,001,38,male,British,Professional degree,2024-11-07_15h05.33.381,CatSimMDS,2023.2.3,Win32,59.88023952,6321dd8071382720694df153,672bf50eac1463c2ad3c747f,672cd721781ace206e7cd88e,,,,,,,,,,,538.1319,0.9,539.0325,539.0326,540.8693,3.777142857,1.8361,0,49,49,12,1,9_to_16,images/Ex10.jpg,images/Ex15.jpg,Ex10,Ex15,,,,,
,,,,,415564,001,38,male,British,Professional degree,2024-11-07_15h05.33.381,CatSimMDS,2023.2.3,Win32,59.88023952,6321dd8071382720694df153,672bf50eac1463c2ad3c747f,672cd721781ace206e7cd88e,,,,,,,,,,,540.8693,1,541.8717,541.8717,543.4167,5.397142857,1.5391,0,50,50,38,1,9_to_16,images/Ex14.jpg,images/Ex12.jpg,Ex14,Ex12,,,,,
,,,,,415564,001,38,male,British,Professional degree,2024-11-07_15h05.33.381,CatSimMDS,2023.2.3,Win32,59.88023952,6321dd8071382720694df153,672bf50eac1463c2ad3c747f,672cd721781ace206e7cd88e,,,,,,,,,,,543.417,0.6,544.0259,544.0259,546.2474,3.931428571,2.2208,0,51,51,18,1,9_to_16,images/Ex11.jpg,images/Ex14.jpg,Ex11,Ex14,,,,,
,,,,,415564,001,38,male,British,Professional degree,2024-11-07_15h05.33.381,CatSimMDS,2023.2.3,Win32,59.88023952,6321dd8071382720694df153,672bf50eac1463c2ad3c747f,672cd721781ace206e7cd88e,,,,,,,,,,,546.2475,1,547.2499,547.25,548.9366,1.394285714,1.6861,0,52,52,30,1,9_to_16,images/Ex13.jpg,images/Ex11.jpg,Ex13,Ex11,,,,,
,,,,,415564,001,38,male,British,Professional degree,2024-11-07_15h05.33.381,CatSimMDS,2023.2.3,Win32,59.88023952,6321dd8071382720694df153,672bf50eac1463c2ad3c747f,672cd721781ace206e7cd88e,,,,,,,,,,,548.9367,1.2,550.1333,550.1333,551.7248,1.24,1.5909,0,53,53,17,1,9_to_16,images/Ex11.jpg,images/Ex13.jpg,Ex11,Ex13,,,,,
,,,,,415564,001,38,male,British,Professional degree,2024-11-07_15h05.33.381,CatSimMDS,2023.2.3,Win32,59.88023952,6321dd8071382720694df153,672bf50eac1463c2ad3c747f,672cd721781ace206e7cd88e,,,,,,,,,,,551.725,0.6,552.3255,552.3256,554.7809,7.025714286,2.4549,0,54,54,6,1,9_to_16,images/Ex9.jpg,images/Ex16.jpg,Ex9,Ex16,,,,,
,,,,,415564,001,38,male,British,Professional degree,2024-11-07_15h05.33.381,CatSimMDS,2023.2.3,Win32,59.88023952,6321dd8071382720694df153,672bf50eac1463c2ad3c747f,672cd721781ace206e7cd88e,,,,,,,,,,,,,,,,,,,,,,,,,,,,554.7811,578.1254,space,23.3225,