infCons.started,infCons.stopped,resp_consent.keys,resp_consent.rt,resp_consent.duration,participant,session,Age?,Gender?,Nationality?,Highest Educational Degree?,date,expName,psychopyVersion,OS,frameRate,PROLIFIC_PID,STUDY_ID,SESSION_ID,instructions.started,instructions.stopped,resp_instructions.keys,resp_instructions.rt,resp_instructions.duration,nextTask.started,nextTask.stopped,ready_task.keys,ready_task.rt,ready_task.duration,fixation.started,ITI,fixation.stopped,stim.started,stim.stopped,slider.response,slider.rt,trials.thisRepN,trials.thisTrialN,trials.thisN,trials.thisIndex,trials.ran,task,exemplarLeft,exemplarRight,left,right,end.started,end.stopped,resp_end.keys,resp_end.rt,resp_end.duration
9.99999E-05,70.3843,space,70.3562,,538910,001,,,,,2024-11-07_15h04.25.631,CatSimMDS,2023.2.3,Win32,60.24096386,66257a414b2977d75dcbd625,672bf50eac1463c2ad3c747f,672cd6e93ac881c7d6586eeb,,,,,,,,,,,,,,,,,,,,,,,,,,,,,,,,
,,,,,538910,001,,,,,2024-11-07_15h04.25.631,CatSimMDS,2023.2.3,Win32,60.24096386,66257a414b2977d75dcbd625,672bf50eac1463c2ad3c747f,672cd6e93ac881c7d6586eeb,70.3846,94.2811,space,23.883,,,,,,,,,,,,,,,,,,,,,,,,,,,,
,,,,,538910,001,,,,,2024-11-07_15h04.25.631,CatSimMDS,2023.2.3,Win32,60.24096386,66257a414b2977d75dcbd625,672bf50eac1463c2ad3c747f,672cd6e93ac881c7d6586eeb,,,,,,94.2843,103.0966,space,8.7924,,103.1011,1,104.0965,104.0966,112.9454,2.506043007,8.8397,0,0,0,42,1,9_to_16,images/Ex15.jpg,images/Ex9.jpg,Ex15,Ex9,,,,,
,,,,,538910,001,,,,,2024-11-07_15h04.25.631,CatSimMDS,2023.2.3,Win32,60.24096386,66257a414b2977d75dcbd625,672bf50eac1463c2ad3c747f,672cd6e93ac881c7d6586eeb,,,,,,,,,,,112.9461,0.7,113.6448,113.6448,116.7283,2.506043007,3.0736,0,1,1,53,1,9_to_16,images/Ex16.jpg,images/Ex13.jpg,Ex16,Ex13,,,,,
,,,,,538910,001,,,,,2024-11-07_15h04.25.631,CatSimMDS,2023.2.3,Win32,60.24096386,66257a414b2977d75dcbd625,672bf50eac1463c2ad3c747f,672cd6e93ac881c7d6586eeb,,,,,,,,,,,116.7288,1.4,118.1278,118.1278,121.1107,2.526762906,2.9775,0,2,2,32,1,9_to_16,images/Ex13.jpg,images/Ex14.jpg,Ex13,Ex14,,,,,
,,,,,538910,001,,,,,2024-11-07_15h04.25.631,CatSimMDS,2023.2.3,Win32,60.24096386,66257a414b2977d75dcbd625,672bf50eac1463c2ad3c747f,672cd6e93ac881c7d6586eeb,,,,,,,,,,,121.1111,1.2,122.3103,122.3104,124.5102,4.194676417,2.189,0,3,3,23,1,9_to_16,images/Ex12.jpg,images/Ex11.jpg,Ex12,Ex11,,,,,
,,,,,538910,001,,,,,2024-11-07_15h04.25.631,CatSimMDS,2023.2.3,Win32,60.24096386,66257a414b2977d75dcbd625,672bf50eac1463c2ad3c747f,672cd6e93ac881c7d6586eeb,,,,,,,,,,,124.5105,1.2,125.7098,125.7098,127.5265,4.194676417,1.8102,0,4,4,35,1,9_to_16,images/Ex14.jpg,images/Ex9.jpg,Ex14,Ex9,,,,,
,,,,,538910,001,,,,,2024-11-07_15h04.25.631,CatSimMDS,2023.2.3,Win32,60.24096386,66257a414b2977d75dcbd625,672bf50eac1463c2ad3c747f,672cd6e93ac881c7d6586eeb,,,,,,,,,,,127.5269,0.6,128.126,128.126,130.5765,2.454244446,2.4402,0,5,5,36,1,9_to_16,images/Ex14.jpg,images/Ex10.jpg,Ex14,Ex10,,,,,
,,,,,538910,001,,,,,2024-11-07_15h04.25.631,CatSimMDS,2023.2.3,Win32,60.24096386,66257a414b2977d75dcbd625,672bf50eac1463c2ad3c747f,672cd6e93ac881c7d6586eeb,,,,,,,,,,,130.5771,1.5,132.0757,132.0758,134.625,4.557266345,2.5466,0,6,6,48,1,9_to_16,images/Ex15.jpg,images/Ex16.jpg,Ex15,Ex16,,,,,
,,,,,538910,001,,,,,2024-11-07_15h04.25.631,CatSimMDS,2023.2.3,Win32,60.24096386,66257a414b2977d75dcbd625,672bf50eac1463c2ad3c747f,672cd6e93ac881c7d6586eeb,,,,,,,,,,,134.6253,1.4,136.025,136.025,138.4746,6.131942288,2.4376,0,7,7,18,1,9_to_16,images/Ex11.jpg,images/Ex14.jpg,Ex11,Ex14,,,,,
,,,,,538910,001,,,,,2024-11-07_15h04.25.631,CatSimMDS,2023.2.3,Win32,60.24096386,66257a414b2977d75dcbd625,672bf50eac1463c2ad3c747f,672cd6e93ac881c7d6586eeb,,,,,,,,,,,138.475,0.6,139.0749,139.075,141.3916,4.308633094,2.3153,0,8,8,12,1,9_to_16,images/Ex10.jpg,images/Ex15.jpg,Ex10,Ex15,,,,,
,,,,,538910,001,,,,,2024-11-07_15h04.25.631,CatSimMDS,2023.2.3,Win32,60.24096386,66257a414b2977d75dcbd625,672bf50eac1463c2ad3c747f,672cd6e93ac881c7d6586eeb,,,,,,,,,,,141.3917,0.7,142.0909,142.0909,143.6409,4.308633094,1.5442,0,9,9,9,1,9_to_16,images/Ex10.jpg,images/Ex12.jpg,Ex10,Ex12,,,,,
,,,,,538910,001,,,,,2024-11-07_15h04.25.631,CatSimMDS,2023.2.3,Win32,60.24096386,66257a414b2977d75dcbd625,672bf50eac1463c2ad3c747f,672cd6e93ac881c7d6586eeb,,,,,,,,,,,143.6413,1.1,144.7403,144.7404,146.9902,4.868057712,2.2393,0,10,10,26,1,9_to_16,images/Ex12.jpg,images/Ex15.jpg,Ex12,Ex15,,,,,
,,,,,538910,001,,,,,2024-11-07_15h04.25.631,CatSimMDS,2023.2.3,Win32,60.24096386,66257a414b2977d75dcbd625,672bf50eac1463c2ad3c747f,672cd6e93ac881c7d6586eeb,,,,,,,,,,,146.9904,0.6,147.5904,147.5904,149.4569,2.485323899,1.8536,0,11,11,11,1,9_to_16,images/Ex10.jpg,images/Ex14.jpg,Ex10,Ex14,,,,,
,,,,,538910,001,,,,,2024-11-07_15h04.25.631,CatSimMDS,2023.2.3,Win32,60.24096386,66257a414b2977d75dcbd625,672bf50eac1463c2ad3c747f,672cd6e93ac881c7d6586eeb,,,,,,,,,,,149.4572,1,150.4567,150.4567,152.9061,4.277554431,2.4365,0,12,12,33,1,9_to_16,images/Ex13.jpg,images/Ex15.jpg,Ex13,Ex15,,,,,
,,,,,538910,001,,,,,2024-11-07_15h04.25.631,CatSimMDS,2023.2.3,Win32,60.24096386,66257a414b2977d75dcbd625,672bf50eac1463c2ad3c747f,672cd6e93ac881c7d6586eeb,,,,,,,,,,,152.9065,0.6,153.506,153.506,158.2559,4.836978259,4.745,0,13,13,52,1,9_to_16,images/Ex16.jpg,images/Ex12.jpg,Ex16,Ex12,,,,,
,,,,,538910,001,,,,,2024-11-07_15h04.25.631,CatSimMDS,2023.2.3,Win32,60.24096386,66257a414b2977d75dcbd625,672bf50eac1463c2ad3c747f,672cd6e93ac881c7d6586eeb,,,,,,,,,,,158.2565,1.5,159.7557,159.7557,163.5548,2.329928216,3.7911,0,14,14,39,1,9_to_16,images/Ex14.jpg,images/Ex13.jpg,Ex14,Ex13,,,,,
,,,,,538910,001,,,,,2024-11-07_15h04.25.631,CatSimMDS,2023.2.3,Win32,60.24096386,66257a414b2977d75dcbd625,672bf50eac1463c2ad3c747f,672cd6e93ac881c7d6586eeb,,,,,,,,,,,163.5551,0.8,164.3549,164.355,167.4542,3.676690806,3.0942,0,15,15,45,1,9_to_16,images/Ex15.jpg,images/Ex12.jpg,Ex15,Ex12,,,,,
,,,,,538910,001,,,,,2024-11-07_15h04.25.631,CatSimMDS,2023.2.3,Win32,60.24096386,66257a414b2977d75dcbd625,672bf50eac1463c2ad3c747f,672cd6e93ac881c7d6586eeb,,,,,,,,,,,167.4547,0.5,167.9543,167.9543,170.7876,1.19035987,2.8252,0,16,16,5,1,9_to_16,images/Ex9.jpg,images/Ex15.jpg,Ex9,Ex15,,,,,
,,,,,538910,001,,,,,2024-11-07_15h04.25.631,CatSimMDS,2023.2.3,Win32,60.24096386,66257a414b2977d75dcbd625,672bf50eac1463c2ad3c747f,672cd6e93ac881c7d6586eeb,,,,,,,,,,,170.788,0.9,171.6873,171.6873,175.5033,2.775396158,3.8022,0,17,17,4,1,9_to_16,images/Ex9.jpg,images/Ex14.jpg,Ex9,Ex14,,,,,
,,,,,538910,001,,,,,2024-11-07_15h04.25.631,CatSimMDS,2023.2.3,Win32,60.24096386,66257a414b2977d75dcbd625,672bf50eac1463c2ad3c747f,672cd6e93ac881c7d6586eeb,,,,,,,,,,,175.5038,1.4,176.9035,176.9035,179.5025,5.095971065,2.5867,0,18,18,37,1,9_to_16,images/Ex14.jpg,images/Ex11.jpg,Ex14,Ex11,,,,,
,,,,,538910,001,,,,,2024-11-07_15h04.25.631,CatSimMDS,2023.2.3,Win32,60.24096386,66257a414b2977d75dcbd625,672bf50eac1463c2ad3c747f,672cd6e93ac881c7d6586eeb,,,,,,,,,,,179.5028,0.8,180.3031,180.3032,182.1523,2.298848763,1.8462,0,19,19,3,1,9_to_16,images/Ex9.jpg,images/Ex13.jpg,Ex9,Ex13,,,,,
,,,,,538910,001,,,,,2024-11-07_15h04.25.631,CatSimMDS,2023.2.3,Win32,60.24096386,66257a414b2977d75dcbd625,672bf50eac1463c2ad3c747f,672cd6e93ac881c7d6586eeb,,,,,,,,,,,182.1526,0.6,182.7525,182.7525,184.5522,2.298848763,1.7878,0,20,20,41,1,9_to_16,images/Ex14.jpg,images/Ex16.jpg,Ex14,Ex16,,,,,
,,,,,538910,001,,,,,2024-11-07_15h04.25.631,CatSimMDS,2023.2.3,Win32,60.24096386,66257a414b2977d75dcbd625,672bf50eac1463c2ad3c747f,672cd6e93ac881c7d6586eeb,,,,,,,,,,,184.5527,1,185.5521,185.5522,187.7353,1.231798482,2.1706,0,21,21,8,1,9_to_16,images/Ex10.jpg,images/Ex11.jpg,Ex10,Ex11,,,,,
,,,,,538910,001,,,,,2024-11-07_15h04.25.631,CatSimMDS,2023.2.3,Win32,60.24096386,66257a414b2977d75dcbd625,672bf50eac1463c2ad3c747f,672cd6e93ac881c7d6586eeb,,,,,,,,,,,187.7357,1.1,188.8351,188.8351,190.3842,1.231798482,1.5474,0,22,22,47,1,9_to_16,images/Ex15.jpg,images/Ex14.jpg,Ex15,Ex14,,,,,
,,,,,538910,001,,,,,2024-11-07_15h04.25.631,CatSimMDS,2023.2.3,Win32,60.24096386,66257a414b2977d75dcbd625,672bf50eac1463c2ad3c747f,672cd6e93ac881c7d6586eeb,,,,,,,,,,,190.3846,0.8,191.1846,191.1848,193.3181,3.34518033,2.1232,0,23,23,24,1,9_to_16,images/Ex12.jpg,images/Ex13.jpg,Ex12,Ex13,,,,,
,,,,,538910,001,,,,,2024-11-07_15h04.25.631,CatSimMDS,2023.2.3,Win32,60.24096386,66257a414b2977d75dcbd625,672bf50eac1463c2ad3c747f,672cd6e93ac881c7d6586eeb,,,,,,,,,,,193.3183,0.9,194.2179,194.2179,195.8506,2.029496403,1.6198,0,24,24,0,1,9_to_16,images/Ex9.jpg,images/Ex10.jpg,Ex9,Ex10,,,,,
,,,,,538910,001,,,,,2024-11-07_15h04.25.631,CatSimMDS,2023.2.3,Win32,60.24096386,66257a414b2977d75dcbd625,672bf50eac1463c2ad3c747f,672cd6e93ac881c7d6586eeb,,,,,,,,,,,195.851,1.3,197.1501,197.1501,199.7171,3.065467626,2.5618,0,25,25,14,1,9_to_16,images/Ex11.jpg,images/Ex9.jpg,Ex11,Ex9,,,,,
,,,,,538910,001,,,,,2024-11-07_15h04.25.631,CatSimMDS,2023.2.3,Win32,60.24096386,66257a414b2977d75dcbd625,672bf50eac1463c2ad3c747f,672cd6e93ac881c7d6586eeb,,,,,,,,,,,199.7174,0.9,200.617,200.617,202.716,2.091654913,2.0966,0,26,26,20,1,9_to_16,images/Ex11.jpg,images/Ex16.jpg,Ex11,Ex16,,,,,
,,,,,538910,001,,,,,2024-11-07_15h04.25.631,CatSimMDS,2023.2.3,Win32,60.24096386,66257a414b2977d75dcbd625,672bf50eac1463c2ad3c747f,672cd6e93ac881c7d6586eeb,,,,,,,,,,,202.7162,1,203.7164,203.7164,207.3154,3.95640272,3.5972,0,27,27,19,1,9_to_16,images/Ex11.jpg,images/Ex15.jpg,Ex11,Ex15,,,,,
,,,,,538910,001,,,,,2024-11-07_15h04.25.631,CatSimMDS,2023.2.3,Win32,60.24096386,66257a414b2977d75dcbd625,672bf50eac1463c2ad3c747f,672cd6e93ac881c7d6586eeb,,,,,,,,,,,207.3157,0.7,208.0161,208.0162,210.0485,1.159280813,2.0286,0,28,28,13,1,9_to_16,images/Ex10.jpg,images/Ex16.jpg,Ex10,Ex16,,,,,
,,,,,538910,001,,,,,2024-11-07_15h04.25.631,CatSimMDS,2023.2.3,Win32,60.24096386,66257a414b2977d75dcbd625,672bf50eac1463c2ad3c747f,672cd6e93ac881c7d6586eeb,,,,,,,,,,,210.0487,1,211.0482,211.0483,213.5318,1.905179777,2.4781,0,29,29,29,1,9_to_16,images/Ex13.jpg,images/Ex10.jpg,Ex13,Ex10,,,,,
,,,,,538910,001,,,,,2024-11-07_15h04.25.631,CatSimMDS,2023.2.3,Win32,60.24096386,66257a414b2977d75dcbd625,672bf50eac1463c2ad3c747f,672cd6e93ac881c7d6586eeb,,,,,,,,,,,213.5321,1.1,214.6315,214.6316,216.6982,1.045323741,2.0525,0,30,30,28,1,9_to_16,images/Ex13.jpg,images/Ex9.jpg,Ex13,Ex9,,,,,
,,,,,538910,001,,,,,2024-11-07_15h04.25.631,CatSimMDS,2023.2.3,Win32,60.24096386,66257a414b2977d75dcbd625,672bf50eac1463c2ad3c747f,672cd6e93ac881c7d6586eeb,,,,,,,,,,,216.6985,1.1,217.7979,217.7979,219.5644,1.252517986,1.7527,0,31,31,7,1,9_to_16,images/Ex10.jpg,images/Ex9.jpg,Ex10,Ex9,,,,,
,,,,,538910,001,,,,,2024-11-07_15h04.25.631,CatSimMDS,2023.2.3,Win32,60.24096386,66257a414b2977d75dcbd625,672bf50eac1463c2ad3c747f,672cd6e93ac881c7d6586eeb,,,,,,,,,,,219.5648,0.9,220.4643,220.4643,223.5634,4.236115424,3.09,0,32,32,38,1,9_to_16,images/Ex14.jpg,images/Ex12.jpg,Ex14,Ex12,,,,,
,,,,,538910,001,,,,,2024-11-07_15h04.25.631,CatSimMDS,2023.2.3,Win32,60.24096386,66257a414b2977d75dcbd625,672bf50eac1463c2ad3c747f,672cd6e93ac881c7d6586eeb,,,,,,,,,,,223.5638,0.6,224.1639,224.164,226.5302,1.034964187,2.3606,0,33,33,15,1,9_to_16,images/Ex11.jpg,images/Ex10.jpg,Ex11,Ex10,,,,,
,,,,,538910,001,,,,,2024-11-07_15h04.25.631,CatSimMDS,2023.2.3,Win32,60.24096386,66257a414b2977d75dcbd625,672bf50eac1463c2ad3c747f,672cd6e93ac881c7d6586eeb,,,,,,,,,,,226.5305,0.6,227.13,227.1301,229.4796,5.365324215,2.3369,0,34,34,16,1,9_to_16,images/Ex11.jpg,images/Ex12.jpg,Ex11,Ex12,,,,,
,,,,,538910,001,,,,,2024-11-07_15h04.25.631,CatSimMDS,2023.2.3,Win32,60.24096386,66257a414b2977d75dcbd625,672bf50eac1463c2ad3c747f,672cd6e93ac881c7d6586eeb,,,,,,,,,,,229.48,0.5,229.9792,229.9793,232.6621,2.029496403,2.6698,0,35,35,43,1,9_to_16,images/Ex15.jpg,images/Ex10.jpg,Ex15,Ex10,,,,,
,,,,,538910,001,,,,,2024-11-07_15h04.25.631,CatSimMDS,2023.2.3,Win32,60.24096386,66257a414b2977d75dcbd625,672bf50eac1463c2ad3c747f,672cd6e93ac881c7d6586eeb,,,,,,,,,,,232.6623,0.9,233.5619,233.562,236.7784,2.112374022,3.2039,0,36,36,2,1,9_to_16,images/Ex9.jpg,images/Ex12.jpg,Ex9,Ex12,,,,,
,,,,,538910,001,,,,,2024-11-07_15h04.25.631,CatSimMDS,2023.2.3,Win32,60.24096386,66257a414b2977d75dcbd625,672bf50eac1463c2ad3c747f,672cd6e93ac881c7d6586eeb,,,,,,,,,,,236.7789,0.9,237.679,237.679,240.4613,5.168489525,2.7747,0,37,37,25,1,9_to_16,images/Ex12.jpg,images/Ex14.jpg,Ex12,Ex14,,,,,
,,,,,538910,001,,,,,2024-11-07_15h04.25.631,CatSimMDS,2023.2.3,Win32,60.24096386,66257a414b2977d75dcbd625,672bf50eac1463c2ad3c747f,672cd6e93ac881c7d6586eeb,,,,,,,,,,,240.4617,0.7,241.161,241.161,243.328,1.739424539,2.1628,0,38,38,34,1,9_to_16,images/Ex13.jpg,images/Ex16.jpg,Ex13,Ex16,,,,,
,,,,,538910,001,,,,,2024-11-07_15h04.25.631,CatSimMDS,2023.2.3,Win32,60.24096386,66257a414b2977d75dcbd625,672bf50eac1463c2ad3c747f,672cd6e93ac881c7d6586eeb,,,,,,,,,,,243.3284,0.7,244.0273,244.0273,247.9275,3.169064748,3.8869,0,39,39,1,1,9_to_16,images/Ex9.jpg,images/Ex11.jpg,Ex9,Ex11,,,,,
,,,,,538910,001,,,,,2024-11-07_15h04.25.631,CatSimMDS,2023.2.3,Win32,60.24096386,66257a414b2977d75dcbd625,672bf50eac1463c2ad3c747f,672cd6e93ac881c7d6586eeb,,,,,,,,,,,247.9278,0.6,248.5268,248.5269,251.5932,1.221438928,3.0652,0,40,40,40,1,9_to_16,images/Ex14.jpg,images/Ex15.jpg,Ex14,Ex15,,,,,
,,,,,538910,001,,,,,2024-11-07_15h04.25.631,CatSimMDS,2023.2.3,Win32,60.24096386,66257a414b2977d75dcbd625,672bf50eac1463c2ad3c747f,672cd6e93ac881c7d6586eeb,,,,,,,,,,,251.5934,1.1,252.6929,252.6929,255.9257,4.412230216,3.2205,0,41,41,21,1,9_to_16,images/Ex12.jpg,images/Ex9.jpg,Ex12,Ex9,,,,,
,,,,,538910,001,,,,,2024-11-07_15h04.25.631,CatSimMDS,2023.2.3,Win32,60.24096386,66257a414b2977d75dcbd625,672bf50eac1463c2ad3c747f,672cd6e93ac881c7d6586eeb,,,,,,,,,,,255.926,1.5,257.4257,257.4258,259.9592,1.853381216,2.5283,0,42,42,17,1,9_to_16,images/Ex11.jpg,images/Ex13.jpg,Ex11,Ex13,,,,,
,,,,,538910,001,,,,,2024-11-07_15h04.25.631,CatSimMDS,2023.2.3,Win32,60.24096386,66257a414b2977d75dcbd625,672bf50eac1463c2ad3c747f,672cd6e93ac881c7d6586eeb,,,,,,,,,,,259.9597,1,260.9587,260.9588,262.6916,1.376834611,1.7309,0,43,43,30,1,9_to_16,images/Ex13.jpg,images/Ex11.jpg,Ex13,Ex11,,,,,
,,,,,538910,001,,,,,2024-11-07_15h04.25.631,CatSimMDS,2023.2.3,Win32,60.24096386,66257a414b2977d75dcbd625,672bf50eac1463c2ad3c747f,672cd6e93ac881c7d6586eeb,,,,,,,,,,,262.6919,0.9,263.5914,263.5914,266.6585,1.304316547,3.0637,0,44,44,50,1,9_to_16,images/Ex16.jpg,images/Ex10.jpg,Ex16,Ex10,,,,,
,,,,,538910,001,,,,,2024-11-07_15h04.25.631,CatSimMDS,2023.2.3,Win32,60.24096386,66257a414b2977d75dcbd625,672bf50eac1463c2ad3c747f,672cd6e93ac881c7d6586eeb,,,,,,,,,,,266.659,1,267.6581,267.6582,270.524,3.055108072,2.8546,0,45,45,46,1,9_to_16,images/Ex15.jpg,images/Ex13.jpg,Ex15,Ex13,,,,,
,,,,,538910,001,,,,,2024-11-07_15h04.25.631,CatSimMDS,2023.2.3,Win32,60.24096386,66257a414b2977d75dcbd625,672bf50eac1463c2ad3c747f,672cd6e93ac881c7d6586eeb,,,,,,,,,,,270.5243,1,271.524,271.5242,275.8731,3.055108072,4.3472,0,46,46,31,1,9_to_16,images/Ex13.jpg,images/Ex12.jpg,Ex13,Ex12,,,,,
,,,,,538910,001,,,,,2024-11-07_15h04.25.631,CatSimMDS,2023.2.3,Win32,60.24096386,66257a414b2977d75dcbd625,672bf50eac1463c2ad3c747f,672cd6e93ac881c7d6586eeb,,,,,,,,,,,275.8735,0.6,276.4735,276.4736,279.006,3.88388505,2.5297,0,47,47,54,1,9_to_16,images/Ex16.jpg,images/Ex14.jpg,Ex16,Ex14,,,,,
,,,,,538910,001,,,,,2024-11-07_15h04.25.631,CatSimMDS,2023.2.3,Win32,60.24096386,66257a414b2977d75dcbd625,672bf50eac1463c2ad3c747f,672cd6e93ac881c7d6586eeb,,,,,,,,,,,279.0062,1.1,280.1058,280.1059,282.6229,1.211079374,2.504,0,48,48,6,1,9_to_16,images/Ex9.jpg,images/Ex16.jpg,Ex9,Ex16,,,,,
,,,,,538910,001,,,,,2024-11-07_15h04.25.631,CatSimMDS,2023.2.3,Win32,60.24096386,66257a414b2977d75dcbd625,672bf50eac1463c2ad3c747f,672cd6e93ac881c7d6586eeb,,,,,,,,,,,282.6234,0.9,283.5228,283.5229,285.5055,1.211079374,1.9784,0,49,49,10,1,9_to_16,images/Ex10.jpg,images/Ex13.jpg,Ex10,Ex13,,,,,
,,,,,538910,001,,,,,2024-11-07_15h04.25.631,CatSimMDS,2023.2.3,Win32,60.24096386,66257a414b2977d75dcbd625,672bf50eac1463c2ad3c747f,672cd6e93ac881c7d6586eeb,,,,,,,,,,,285.5059,1.3,286.8058,286.8059,290.3382,5.147769626,3.5201,0,50,50,44,1,9_to_16,images/Ex15.jpg,images/Ex11.jpg,Ex15,Ex11,,,,,
,,,,,538910,001,,,,,2024-11-07_15h04.25.631,CatSimMDS,2023.2.3,Win32,60.24096386,66257a414b2977d75dcbd625,672bf50eac1463c2ad3c747f,672cd6e93ac881c7d6586eeb,,,,,,,,,,,290.3387,0.7,291.0385,291.0385,293.2883,1.45971223,2.2363,0,51,51,49,1,9_to_16,images/Ex16.jpg,images/Ex9.jpg,Ex16,Ex9,,,,,
,,,,,538910,001,,,,,2024-11-07_15h04.25.631,CatSimMDS,2023.2.3,Win32,60.24096386,66257a414b2977d75dcbd625,672bf50eac1463c2ad3c747f,672cd6e93ac881c7d6586eeb,,,,,,,,,,,293.2888,0.8,294.0876,294.0876,296.0877,1.552949798,1.987,0,52,52,22,1,9_to_16,images/Ex12.jpg,images/Ex10.jpg,Ex12,Ex10,,,,,
,,,,,538910,001,,,,,2024-11-07_15h04.25.631,CatSimMDS,2023.2.3,Win32,60.24096386,66257a414b2977d75dcbd625,672bf50eac1463c2ad3c747f,672cd6e93ac881c7d6586eeb,,,,,,,,,,,296.0881,0.9,296.9877,296.9877,300.3366,3.521295122,3.3457,0,53,53,51,1,9_to_16,images/Ex16.jpg,images/Ex11.jpg,Ex16,Ex11,,,,,
,,,,,538910,001,,,,,2024-11-07_15h04.25.631,CatSimMDS,2023.2.3,Win32,60.24096386,66257a414b2977d75dcbd625,672bf50eac1463c2ad3c747f,672cd6e93ac881c7d6586eeb,,,,,,,,,,,300.3369,1.1,301.4369,301.437,307.0527,3.251942762,5.6075,0,54,54,27,1,9_to_16,images/Ex12.jpg,images/Ex16.jpg,Ex12,Ex16,,,,,
,,,,,538910,001,,,,,2024-11-07_15h04.25.631,CatSimMDS,2023.2.3,Win32,60.24096386,66257a414b2977d75dcbd625,672bf50eac1463c2ad3c747f,672cd6e93ac881c7d6586eeb,,,,,,307.0531,311.369,space,4.3008,,311.3733,0.5,311.8688,311.8688,319.8846,3.469496561,8.0019,0,0,0,7,1,1_to_8,images/Ex2.jpg,images/Ex1.jpg,Ex2,Ex1,,,,,
,,,,,538910,001,,,,,2024-11-07_15h04.25.631,CatSimMDS,2023.2.3,Win32,60.24096386,66257a414b2977d75dcbd625,672bf50eac1463c2ad3c747f,672cd6e93ac881c7d6586eeb,,,,,,,,,,,319.885,0.9,320.7844,320.7844,324.5345,4.992373943,3.7379,0,1,1,40,1,1_to_8,images/Ex6.jpg,images/Ex7.jpg,Ex6,Ex7,,,,,
,,,,,538910,001,,,,,2024-11-07_15h04.25.631,CatSimMDS,2023.2.3,Win32,60.24096386,66257a414b2977d75dcbd625,672bf50eac1463c2ad3c747f,672cd6e93ac881c7d6586eeb,,,,,,,,,,,324.535,1.4,325.9335,325.9336,328.7498,5.624317021,2.8034,0,2,2,6,1,1_to_8,images/Ex1.jpg,images/Ex8.jpg,Ex1,Ex8,,,,,
,,,,,538910,001,,,,,2024-11-07_15h04.25.631,CatSimMDS,2023.2.3,Win32,60.24096386,66257a414b2977d75dcbd625,672bf50eac1463c2ad3c747f,672cd6e93ac881c7d6586eeb,,,,,,,,,,,328.7501,0.6,329.3499,329.3499,334.8156,5.147769626,5.4643,0,3,3,34,1,1_to_8,images/Ex5.jpg,images/Ex8.jpg,Ex5,Ex8,,,,,
,,,,,538910,001,,,,,2024-11-07_15h04.25.631,CatSimMDS,2023.2.3,Win32,60.24096386,66257a414b2977d75dcbd625,672bf50eac1463c2ad3c747f,672cd6e93ac881c7d6586eeb,,,,,,,,,,,334.8164,0.8,335.6157,335.6157,337.649,5.054532848,2.032,0,4,4,53,1,1_to_8,images/Ex8.jpg,images/Ex5.jpg,Ex8,Ex5,,,,,
,,,,,538910,001,,,,,2024-11-07_15h04.25.631,CatSimMDS,2023.2.3,Win32,60.24096386,66257a414b2977d75dcbd625,672bf50eac1463c2ad3c747f,672cd6e93ac881c7d6586eeb,,,,,,,,,,,337.6492,1.1,338.7486,338.7486,345.181,5.386043324,6.4193,0,5,5,46,1,1_to_8,images/Ex7.jpg,images/Ex5.jpg,Ex7,Ex5,,,,,
,,,,,538910,001,,,,,2024-11-07_15h04.25.631,CatSimMDS,2023.2.3,Win32,60.24096386,66257a414b2977d75dcbd625,672bf50eac1463c2ad3c747f,672cd6e93ac881c7d6586eeb,,,,,,,,,,,345.1812,0.6,345.7807,345.7807,348.9308,6.463453554,3.1371,0,6,6,18,1,1_to_8,images/Ex3.jpg,images/Ex6.jpg,Ex3,Ex6,,,,,
,,,,,538910,001,,,,,2024-11-07_15h04.25.631,CatSimMDS,2023.2.3,Win32,60.24096386,66257a414b2977d75dcbd625,672bf50eac1463c2ad3c747f,672cd6e93ac881c7d6586eeb,,,,,,,,,,,348.9312,1,349.9308,349.9309,352.6633,5.821150921,2.7225,0,7,7,14,1,1_to_8,images/Ex3.jpg,images/Ex1.jpg,Ex3,Ex1,,,,,
,,,,,538910,001,,,,,2024-11-07_15h04.25.631,CatSimMDS,2023.2.3,Win32,60.24096386,66257a414b2977d75dcbd625,672bf50eac1463c2ad3c747f,672cd6e93ac881c7d6586eeb,,,,,,,,,,,352.6638,0.9,353.5638,353.5638,355.9463,2.651079137,2.3769,0,8,8,12,1,1_to_8,images/Ex2.jpg,images/Ex7.jpg,Ex2,Ex7,,,,,
,,,,,538910,001,,,,,2024-11-07_15h04.25.631,CatSimMDS,2023.2.3,Win32,60.24096386,66257a414b2977d75dcbd625,672bf50eac1463c2ad3c747f,672cd6e93ac881c7d6586eeb,,,,,,,,,,,355.9468,1,356.9465,356.9465,359.2623,4.22575587,2.3133,0,9,9,21,1,1_to_8,images/Ex4.jpg,images/Ex1.jpg,Ex4,Ex1,,,,,
,,,,,538910,001,,,,,2024-11-07_15h04.25.631,CatSimMDS,2023.2.3,Win32,60.24096386,66257a414b2977d75dcbd625,672bf50eac1463c2ad3c747f,672cd6e93ac881c7d6586eeb,,,,,,,,,,,359.2625,0.6,359.8627,359.8627,361.8287,3.117266187,1.9621,0,10,10,2,1,1_to_8,images/Ex1.jpg,images/Ex4.jpg,Ex1,Ex4,,,,,
,,,,,538910,001,,,,,2024-11-07_15h04.25.631,CatSimMDS,2023.2.3,Win32,60.24096386,66257a414b2977d75dcbd625,672bf50eac1463c2ad3c747f,672cd6e93ac881c7d6586eeb,,,,,,,,,,,361.8291,0.6,362.4291,362.4292,366.1954,1.397554115,3.7529,0,11,11,9,1,1_to_8,images/Ex2.jpg,images/Ex4.jpg,Ex2,Ex4,,,,,
,,,,,538910,001,,,,,2024-11-07_15h04.25.631,CatSimMDS,2023.2.3,Win32,60.24096386,66257a414b2977d75dcbd625,672bf50eac1463c2ad3c747f,672cd6e93ac881c7d6586eeb,,,,,,,,,,,366.1957,0.6,366.7951,366.7951,370.8281,5.272086647,4.0214,0,12,12,37,1,1_to_8,images/Ex6.jpg,images/Ex3.jpg,Ex6,Ex3,,,,,
,,,,,538910,001,,,,,2024-11-07_15h04.25.631,CatSimMDS,2023.2.3,Win32,60.24096386,66257a414b2977d75dcbd625,672bf50eac1463c2ad3c747f,672cd6e93ac881c7d6586eeb,,,,,,,,,,,370.8284,1.1,371.9282,371.9283,376.9773,5.261727093,5.0357,0,13,13,30,1,1_to_8,images/Ex5.jpg,images/Ex3.jpg,Ex5,Ex3,,,,,
,,,,,538910,001,,,,,2024-11-07_15h04.25.631,CatSimMDS,2023.2.3,Win32,60.24096386,66257a414b2977d75dcbd625,672bf50eac1463c2ad3c747f,672cd6e93ac881c7d6586eeb,,,,,,,,,,,376.9777,0.9,377.877,377.8772,383.376,2.868632935,5.4906,0,14,14,13,1,1_to_8,images/Ex2.jpg,images/Ex8.jpg,Ex2,Ex8,,,,,
,,,,,538910,001,,,,,2024-11-07_15h04.25.631,CatSimMDS,2023.2.3,Win32,60.24096386,66257a414b2977d75dcbd625,672bf50eac1463c2ad3c747f,672cd6e93ac881c7d6586eeb,,,,,,,,,,,383.3763,0.8,384.1766,384.1766,386.4922,4.805899597,2.3146,0,15,15,35,1,1_to_8,images/Ex6.jpg,images/Ex1.jpg,Ex6,Ex1,,,,,
,,,,,538910,001,,,,,2024-11-07_15h04.25.631,CatSimMDS,2023.2.3,Win32,60.24096386,66257a414b2977d75dcbd625,672bf50eac1463c2ad3c747f,672cd6e93ac881c7d6586eeb,,,,,,,,,,,386.4925,0.6,387.092,387.092,390.3085,2.102014468,3.2115,0,16,16,50,1,1_to_8,images/Ex8.jpg,images/Ex2.jpg,Ex8,Ex2,,,,,
,,,,,538910,001,,,,,2024-11-07_15h04.25.631,CatSimMDS,2023.2.3,Win32,60.24096386,66257a414b2977d75dcbd625,672bf50eac1463c2ad3c747f,672cd6e93ac881c7d6586eeb,,,,,,,,,,,390.309,1.3,391.6082,391.6083,394.0584,5.935108388,2.4491,0,17,17,38,1,1_to_8,images/Ex6.jpg,images/Ex4.jpg,Ex6,Ex4,,,,,
,,,,,538910,001,,,,,2024-11-07_15h04.25.631,CatSimMDS,2023.2.3,Win32,60.24096386,66257a414b2977d75dcbd625,672bf50eac1463c2ad3c747f,672cd6e93ac881c7d6586eeb,,,,,,,,,,,394.0588,1.3,395.3582,395.3582,398.1907,5.23064764,2.8312,0,18,18,28,1,1_to_8,images/Ex5.jpg,images/Ex1.jpg,Ex5,Ex1,,,,,
,,,,,538910,001,,,,,2024-11-07_15h04.25.631,CatSimMDS,2023.2.3,Win32,60.24096386,66257a414b2977d75dcbd625,672bf50eac1463c2ad3c747f,672cd6e93ac881c7d6586eeb,,,,,,,,,,,398.1909,1.5,399.6907,399.6907,401.6568,5.935108388,1.9651,0,19,19,54,1,1_to_8,images/Ex8.jpg,images/Ex6.jpg,Ex8,Ex6,,,,,
,,,,,538910,001,,,,,2024-11-07_15h04.25.631,CatSimMDS,2023.2.3,Win32,60.24096386,66257a414b2977d75dcbd625,672bf50eac1463c2ad3c747f,672cd6e93ac881c7d6586eeb,,,,,,,,,,,401.657,1.3,402.9574,402.9574,407.8062,5.241007194,4.8429,0,20,20,47,1,1_to_8,images/Ex7.jpg,images/Ex6.jpg,Ex7,Ex6,,,,,
,,,,,538910,001,,,,,2024-11-07_15h04.25.631,CatSimMDS,2023.2.3,Win32,60.24096386,66257a414b2977d75dcbd625,672bf50eac1463c2ad3c747f,672cd6e93ac881c7d6586eeb,,,,,,,,,,,407.8064,1,408.8065,408.8066,410.7071,1.749784094,1.8992,0,21,21,0,1,1_to_8,images/Ex1.jpg,images/Ex2.jpg,Ex1,Ex2,,,,,
,,,,,538910,001,,,,,2024-11-07_15h04.25.631,CatSimMDS,2023.2.3,Win32,60.24096386,66257a414b2977d75dcbd625,672bf50eac1463c2ad3c747f,672cd6e93ac881c7d6586eeb,,,,,,,,,,,410.7075,1.3,412.0055,412.0055,415.8393,5.209928532,3.8248,0,22,22,52,1,1_to_8,images/Ex8.jpg,images/Ex4.jpg,Ex8,Ex4,,,,,
,,,,,538910,001,,,,,2024-11-07_15h04.25.631,CatSimMDS,2023.2.3,Win32,60.24096386,66257a414b2977d75dcbd625,672bf50eac1463c2ad3c747f,672cd6e93ac881c7d6586eeb,,,,,,,,,,,415.8396,1,416.839,416.839,419.238,4.660863467,2.3971,0,23,23,4,1,1_to_8,images/Ex1.jpg,images/Ex6.jpg,Ex1,Ex6,,,,,
,,,,,538910,001,,,,,2024-11-07_15h04.25.631,CatSimMDS,2023.2.3,Win32,60.24096386,66257a414b2977d75dcbd625,672bf50eac1463c2ad3c747f,672cd6e93ac881c7d6586eeb,,,,,,,,,,,419.2382,1.2,420.4381,420.4381,422.654,5.261727093,2.2135,0,24,24,39,1,1_to_8,images/Ex6.jpg,images/Ex5.jpg,Ex6,Ex5,,,,,
,,,,,538910,001,,,,,2024-11-07_15h04.25.631,CatSimMDS,2023.2.3,Win32,60.24096386,66257a414b2977d75dcbd625,672bf50eac1463c2ad3c747f,672cd6e93ac881c7d6586eeb,,,,,,,,,,,422.6543,0.6,423.2548,423.2549,425.8873,4.836978259,2.6194,0,25,25,3,1,1_to_8,images/Ex1.jpg,images/Ex5.jpg,Ex1,Ex5,,,,,
,,,,,538910,001,,,,,2024-11-07_15h04.25.631,CatSimMDS,2023.2.3,Win32,60.24096386,66257a414b2977d75dcbd625,672bf50eac1463c2ad3c747f,672cd6e93ac881c7d6586eeb,,,,,,,,,,,425.8877,1.2,427.0871,427.0872,429.6702,4.381151553,2.5749,0,26,26,45,1,1_to_8,images/Ex7.jpg,images/Ex4.jpg,Ex7,Ex4,,,,,
,,,,,538910,001,,,,,2024-11-07_15h04.25.631,CatSimMDS,2023.2.3,Win32,60.24096386,66257a414b2977d75dcbd625,672bf50eac1463c2ad3c747f,672cd6e93ac881c7d6586eeb,,,,,,,,,,,429.6709,1.2,430.8701,430.8702,433.5701,4.88877682,2.6863,0,27,27,27,1,1_to_8,images/Ex4.jpg,images/Ex8.jpg,Ex4,Ex8,,,,,
,,,,,538910,001,,,,,2024-11-07_15h04.25.631,CatSimMDS,2023.2.3,Win32,60.24096386,66257a414b2977d75dcbd625,672bf50eac1463c2ad3c747f,672cd6e93ac881c7d6586eeb,,,,,,,,,,,433.5705,1.5,435.0698,435.0698,437.6691,4.795540043,2.5954,0,28,28,25,1,1_to_8,images/Ex4.jpg,images/Ex6.jpg,Ex4,Ex6,,,,,
,,,,,538910,001,,,,,2024-11-07_15h04.25.631,CatSimMDS,2023.2.3,Win32,60.24096386,66257a414b2977d75dcbd625,672bf50eac1463c2ad3c747f,672cd6e93ac881c7d6586eeb,,,,,,,,,,,437.6693,0.6,438.2691,438.2692,440.2851,1.708345482,2.0122,0,29,29,15,1,1_to_8,images/Ex3.jpg,images/Ex2.jpg,Ex3,Ex2,,,,,
,,,,,538910,001,,,,,2024-11-07_15h04.25.631,CatSimMDS,2023.2.3,Win32,60.24096386,66257a414b2977d75dcbd625,672bf50eac1463c2ad3c747f,672cd6e93ac881c7d6586eeb,,,,,,,,,,,440.2855,0.5,440.7852,440.7852,443.4687,5.013093841,2.6827,0,30,30,42,1,1_to_8,images/Ex7.jpg,images/Ex1.jpg,Ex7,Ex1,,,,,
,,,,,538910,001,,,,,2024-11-07_15h04.25.631,CatSimMDS,2023.2.3,Win32,60.24096386,66257a414b2977d75dcbd625,672bf50eac1463c2ad3c747f,672cd6e93ac881c7d6586eeb,,,,,,,,,,,443.4688,1.5,444.9683,444.9683,447.0348,1.169640367,2.0528,0,31,31,22,1,1_to_8,images/Ex4.jpg,images/Ex2.jpg,Ex4,Ex2,,,,,
,,,,,538910,001,,,,,2024-11-07_15h04.25.631,CatSimMDS,2023.2.3,Win32,60.24096386,66257a414b2977d75dcbd625,672bf50eac1463c2ad3c747f,672cd6e93ac881c7d6586eeb,,,,,,,,,,,447.0353,0.9,447.9342,447.9343,450.4674,4.277554431,2.5199,0,32,32,17,1,1_to_8,images/Ex3.jpg,images/Ex5.jpg,Ex3,Ex5,,,,,
,,,,,538910,001,,,,,2024-11-07_15h04.25.631,CatSimMDS,2023.2.3,Win32,60.24096386,66257a414b2977d75dcbd625,672bf50eac1463c2ad3c747f,672cd6e93ac881c7d6586eeb,,,,,,,,,,,450.4678,1,451.4676,451.4677,453.5679,1.293956993,2.099,0,33,33,29,1,1_to_8,images/Ex5.jpg,images/Ex2.jpg,Ex5,Ex2,,,,,
,,,,,538910,001,,,,,2024-11-07_15h04.25.631,CatSimMDS,2023.2.3,Win32,60.24096386,66257a414b2977d75dcbd625,672bf50eac1463c2ad3c747f,672cd6e93ac881c7d6586eeb,,,,,,,,,,,453.5682,0.7,454.2669,454.2669,456.4836,5.085611511,2.2039,0,34,34,20,1,1_to_8,images/Ex3.jpg,images/Ex8.jpg,Ex3,Ex8,,,,,
,,,,,538910,001,,,,,2024-11-07_15h04.25.631,CatSimMDS,2023.2.3,Win32,60.24096386,66257a414b2977d75dcbd625,672bf50eac1463c2ad3c747f,672cd6e93ac881c7d6586eeb,,,,,,,,,,,456.484,1.3,457.7834,457.7835,461.5494,4.816259151,3.754,0,35,35,41,1,1_to_8,images/Ex6.jpg,images/Ex8.jpg,Ex6,Ex8,,,,,
,,,,,538910,001,,,,,2024-11-07_15h04.25.631,CatSimMDS,2023.2.3,Win32,60.24096386,66257a414b2977d75dcbd625,672bf50eac1463c2ad3c747f,672cd6e93ac881c7d6586eeb,,,,,,,,,,,461.5499,0.6,462.1492,462.1493,464.6989,4.816259151,2.5358,0,36,36,48,1,1_to_8,images/Ex7.jpg,images/Ex8.jpg,Ex7,Ex8,,,,,
,,,,,538910,001,,,,,2024-11-07_15h04.25.631,CatSimMDS,2023.2.3,Win32,60.24096386,66257a414b2977d75dcbd625,672bf50eac1463c2ad3c747f,672cd6e93ac881c7d6586eeb,,,,,,,,,,,464.6993,1.3,465.999,465.999,468.4489,1.625467863,2.4381,0,37,37,8,1,1_to_8,images/Ex2.jpg,images/Ex3.jpg,Ex2,Ex3,,,,,
,,,,,538910,001,,,,,2024-11-07_15h04.25.631,CatSimMDS,2023.2.3,Win32,60.24096386,66257a414b2977d75dcbd625,672bf50eac1463c2ad3c747f,672cd6e93ac881c7d6586eeb,,,,,,,,,,,468.4494,0.6,469.0485,469.0486,471.9811,2.319568661,2.9193,0,38,38,16,1,1_to_8,images/Ex3.jpg,images/Ex4.jpg,Ex3,Ex4,,,,,
,,,,,538910,001,,,,,2024-11-07_15h04.25.631,CatSimMDS,2023.2.3,Win32,60.24096386,66257a414b2977d75dcbd625,672bf50eac1463c2ad3c747f,672cd6e93ac881c7d6586eeb,,,,,,,,,,,471.9814,0.7,472.6812,472.6812,475.2643,1.428633173,2.5701,0,39,39,43,1,1_to_8,images/Ex7.jpg,images/Ex2.jpg,Ex7,Ex2,,,,,
,,,,,538910,001,,,,,2024-11-07_15h04.25.631,CatSimMDS,2023.2.3,Win32,60.24096386,66257a414b2977d75dcbd625,672bf50eac1463c2ad3c747f,672cd6e93ac881c7d6586eeb,,,,,,,,,,,475.2644,1.1,476.3643,476.3644,477.8469,1.428633173,1.4691,0,40,40,26,1,1_to_8,images/Ex4.jpg,images/Ex7.jpg,Ex4,Ex7,,,,,
,,,,,538910,001,,,,,2024-11-07_15h04.25.631,CatSimMDS,2023.2.3,Win32,60.24096386,66257a414b2977d75dcbd625,672bf50eac1463c2ad3c747f,672cd6e93ac881c7d6586eeb,,,,,,,,,,,477.8472,1.3,479.1466,479.1466,482.513,3.117266187,3.3655,0,41,41,19,1,1_to_8,images/Ex3.jpg,images/Ex7.jpg,Ex3,Ex7,,,,,
,,,,,538910,001,,,,,2024-11-07_15h04.25.631,CatSimMDS,2023.2.3,Win32,60.24096386,66257a414b2977d75dcbd625,672bf50eac1463c2ad3c747f,672cd6e93ac881c7d6586eeb,,,,,,,,,,,482.5131,0.9,483.4134,483.4135,485.9963,2.578561467,2.579,0,42,42,23,1,1_to_8,images/Ex4.jpg,images/Ex3.jpg,Ex4,Ex3,,,,,
,,,,,538910,001,,,,,2024-11-07_15h04.25.631,CatSimMDS,2023.2.3,Win32,60.24096386,66257a414b2977d75dcbd625,672bf50eac1463c2ad3c747f,672cd6e93ac881c7d6586eeb,,,,,,,,,,,485.9965,1.2,487.1961,487.1962,489.5796,4.142877856,2.3754,0,43,43,5,1,1_to_8,images/Ex1.jpg,images/Ex7.jpg,Ex1,Ex7,,,,,
,,,,,538910,001,,,,,2024-11-07_15h04.25.631,CatSimMDS,2023.2.3,Win32,60.24096386,66257a414b2977d75dcbd625,672bf50eac1463c2ad3c747f,672cd6e93ac881c7d6586eeb,,,,,,,,,,,489.58,0.7,490.2791,490.2791,492.8118,4.650503913,2.5277,0,44,44,51,1,1_to_8,images/Ex8.jpg,images/Ex3.jpg,Ex8,Ex3,,,,,
,,,,,538910,001,,,,,2024-11-07_15h04.25.631,CatSimMDS,2023.2.3,Win32,60.24096386,66257a414b2977d75dcbd625,672bf50eac1463c2ad3c747f,672cd6e93ac881c7d6586eeb,,,,,,,,,,,492.8122,0.9,493.7123,493.7123,495.8284,5.417122776,2.1038,0,45,45,1,1,1_to_8,images/Ex1.jpg,images/Ex3.jpg,Ex1,Ex3,,,,,
,,,,,538910,001,,,,,2024-11-07_15h04.25.631,CatSimMDS,2023.2.3,Win32,60.24096386,66257a414b2977d75dcbd625,672bf50eac1463c2ad3c747f,672cd6e93ac881c7d6586eeb,,,,,,,,,,,495.829,1.3,497.1281,497.1283,499.1443,4.76446059,2.0082,0,46,46,24,1,1_to_8,images/Ex4.jpg,images/Ex5.jpg,Ex4,Ex5,,,,,
,,,,,538910,001,,,,,2024-11-07_15h04.25.631,CatSimMDS,2023.2.3,Win32,60.24096386,66257a414b2977d75dcbd625,672bf50eac1463c2ad3c747f,672cd6e93ac881c7d6586eeb,,,,,,,,,,,499.1448,0.7,499.8445,499.8446,501.8776,1.677266424,2.02,0,47,47,36,1,1_to_8,images/Ex6.jpg,images/Ex2.jpg,Ex6,Ex2,,,,,
,,,,,538910,001,,,,,2024-11-07_15h04.25.631,CatSimMDS,2023.2.3,Win32,60.24096386,66257a414b2977d75dcbd625,672bf50eac1463c2ad3c747f,672cd6e93ac881c7d6586eeb,,,,,,,,,,,501.8781,1.4,503.2771,503.2772,505.444,3.707770258,2.153,0,48,48,49,1,1_to_8,images/Ex8.jpg,images/Ex1.jpg,Ex8,Ex1,,,,,
,,,,,538910,001,,,,,2024-11-07_15h04.25.631,CatSimMDS,2023.2.3,Win32,60.24096386,66257a414b2977d75dcbd625,672bf50eac1463c2ad3c747f,672cd6e93ac881c7d6586eeb,,,,,,,,,,,505.4444,1.1,506.5439,506.5439,508.3599,1.822302158,1.8086,0,49,49,11,1,1_to_8,images/Ex2.jpg,images/Ex6.jpg,Ex2,Ex6,,,,,
,,,,,538910,001,,,,,2024-11-07_15h04.25.631,CatSimMDS,2023.2.3,Win32,60.24096386,66257a414b2977d75dcbd625,672bf50eac1463c2ad3c747f,672cd6e93ac881c7d6586eeb,,,,,,,,,,,508.3602,0.5,508.8595,508.8595,511.0596,2.319568661,2.188,0,50,50,33,1,1_to_8,images/Ex5.jpg,images/Ex7.jpg,Ex5,Ex7,,,,,
,,,,,538910,001,,,,,2024-11-07_15h04.25.631,CatSimMDS,2023.2.3,Win32,60.24096386,66257a414b2977d75dcbd625,672bf50eac1463c2ad3c747f,672cd6e93ac881c7d6586eeb,,,,,,,,,,,511.06,0.9,511.9597,511.9597,517.3084,2.827194719,5.3421,0,51,51,32,1,1_to_8,images/Ex5.jpg,images/Ex6.jpg,Ex5,Ex6,,,,,
,,,,,538910,001,,,,,2024-11-07_15h04.25.631,CatSimMDS,2023.2.3,Win32,60.24096386,66257a414b2977d75dcbd625,672bf50eac1463c2ad3c747f,672cd6e93ac881c7d6586eeb,,,,,,,,,,,517.3089,0.9,518.2082,518.2082,519.8913,1.314676496,1.6814,0,52,52,10,1,1_to_8,images/Ex2.jpg,images/Ex5.jpg,Ex2,Ex5,,,,,
,,,,,538910,001,,,,,2024-11-07_15h04.25.631,CatSimMDS,2023.2.3,Win32,60.24096386,66257a414b2977d75dcbd625,672bf50eac1463c2ad3c747f,672cd6e93ac881c7d6586eeb,,,,,,,,,,,519.8916,0.6,520.4913,520.4913,522.9584,3.314100878,2.4543,0,53,53,44,1,1_to_8,images/Ex7.jpg,images/Ex3.jpg,Ex7,Ex3,,,,,
,,,,,538910,001,,,,,2024-11-07_15h04.25.631,CatSimMDS,2023.2.3,Win32,60.24096386,66257a414b2977d75dcbd625,672bf50eac1463c2ad3c747f,672cd6e93ac881c7d6586eeb,,,,,,,,,,,522.9588,1,523.9582,523.9582,526.5741,3.314100878,2.6127,0,54,54,31,1,1_to_8,images/Ex5.jpg,images/Ex4.jpg,Ex5,Ex4,,,,,
,,,,,538910,001,,,,,2024-11-07_15h04.25.631,CatSimMDS,2023.2.3,Win32,60.24096386,66257a414b2977d75dcbd625,672bf50eac1463c2ad3c747f,672cd6e93ac881c7d6586eeb,,,,,,,,,,,,,,,,,,,,,,,,,,,,526.5744,580.6848,space,54.0993,