infCons.started,infCons.stopped,resp_consent.keys,resp_consent.rt,resp_consent.duration,participant,session,Age?,Gender?,Nationality?,Highest Educational Degree?,date,expName,psychopyVersion,OS,frameRate,PROLIFIC_PID,STUDY_ID,SESSION_ID,instructions.started,instructions.stopped,resp_instructions.keys,resp_instructions.rt,resp_instructions.duration,nextTask.started,nextTask.stopped,ready_task.keys,ready_task.rt,ready_task.duration,fixation.started,ITI,fixation.stopped,stim.started,stim.stopped,slider.response,slider.rt,trials.thisRepN,trials.thisTrialN,trials.thisN,trials.thisIndex,trials.ran,task,exemplarLeft,exemplarRight,left,right,end.started,end.stopped,resp_end.keys,resp_end.rt,resp_end.duration
0.0004,6.374,space,6.3297,,751138,001,61,Female,British,O Level,2024-11-07_15h03.36.772,CatSimMDS,2023.2.3,Win32,59.88023952,6154463474d88dfc259ef4b8,672bf50eac1463c2ad3c747f,672cd6a4c830d1725506cae5,,,,,,,,,,,,,,,,,,,,,,,,,,,,,,,,
,,,,,751138,001,61,Female,British,O Level,2024-11-07_15h03.36.772,CatSimMDS,2023.2.3,Win32,59.88023952,6154463474d88dfc259ef4b8,672bf50eac1463c2ad3c747f,672cd6a4c830d1725506cae5,6.3744,29.5658,space,23.1686,,,,,,,,,,,,,,,,,,,,,,,,,,,,
,,,,,751138,001,61,Female,British,O Level,2024-11-07_15h03.36.772,CatSimMDS,2023.2.3,Win32,59.88023952,6154463474d88dfc259ef4b8,672bf50eac1463c2ad3c747f,672cd6a4c830d1725506cae5,,,,,,29.5705,32.6968,space,3.1088,,32.7048,0.7,33.4043,33.4045,37.933,3.975000381,4.5263,0,0,0,11,1,1_to_8,images/Ex2.jpg,images/Ex6.jpg,Ex2,Ex6,,,,,
,,,,,751138,001,61,Female,British,O Level,2024-11-07_15h03.36.772,CatSimMDS,2023.2.3,Win32,59.88023952,6154463474d88dfc259ef4b8,672bf50eac1463c2ad3c747f,672cd6a4c830d1725506cae5,,,,,,,,,,,37.9336,0.6,38.5297,38.5298,42.1044,1.01666673,3.5731,0,1,1,7,1,1_to_8,images/Ex2.jpg,images/Ex1.jpg,Ex2,Ex1,,,,,
,,,,,751138,001,61,Female,British,O Level,2024-11-07_15h03.36.772,CatSimMDS,2023.2.3,Win32,59.88023952,6154463474d88dfc259ef4b8,672bf50eac1463c2ad3c747f,672cd6a4c830d1725506cae5,,,,,,,,,,,42.1047,1,43.0942,43.0943,49.9499,1.975000064,6.8537,0,2,2,31,1,1_to_8,images/Ex5.jpg,images/Ex4.jpg,Ex5,Ex4,,,,,
,,,,,751138,001,61,Female,British,O Level,2024-11-07_15h03.36.772,CatSimMDS,2023.2.3,Win32,59.88023952,6154463474d88dfc259ef4b8,672bf50eac1463c2ad3c747f,672cd6a4c830d1725506cae5,,,,,,,,,,,49.9502,0.6,50.5465,50.5465,55.3779,1.050000191,4.829,0,3,3,27,1,1_to_8,images/Ex4.jpg,images/Ex8.jpg,Ex4,Ex8,,,,,
,,,,,751138,001,61,Female,British,O Level,2024-11-07_15h03.36.772,CatSimMDS,2023.2.3,Win32,59.88023952,6154463474d88dfc259ef4b8,672bf50eac1463c2ad3c747f,672cd6a4c830d1725506cae5,,,,,,,,,,,55.3783,1.2,56.5738,56.574,59.2737,1.091666857,2.698,0,4,4,13,1,1_to_8,images/Ex2.jpg,images/Ex8.jpg,Ex2,Ex8,,,,,
,,,,,751138,001,61,Female,British,O Level,2024-11-07_15h03.36.772,CatSimMDS,2023.2.3,Win32,59.88023952,6154463474d88dfc259ef4b8,672bf50eac1463c2ad3c747f,672cd6a4c830d1725506cae5,,,,,,,,,,,59.274,0.7,59.9706,59.9706,62.1253,1.075000127,2.149,0,5,5,45,1,1_to_8,images/Ex7.jpg,images/Ex4.jpg,Ex7,Ex4,,,,,
,,,,,751138,001,61,Female,British,O Level,2024-11-07_15h03.36.772,CatSimMDS,2023.2.3,Win32,59.88023952,6154463474d88dfc259ef4b8,672bf50eac1463c2ad3c747f,672cd6a4c830d1725506cae5,,,,,,,,,,,62.1258,0.8,62.923,62.923,65.1249,1.066666603,2.2,0,6,6,21,1,1_to_8,images/Ex4.jpg,images/Ex1.jpg,Ex4,Ex1,,,,,
,,,,,751138,001,61,Female,British,O Level,2024-11-07_15h03.36.772,CatSimMDS,2023.2.3,Win32,59.88023952,6154463474d88dfc259ef4b8,672bf50eac1463c2ad3c747f,672cd6a4c830d1725506cae5,,,,,,,,,,,65.1253,1,66.1203,66.1203,69.5885,1.050000191,3.4586,0,7,7,0,1,1_to_8,images/Ex1.jpg,images/Ex2.jpg,Ex1,Ex2,,,,,
,,,,,751138,001,61,Female,British,O Level,2024-11-07_15h03.36.772,CatSimMDS,2023.2.3,Win32,59.88023952,6154463474d88dfc259ef4b8,672bf50eac1463c2ad3c747f,672cd6a4c830d1725506cae5,,,,,,,,,,,69.589,0.8,70.3861,70.3861,77.4739,1.050000191,7.0864,0,8,8,14,1,1_to_8,images/Ex3.jpg,images/Ex1.jpg,Ex3,Ex1,,,,,
,,,,,751138,001,61,Female,British,O Level,2024-11-07_15h03.36.772,CatSimMDS,2023.2.3,Win32,59.88023952,6154463474d88dfc259ef4b8,672bf50eac1463c2ad3c747f,672cd6a4c830d1725506cae5,,,,,,,,,,,77.4743,0.7,78.1708,78.1709,80.5157,1.050000191,2.3437,0,9,9,20,1,1_to_8,images/Ex3.jpg,images/Ex8.jpg,Ex3,Ex8,,,,,
,,,,,751138,001,61,Female,British,O Level,2024-11-07_15h03.36.772,CatSimMDS,2023.2.3,Win32,59.88023952,6154463474d88dfc259ef4b8,672bf50eac1463c2ad3c747f,672cd6a4c830d1725506cae5,,,,,,,,,,,80.516,0.6,81.1127,81.1128,83.7403,1.050000191,2.6263,0,10,10,22,1,1_to_8,images/Ex4.jpg,images/Ex2.jpg,Ex4,Ex2,,,,,
,,,,,751138,001,61,Female,British,O Level,2024-11-07_15h03.36.772,CatSimMDS,2023.2.3,Win32,59.88023952,6154463474d88dfc259ef4b8,672bf50eac1463c2ad3c747f,672cd6a4c830d1725506cae5,,,,,,,,,,,83.7405,0.7,84.4369,84.437,88.1542,1.083333333,3.7148,0,11,11,33,1,1_to_8,images/Ex5.jpg,images/Ex7.jpg,Ex5,Ex7,,,,,
,,,,,751138,001,61,Female,British,O Level,2024-11-07_15h03.36.772,CatSimMDS,2023.2.3,Win32,59.88023952,6154463474d88dfc259ef4b8,672bf50eac1463c2ad3c747f,672cd6a4c830d1725506cae5,,,,,,,,,,,88.1548,1.2,89.3505,89.3505,94.3211,1.083333333,4.9691,0,12,12,1,1,1_to_8,images/Ex1.jpg,images/Ex3.jpg,Ex1,Ex3,,,,,
,,,,,751138,001,61,Female,British,O Level,2024-11-07_15h03.36.772,CatSimMDS,2023.2.3,Win32,59.88023952,6154463474d88dfc259ef4b8,672bf50eac1463c2ad3c747f,672cd6a4c830d1725506cae5,,,,,,,,,,,94.3215,1.1,95.4172,95.4172,97.0038,1.083333333,1.585,0,13,13,5,1,1_to_8,images/Ex1.jpg,images/Ex7.jpg,Ex1,Ex7,,,,,
,,,,,751138,001,61,Female,British,O Level,2024-11-07_15h03.36.772,CatSimMDS,2023.2.3,Win32,59.88023952,6154463474d88dfc259ef4b8,672bf50eac1463c2ad3c747f,672cd6a4c830d1725506cae5,,,,,,,,,,,97.0041,1.3,98.2989,98.2989,101.1093,1.083333333,2.8087,0,14,14,26,1,1_to_8,images/Ex4.jpg,images/Ex7.jpg,Ex4,Ex7,,,,,
,,,,,751138,001,61,Female,British,O Level,2024-11-07_15h03.36.772,CatSimMDS,2023.2.3,Win32,59.88023952,6154463474d88dfc259ef4b8,672bf50eac1463c2ad3c747f,672cd6a4c830d1725506cae5,,,,,,,,,,,101.1096,0.7,101.8058,101.8059,103.353,1.100000064,1.5457,0,15,15,28,1,1_to_8,images/Ex5.jpg,images/Ex1.jpg,Ex5,Ex1,,,,,
,,,,,751138,001,61,Female,British,O Level,2024-11-07_15h03.36.772,CatSimMDS,2023.2.3,Win32,59.88023952,6154463474d88dfc259ef4b8,672bf50eac1463c2ad3c747f,672cd6a4c830d1725506cae5,,,,,,,,,,,103.3533,1.5,104.8476,104.8476,108.1066,1.100000064,3.2575,0,16,16,51,1,1_to_8,images/Ex8.jpg,images/Ex3.jpg,Ex8,Ex3,,,,,
,,,,,751138,001,61,Female,British,O Level,2024-11-07_15h03.36.772,CatSimMDS,2023.2.3,Win32,59.88023952,6154463474d88dfc259ef4b8,672bf50eac1463c2ad3c747f,672cd6a4c830d1725506cae5,,,,,,,,,,,108.1069,0.5,108.598,108.598,113.9668,3.083333333,5.3581,0,17,17,36,1,1_to_8,images/Ex6.jpg,images/Ex2.jpg,Ex6,Ex2,,,,,
,,,,,751138,001,61,Female,British,O Level,2024-11-07_15h03.36.772,CatSimMDS,2023.2.3,Win32,59.88023952,6154463474d88dfc259ef4b8,672bf50eac1463c2ad3c747f,672cd6a4c830d1725506cae5,,,,,,,,,,,113.9672,1.1,115.0635,115.0635,117.2484,1.03333346,2.1832,0,18,18,16,1,1_to_8,images/Ex3.jpg,images/Ex4.jpg,Ex3,Ex4,,,,,
,,,,,751138,001,61,Female,British,O Level,2024-11-07_15h03.36.772,CatSimMDS,2023.2.3,Win32,59.88023952,6154463474d88dfc259ef4b8,672bf50eac1463c2ad3c747f,672cd6a4c830d1725506cae5,,,,,,,,,,,117.2487,0.6,117.845,117.8451,120.2568,1.100000064,2.4101,0,19,19,4,1,1_to_8,images/Ex1.jpg,images/Ex6.jpg,Ex1,Ex6,,,,,
,,,,,751138,001,61,Female,British,O Level,2024-11-07_15h03.36.772,CatSimMDS,2023.2.3,Win32,59.88023952,6154463474d88dfc259ef4b8,672bf50eac1463c2ad3c747f,672cd6a4c830d1725506cae5,,,,,,,,,,,120.257,1.2,121.4522,121.4523,124.3119,1.100000064,2.8586,0,20,20,30,1,1_to_8,images/Ex5.jpg,images/Ex3.jpg,Ex5,Ex3,,,,,
,,,,,751138,001,61,Female,British,O Level,2024-11-07_15h03.36.772,CatSimMDS,2023.2.3,Win32,59.88023952,6154463474d88dfc259ef4b8,672bf50eac1463c2ad3c747f,672cd6a4c830d1725506cae5,,,,,,,,,,,124.3122,1.1,125.4079,125.4079,127.5699,1.100000064,2.1605,0,21,21,46,1,1_to_8,images/Ex7.jpg,images/Ex5.jpg,Ex7,Ex5,,,,,
,,,,,751138,001,61,Female,British,O Level,2024-11-07_15h03.36.772,CatSimMDS,2023.2.3,Win32,59.88023952,6154463474d88dfc259ef4b8,672bf50eac1463c2ad3c747f,672cd6a4c830d1725506cae5,,,,,,,,,,,127.5701,1.5,129.0585,129.0586,130.7372,1.100000064,1.6764,0,22,22,43,1,1_to_8,images/Ex7.jpg,images/Ex2.jpg,Ex7,Ex2,,,,,
,,,,,751138,001,61,Female,British,O Level,2024-11-07_15h03.36.772,CatSimMDS,2023.2.3,Win32,59.88023952,6154463474d88dfc259ef4b8,672bf50eac1463c2ad3c747f,672cd6a4c830d1725506cae5,,,,,,,,,,,130.7381,0.6,131.3387,131.3388,133.437,1.100000064,2.0968,0,23,23,39,1,1_to_8,images/Ex6.jpg,images/Ex5.jpg,Ex6,Ex5,,,,,
,,,,,751138,001,61,Female,British,O Level,2024-11-07_15h03.36.772,CatSimMDS,2023.2.3,Win32,59.88023952,6154463474d88dfc259ef4b8,672bf50eac1463c2ad3c747f,672cd6a4c830d1725506cae5,,,,,,,,,,,133.4373,0.9,134.3274,134.3274,136.1135,1.100000064,1.7845,0,24,24,42,1,1_to_8,images/Ex7.jpg,images/Ex1.jpg,Ex7,Ex1,,,,,
,,,,,751138,001,61,Female,British,O Level,2024-11-07_15h03.36.772,CatSimMDS,2023.2.3,Win32,59.88023952,6154463474d88dfc259ef4b8,672bf50eac1463c2ad3c747f,672cd6a4c830d1725506cae5,,,,,,,,,,,136.1138,1.2,137.3026,137.3026,139.6035,1.100000064,2.2993,0,25,25,6,1,1_to_8,images/Ex1.jpg,images/Ex8.jpg,Ex1,Ex8,,,,,
,,,,,751138,001,61,Female,British,O Level,2024-11-07_15h03.36.772,CatSimMDS,2023.2.3,Win32,59.88023952,6154463474d88dfc259ef4b8,672bf50eac1463c2ad3c747f,672cd6a4c830d1725506cae5,,,,,,,,,,,139.6039,1.1,140.6993,140.6994,143.1439,1.100000064,2.4429,0,26,26,34,1,1_to_8,images/Ex5.jpg,images/Ex8.jpg,Ex5,Ex8,,,,,
,,,,,751138,001,61,Female,British,O Level,2024-11-07_15h03.36.772,CatSimMDS,2023.2.3,Win32,59.88023952,6154463474d88dfc259ef4b8,672bf50eac1463c2ad3c747f,672cd6a4c830d1725506cae5,,,,,,,,,,,143.1442,0.9,144.034,144.034,149.6229,1.991666794,5.5872,0,27,27,24,1,1_to_8,images/Ex4.jpg,images/Ex5.jpg,Ex4,Ex5,,,,,
,,,,,751138,001,61,Female,British,O Level,2024-11-07_15h03.36.772,CatSimMDS,2023.2.3,Win32,59.88023952,6154463474d88dfc259ef4b8,672bf50eac1463c2ad3c747f,672cd6a4c830d1725506cae5,,,,,,,,,,,149.6233,0.5,150.1237,150.1237,152.6769,1.10833327,2.5478,0,28,28,41,1,1_to_8,images/Ex6.jpg,images/Ex8.jpg,Ex6,Ex8,,,,,
,,,,,751138,001,61,Female,British,O Level,2024-11-07_15h03.36.772,CatSimMDS,2023.2.3,Win32,59.88023952,6154463474d88dfc259ef4b8,672bf50eac1463c2ad3c747f,672cd6a4c830d1725506cae5,,,,,,,,,,,152.6773,1.1,153.7738,153.7739,159.1335,1.10833327,5.358,0,29,29,53,1,1_to_8,images/Ex8.jpg,images/Ex5.jpg,Ex8,Ex5,,,,,
,,,,,751138,001,61,Female,British,O Level,2024-11-07_15h03.36.772,CatSimMDS,2023.2.3,Win32,59.88023952,6154463474d88dfc259ef4b8,672bf50eac1463c2ad3c747f,672cd6a4c830d1725506cae5,,,,,,,,,,,159.1338,0.8,159.9238,159.9239,164.685,1.10833327,4.7592,0,30,30,15,1,1_to_8,images/Ex3.jpg,images/Ex2.jpg,Ex3,Ex2,,,,,
,,,,,751138,001,61,Female,British,O Level,2024-11-07_15h03.36.772,CatSimMDS,2023.2.3,Win32,59.88023952,6154463474d88dfc259ef4b8,672bf50eac1463c2ad3c747f,672cd6a4c830d1725506cae5,,,,,,,,,,,164.6852,1,165.6748,165.6748,168.541,1.10833327,2.8645,0,31,31,17,1,1_to_8,images/Ex3.jpg,images/Ex5.jpg,Ex3,Ex5,,,,,
,,,,,751138,001,61,Female,British,O Level,2024-11-07_15h03.36.772,CatSimMDS,2023.2.3,Win32,59.88023952,6154463474d88dfc259ef4b8,672bf50eac1463c2ad3c747f,672cd6a4c830d1725506cae5,,,,,,,,,,,168.5413,0.7,169.2314,169.2314,171.6249,1.10833327,2.3882,0,32,32,47,1,1_to_8,images/Ex7.jpg,images/Ex6.jpg,Ex7,Ex6,,,,,
,,,,,751138,001,61,Female,British,O Level,2024-11-07_15h03.36.772,CatSimMDS,2023.2.3,Win32,59.88023952,6154463474d88dfc259ef4b8,672bf50eac1463c2ad3c747f,672cd6a4c830d1725506cae5,,,,,,,,,,,171.6253,1.3,172.9213,172.9213,174.8736,1.10833327,1.9508,0,33,33,54,1,1_to_8,images/Ex8.jpg,images/Ex6.jpg,Ex8,Ex6,,,,,
,,,,,751138,001,61,Female,British,O Level,2024-11-07_15h03.36.772,CatSimMDS,2023.2.3,Win32,59.88023952,6154463474d88dfc259ef4b8,672bf50eac1463c2ad3c747f,672cd6a4c830d1725506cae5,,,,,,,,,,,174.8739,1.5,176.3619,176.3619,179.0951,1.10833327,2.7315,0,34,34,12,1,1_to_8,images/Ex2.jpg,images/Ex7.jpg,Ex2,Ex7,,,,,
,,,,,751138,001,61,Female,British,O Level,2024-11-07_15h03.36.772,CatSimMDS,2023.2.3,Win32,59.88023952,6154463474d88dfc259ef4b8,672bf50eac1463c2ad3c747f,672cd6a4c830d1725506cae5,,,,,,,,,,,179.0954,1.4,180.4841,180.4842,182.7778,1.116666794,2.2909,0,35,35,9,1,1_to_8,images/Ex2.jpg,images/Ex4.jpg,Ex2,Ex4,,,,,
,,,,,751138,001,61,Female,British,O Level,2024-11-07_15h03.36.772,CatSimMDS,2023.2.3,Win32,59.88023952,6154463474d88dfc259ef4b8,672bf50eac1463c2ad3c747f,672cd6a4c830d1725506cae5,,,,,,,,,,,182.7783,0.7,183.4821,183.4821,185.644,1.116666794,2.1603,0,36,36,25,1,1_to_8,images/Ex4.jpg,images/Ex6.jpg,Ex4,Ex6,,,,,
,,,,,751138,001,61,Female,British,O Level,2024-11-07_15h03.36.772,CatSimMDS,2023.2.3,Win32,59.88023952,6154463474d88dfc259ef4b8,672bf50eac1463c2ad3c747f,672cd6a4c830d1725506cae5,,,,,,,,,,,185.6443,1.1,186.7336,186.7337,188.8853,1.14166673,2.15,0,37,37,2,1,1_to_8,images/Ex1.jpg,images/Ex4.jpg,Ex1,Ex4,,,,,
,,,,,751138,001,61,Female,British,O Level,2024-11-07_15h03.36.772,CatSimMDS,2023.2.3,Win32,59.88023952,6154463474d88dfc259ef4b8,672bf50eac1463c2ad3c747f,672cd6a4c830d1725506cae5,,,,,,,,,,,188.8856,0.9,189.775,189.775,191.2622,1.14166673,1.4857,0,38,38,19,1,1_to_8,images/Ex3.jpg,images/Ex7.jpg,Ex3,Ex7,,,,,
,,,,,751138,001,61,Female,British,O Level,2024-11-07_15h03.36.772,CatSimMDS,2023.2.3,Win32,59.88023952,6154463474d88dfc259ef4b8,672bf50eac1463c2ad3c747f,672cd6a4c830d1725506cae5,,,,,,,,,,,191.2625,1,192.2576,192.2576,194.2204,1.14166673,1.9614,0,39,39,50,1,1_to_8,images/Ex8.jpg,images/Ex2.jpg,Ex8,Ex2,,,,,
,,,,,751138,001,61,Female,British,O Level,2024-11-07_15h03.36.772,CatSimMDS,2023.2.3,Win32,59.88023952,6154463474d88dfc259ef4b8,672bf50eac1463c2ad3c747f,672cd6a4c830d1725506cae5,,,,,,,,,,,194.2207,0.6,194.8114,194.8114,196.2316,1.14166673,1.4185,0,40,40,23,1,1_to_8,images/Ex4.jpg,images/Ex3.jpg,Ex4,Ex3,,,,,
,,,,,751138,001,61,Female,British,O Level,2024-11-07_15h03.36.772,CatSimMDS,2023.2.3,Win32,59.88023952,6154463474d88dfc259ef4b8,672bf50eac1463c2ad3c747f,672cd6a4c830d1725506cae5,,,,,,,,,,,196.2319,1.5,197.7202,197.7203,199.5819,1.14166673,1.8522,0,41,41,49,1,1_to_8,images/Ex8.jpg,images/Ex1.jpg,Ex8,Ex1,,,,,
,,,,,751138,001,61,Female,British,O Level,2024-11-07_15h03.36.772,CatSimMDS,2023.2.3,Win32,59.88023952,6154463474d88dfc259ef4b8,672bf50eac1463c2ad3c747f,672cd6a4c830d1725506cae5,,,,,,,,,,,199.5824,1.4,200.9779,200.9779,202.7064,1.14166673,1.7246,0,42,42,38,1,1_to_8,images/Ex6.jpg,images/Ex4.jpg,Ex6,Ex4,,,,,
,,,,,751138,001,61,Female,British,O Level,2024-11-07_15h03.36.772,CatSimMDS,2023.2.3,Win32,59.88023952,6154463474d88dfc259ef4b8,672bf50eac1463c2ad3c747f,672cd6a4c830d1725506cae5,,,,,,,,,,,202.7071,0.5,203.2048,203.2048,204.7009,1.14166673,1.4869,0,43,43,35,1,1_to_8,images/Ex6.jpg,images/Ex1.jpg,Ex6,Ex1,,,,,
,,,,,751138,001,61,Female,British,O Level,2024-11-07_15h03.36.772,CatSimMDS,2023.2.3,Win32,59.88023952,6154463474d88dfc259ef4b8,672bf50eac1463c2ad3c747f,672cd6a4c830d1725506cae5,,,,,,,,,,,204.7016,1.4,206.0971,206.0971,208.9063,1.14166673,2.8056,0,44,44,29,1,1_to_8,images/Ex5.jpg,images/Ex2.jpg,Ex5,Ex2,,,,,
,,,,,751138,001,61,Female,British,O Level,2024-11-07_15h03.36.772,CatSimMDS,2023.2.3,Win32,59.88023952,6154463474d88dfc259ef4b8,672bf50eac1463c2ad3c747f,672cd6a4c830d1725506cae5,,,,,,,,,,,208.9071,0.6,209.5103,209.5103,210.825,1.166666667,1.3132,0,45,45,40,1,1_to_8,images/Ex6.jpg,images/Ex7.jpg,Ex6,Ex7,,,,,
,,,,,751138,001,61,Female,British,O Level,2024-11-07_15h03.36.772,CatSimMDS,2023.2.3,Win32,59.88023952,6154463474d88dfc259ef4b8,672bf50eac1463c2ad3c747f,672cd6a4c830d1725506cae5,,,,,,,,,,,210.8253,0.7,211.5156,211.5157,214.9137,1.166666667,3.3961,0,46,46,8,1,1_to_8,images/Ex2.jpg,images/Ex3.jpg,Ex2,Ex3,,,,,
,,,,,751138,001,61,Female,British,O Level,2024-11-07_15h03.36.772,CatSimMDS,2023.2.3,Win32,59.88023952,6154463474d88dfc259ef4b8,672bf50eac1463c2ad3c747f,672cd6a4c830d1725506cae5,,,,,,,,,,,214.9141,1.4,216.3022,216.3023,218.6371,1.166666667,2.3333,0,47,47,18,1,1_to_8,images/Ex3.jpg,images/Ex6.jpg,Ex3,Ex6,,,,,
,,,,,751138,001,61,Female,British,O Level,2024-11-07_15h03.36.772,CatSimMDS,2023.2.3,Win32,59.88023952,6154463474d88dfc259ef4b8,672bf50eac1463c2ad3c747f,672cd6a4c830d1725506cae5,,,,,,,,,,,218.6374,0.7,219.3277,219.3278,221.6951,1.125,2.3654,0,48,48,37,1,1_to_8,images/Ex6.jpg,images/Ex3.jpg,Ex6,Ex3,,,,,
,,,,,751138,001,61,Female,British,O Level,2024-11-07_15h03.36.772,CatSimMDS,2023.2.3,Win32,59.88023952,6154463474d88dfc259ef4b8,672bf50eac1463c2ad3c747f,672cd6a4c830d1725506cae5,,,,,,,,,,,221.6955,1.1,222.7847,222.7848,224.696,1.125,1.9054,0,49,49,52,1,1_to_8,images/Ex8.jpg,images/Ex4.jpg,Ex8,Ex4,,,,,
,,,,,751138,001,61,Female,British,O Level,2024-11-07_15h03.36.772,CatSimMDS,2023.2.3,Win32,59.88023952,6154463474d88dfc259ef4b8,672bf50eac1463c2ad3c747f,672cd6a4c830d1725506cae5,,,,,,,,,,,224.6965,0.9,225.5934,225.5935,227.1227,1.125,1.5257,0,50,50,48,1,1_to_8,images/Ex7.jpg,images/Ex8.jpg,Ex7,Ex8,,,,,
,,,,,751138,001,61,Female,British,O Level,2024-11-07_15h03.36.772,CatSimMDS,2023.2.3,Win32,59.88023952,6154463474d88dfc259ef4b8,672bf50eac1463c2ad3c747f,672cd6a4c830d1725506cae5,,,,,,,,,,,227.1236,0.7,227.8209,227.8209,230.8535,1.125,3.0308,0,51,51,3,1,1_to_8,images/Ex1.jpg,images/Ex5.jpg,Ex1,Ex5,,,,,
,,,,,751138,001,61,Female,British,O Level,2024-11-07_15h03.36.772,CatSimMDS,2023.2.3,Win32,59.88023952,6154463474d88dfc259ef4b8,672bf50eac1463c2ad3c747f,672cd6a4c830d1725506cae5,,,,,,,,,,,230.8539,0.7,231.5443,231.5443,233.1472,1.125,1.6012,0,52,52,44,1,1_to_8,images/Ex7.jpg,images/Ex3.jpg,Ex7,Ex3,,,,,
,,,,,751138,001,61,Female,British,O Level,2024-11-07_15h03.36.772,CatSimMDS,2023.2.3,Win32,59.88023952,6154463474d88dfc259ef4b8,672bf50eac1463c2ad3c747f,672cd6a4c830d1725506cae5,,,,,,,,,,,233.1475,1.4,234.5358,234.5359,235.8388,1.125,1.3012,0,53,53,32,1,1_to_8,images/Ex5.jpg,images/Ex6.jpg,Ex5,Ex6,,,,,
,,,,,751138,001,61,Female,British,O Level,2024-11-07_15h03.36.772,CatSimMDS,2023.2.3,Win32,59.88023952,6154463474d88dfc259ef4b8,672bf50eac1463c2ad3c747f,672cd6a4c830d1725506cae5,,,,,,,,,,,235.8393,1,236.8295,236.8295,238.2997,1.125,1.4684,0,54,54,10,1,1_to_8,images/Ex2.jpg,images/Ex5.jpg,Ex2,Ex5,,,,,
,,,,,751138,001,61,Female,British,O Level,2024-11-07_15h03.36.772,CatSimMDS,2023.2.3,Win32,59.88023952,6154463474d88dfc259ef4b8,672bf50eac1463c2ad3c747f,672cd6a4c830d1725506cae5,,,,,,238.3002,244.2828,space,5.9675,,244.2867,1.5,245.7779,245.778,249.9514,1.058333397,4.172,0,0,0,41,1,9_to_16,images/Ex14.jpg,images/Ex16.jpg,Ex14,Ex16,,,,,
,,,,,751138,001,61,Female,British,O Level,2024-11-07_15h03.36.772,CatSimMDS,2023.2.3,Win32,59.88023952,6154463474d88dfc259ef4b8,672bf50eac1463c2ad3c747f,672cd6a4c830d1725506cae5,,,,,,,,,,,249.9518,1.4,251.3398,251.3398,255.2624,2.125,3.9131,0,1,1,44,1,9_to_16,images/Ex15.jpg,images/Ex11.jpg,Ex15,Ex11,,,,,
,,,,,751138,001,61,Female,British,O Level,2024-11-07_15h03.36.772,CatSimMDS,2023.2.3,Win32,59.88023952,6154463474d88dfc259ef4b8,672bf50eac1463c2ad3c747f,672cd6a4c830d1725506cae5,,,,,,,,,,,255.2629,1.2,256.459,256.4591,259.9241,1.075000127,3.4633,0,2,2,23,1,9_to_16,images/Ex12.jpg,images/Ex11.jpg,Ex12,Ex11,,,,,
,,,,,751138,001,61,Female,British,O Level,2024-11-07_15h03.36.772,CatSimMDS,2023.2.3,Win32,59.88023952,6154463474d88dfc259ef4b8,672bf50eac1463c2ad3c747f,672cd6a4c830d1725506cae5,,,,,,,,,,,259.9243,0.9,260.8169,260.8169,263.8885,1.083333333,3.0625,0,3,3,6,1,9_to_16,images/Ex9.jpg,images/Ex16.jpg,Ex9,Ex16,,,,,
,,,,,751138,001,61,Female,British,O Level,2024-11-07_15h03.36.772,CatSimMDS,2023.2.3,Win32,59.88023952,6154463474d88dfc259ef4b8,672bf50eac1463c2ad3c747f,672cd6a4c830d1725506cae5,,,,,,,,,,,263.8892,1.1,264.9859,264.986,266.8806,1.100000064,1.8851,0,4,4,37,1,9_to_16,images/Ex14.jpg,images/Ex11.jpg,Ex14,Ex11,,,,,
,,,,,751138,001,61,Female,British,O Level,2024-11-07_15h03.36.772,CatSimMDS,2023.2.3,Win32,59.88023952,6154463474d88dfc259ef4b8,672bf50eac1463c2ad3c747f,672cd6a4c830d1725506cae5,,,,,,,,,,,266.8811,0.6,267.4849,267.4849,272.3565,1.10833327,4.8698,0,5,5,3,1,9_to_16,images/Ex9.jpg,images/Ex13.jpg,Ex9,Ex13,,,,,
,,,,,751138,001,61,Female,British,O Level,2024-11-07_15h03.36.772,CatSimMDS,2023.2.3,Win32,59.88023952,6154463474d88dfc259ef4b8,672bf50eac1463c2ad3c747f,672cd6a4c830d1725506cae5,,,,,,,,,,,272.3568,1.1,273.4519,273.4519,276.5779,1.10833327,3.1243,0,6,6,33,1,9_to_16,images/Ex13.jpg,images/Ex15.jpg,Ex13,Ex15,,,,,
,,,,,751138,001,61,Female,British,O Level,2024-11-07_15h03.36.772,CatSimMDS,2023.2.3,Win32,59.88023952,6154463474d88dfc259ef4b8,672bf50eac1463c2ad3c747f,672cd6a4c830d1725506cae5,,,,,,,,,,,276.5782,1.2,277.7672,277.7672,279.0969,1.10833327,1.3278,0,7,7,49,1,9_to_16,images/Ex16.jpg,images/Ex9.jpg,Ex16,Ex9,,,,,
,,,,,751138,001,61,Female,British,O Level,2024-11-07_15h03.36.772,CatSimMDS,2023.2.3,Win32,59.88023952,6154463474d88dfc259ef4b8,672bf50eac1463c2ad3c747f,672cd6a4c830d1725506cae5,,,,,,,,,,,279.0977,1.2,280.2935,280.2936,282.3545,1.10833327,2.0571,0,8,8,47,1,9_to_16,images/Ex15.jpg,images/Ex14.jpg,Ex15,Ex14,,,,,
,,,,,751138,001,61,Female,British,O Level,2024-11-07_15h03.36.772,CatSimMDS,2023.2.3,Win32,59.88023952,6154463474d88dfc259ef4b8,672bf50eac1463c2ad3c747f,672cd6a4c830d1725506cae5,,,,,,,,,,,282.3549,0.9,283.2521,283.2521,285.097,1.116666794,1.8424,0,9,9,27,1,9_to_16,images/Ex12.jpg,images/Ex16.jpg,Ex12,Ex16,,,,,
,,,,,751138,001,61,Female,British,O Level,2024-11-07_15h03.36.772,CatSimMDS,2023.2.3,Win32,59.88023952,6154463474d88dfc259ef4b8,672bf50eac1463c2ad3c747f,672cd6a4c830d1725506cae5,,,,,,,,,,,285.0975,0.7,285.7951,285.7951,287.7472,1.116666794,1.9507,0,10,10,14,1,9_to_16,images/Ex11.jpg,images/Ex9.jpg,Ex11,Ex9,,,,,
,,,,,751138,001,61,Female,British,O Level,2024-11-07_15h03.36.772,CatSimMDS,2023.2.3,Win32,59.88023952,6154463474d88dfc259ef4b8,672bf50eac1463c2ad3c747f,672cd6a4c830d1725506cae5,,,,,,,,,,,287.7475,0.9,288.6374,288.6375,290.316,1.116666794,1.6731,0,11,11,46,1,9_to_16,images/Ex15.jpg,images/Ex13.jpg,Ex15,Ex13,,,,,
,,,,,751138,001,61,Female,British,O Level,2024-11-07_15h03.36.772,CatSimMDS,2023.2.3,Win32,59.88023952,6154463474d88dfc259ef4b8,672bf50eac1463c2ad3c747f,672cd6a4c830d1725506cae5,,,,,,,,,,,290.3165,0.9,291.214,291.2141,295.2857,2.041666667,4.0657,0,12,12,18,1,9_to_16,images/Ex11.jpg,images/Ex14.jpg,Ex11,Ex14,,,,,
,,,,,751138,001,61,Female,British,O Level,2024-11-07_15h03.36.772,CatSimMDS,2023.2.3,Win32,59.88023952,6154463474d88dfc259ef4b8,672bf50eac1463c2ad3c747f,672cd6a4c830d1725506cae5,,,,,,,,,,,295.2863,0.7,295.9838,295.9838,297.6458,1.058333397,1.6547,0,13,13,13,1,9_to_16,images/Ex10.jpg,images/Ex16.jpg,Ex10,Ex16,,,,,
,,,,,751138,001,61,Female,British,O Level,2024-11-07_15h03.36.772,CatSimMDS,2023.2.3,Win32,59.88023952,6154463474d88dfc259ef4b8,672bf50eac1463c2ad3c747f,672cd6a4c830d1725506cae5,,,,,,,,,,,297.6463,1,298.6433,298.6433,300.662,1.075000127,2.0171,0,14,14,0,1,9_to_16,images/Ex9.jpg,images/Ex10.jpg,Ex9,Ex10,,,,,
,,,,,751138,001,61,Female,British,O Level,2024-11-07_15h03.36.772,CatSimMDS,2023.2.3,Win32,59.88023952,6154463474d88dfc259ef4b8,672bf50eac1463c2ad3c747f,672cd6a4c830d1725506cae5,,,,,,,,,,,300.6623,0.9,301.5519,301.552,303.0491,1.075000127,1.4942,0,15,15,51,1,9_to_16,images/Ex16.jpg,images/Ex11.jpg,Ex16,Ex11,,,,,
,,,,,751138,001,61,Female,British,O Level,2024-11-07_15h03.36.772,CatSimMDS,2023.2.3,Win32,59.88023952,6154463474d88dfc259ef4b8,672bf50eac1463c2ad3c747f,672cd6a4c830d1725506cae5,,,,,,,,,,,303.0502,0.7,303.746,303.7461,313.1204,1.125,9.3643,0,16,16,12,1,9_to_16,images/Ex10.jpg,images/Ex15.jpg,Ex10,Ex15,,,,,
,,,,,751138,001,61,Female,British,O Level,2024-11-07_15h03.36.772,CatSimMDS,2023.2.3,Win32,59.88023952,6154463474d88dfc259ef4b8,672bf50eac1463c2ad3c747f,672cd6a4c830d1725506cae5,,,,,,,,,,,313.1208,0.7,313.8181,313.8181,315.1646,1.149999936,1.3349,0,17,17,17,1,9_to_16,images/Ex11.jpg,images/Ex13.jpg,Ex11,Ex13,,,,,
,,,,,751138,001,61,Female,British,O Level,2024-11-07_15h03.36.772,CatSimMDS,2023.2.3,Win32,59.88023952,6154463474d88dfc259ef4b8,672bf50eac1463c2ad3c747f,672cd6a4c830d1725506cae5,,,,,,,,,,,315.1652,1,316.1618,316.1619,317.4325,1.149999936,1.2689,0,18,18,53,1,9_to_16,images/Ex16.jpg,images/Ex13.jpg,Ex16,Ex13,,,,,
,,,,,751138,001,61,Female,British,O Level,2024-11-07_15h03.36.772,CatSimMDS,2023.2.3,Win32,59.88023952,6154463474d88dfc259ef4b8,672bf50eac1463c2ad3c747f,672cd6a4c830d1725506cae5,,,,,,,,,,,317.4327,0.9,318.3224,318.3224,320.0255,1.149999936,1.7017,0,19,19,25,1,9_to_16,images/Ex12.jpg,images/Ex14.jpg,Ex12,Ex14,,,,,
,,,,,751138,001,61,Female,British,O Level,2024-11-07_15h03.36.772,CatSimMDS,2023.2.3,Win32,59.88023952,6154463474d88dfc259ef4b8,672bf50eac1463c2ad3c747f,672cd6a4c830d1725506cae5,,,,,,,,,,,320.0258,1.3,321.3145,321.3145,322.8678,1.15833346,1.5515,0,20,20,22,1,9_to_16,images/Ex12.jpg,images/Ex10.jpg,Ex12,Ex10,,,,,
,,,,,751138,001,61,Female,British,O Level,2024-11-07_15h03.36.772,CatSimMDS,2023.2.3,Win32,59.88023952,6154463474d88dfc259ef4b8,672bf50eac1463c2ad3c747f,672cd6a4c830d1725506cae5,,,,,,,,,,,322.8681,1.1,323.9572,323.9573,326.8405,2.008333524,2.8813,0,21,21,38,1,9_to_16,images/Ex14.jpg,images/Ex12.jpg,Ex14,Ex12,,,,,
,,,,,751138,001,61,Female,British,O Level,2024-11-07_15h03.36.772,CatSimMDS,2023.2.3,Win32,59.88023952,6154463474d88dfc259ef4b8,672bf50eac1463c2ad3c747f,672cd6a4c830d1725506cae5,,,,,,,,,,,326.8407,0.7,327.5309,327.531,329.4089,1.125,1.8756,0,22,22,32,1,9_to_16,images/Ex13.jpg,images/Ex14.jpg,Ex13,Ex14,,,,,
,,,,,751138,001,61,Female,British,O Level,2024-11-07_15h03.36.772,CatSimMDS,2023.2.3,Win32,59.88023952,6154463474d88dfc259ef4b8,672bf50eac1463c2ad3c747f,672cd6a4c830d1725506cae5,,,,,,,,,,,329.4093,1,330.4062,330.4062,333.5643,1.125,3.1479,0,23,23,16,1,9_to_16,images/Ex11.jpg,images/Ex12.jpg,Ex11,Ex12,,,,,
,,,,,751138,001,61,Female,British,O Level,2024-11-07_15h03.36.772,CatSimMDS,2023.2.3,Win32,59.88023952,6154463474d88dfc259ef4b8,672bf50eac1463c2ad3c747f,672cd6a4c830d1725506cae5,,,,,,,,,,,333.5647,0.8,334.362,334.3621,336.4731,1.125,2.1013,0,24,24,39,1,9_to_16,images/Ex14.jpg,images/Ex13.jpg,Ex14,Ex13,,,,,
,,,,,751138,001,61,Female,British,O Level,2024-11-07_15h03.36.772,CatSimMDS,2023.2.3,Win32,59.88023952,6154463474d88dfc259ef4b8,672bf50eac1463c2ad3c747f,672cd6a4c830d1725506cae5,,,,,,,,,,,336.4735,1.1,337.5697,337.5698,339.2226,1.14166673,1.6513,0,25,25,15,1,9_to_16,images/Ex11.jpg,images/Ex10.jpg,Ex11,Ex10,,,,,
,,,,,751138,001,61,Female,British,O Level,2024-11-07_15h03.36.772,CatSimMDS,2023.2.3,Win32,59.88023952,6154463474d88dfc259ef4b8,672bf50eac1463c2ad3c747f,672cd6a4c830d1725506cae5,,,,,,,,,,,339.2229,0.8,340.019,340.0192,341.5164,1.14166673,1.4958,0,26,26,36,1,9_to_16,images/Ex14.jpg,images/Ex10.jpg,Ex14,Ex10,,,,,
,,,,,751138,001,61,Female,British,O Level,2024-11-07_15h03.36.772,CatSimMDS,2023.2.3,Win32,59.88023952,6154463474d88dfc259ef4b8,672bf50eac1463c2ad3c747f,672cd6a4c830d1725506cae5,,,,,,,,,,,341.5168,0.5,342.0138,342.0138,344.2093,1.14166673,2.1938,0,27,27,7,1,9_to_16,images/Ex10.jpg,images/Ex9.jpg,Ex10,Ex9,,,,,
,,,,,751138,001,61,Female,British,O Level,2024-11-07_15h03.36.772,CatSimMDS,2023.2.3,Win32,59.88023952,6154463474d88dfc259ef4b8,672bf50eac1463c2ad3c747f,672cd6a4c830d1725506cae5,,,,,,,,,,,344.2096,1,345.1987,345.1988,358.9189,1.14166673,13.7187,0,28,28,54,1,9_to_16,images/Ex16.jpg,images/Ex14.jpg,Ex16,Ex14,,,,,
,,,,,751138,001,61,Female,British,O Level,2024-11-07_15h03.36.772,CatSimMDS,2023.2.3,Win32,59.88023952,6154463474d88dfc259ef4b8,672bf50eac1463c2ad3c747f,672cd6a4c830d1725506cae5,,,,,,,,,,,358.9192,0.7,359.6092,359.6093,363.8385,1.100000064,4.2276,0,29,29,10,1,9_to_16,images/Ex10.jpg,images/Ex13.jpg,Ex10,Ex13,,,,,
,,,,,751138,001,61,Female,British,O Level,2024-11-07_15h03.36.772,CatSimMDS,2023.2.3,Win32,59.88023952,6154463474d88dfc259ef4b8,672bf50eac1463c2ad3c747f,672cd6a4c830d1725506cae5,,,,,,,,,,,363.8388,1.3,365.1276,365.1276,366.8305,1.116666794,1.7011,0,30,30,5,1,9_to_16,images/Ex9.jpg,images/Ex15.jpg,Ex9,Ex15,,,,,
,,,,,751138,001,61,Female,British,O Level,2024-11-07_15h03.36.772,CatSimMDS,2023.2.3,Win32,59.88023952,6154463474d88dfc259ef4b8,672bf50eac1463c2ad3c747f,672cd6a4c830d1725506cae5,,,,,,,,,,,366.8308,1.1,367.9198,367.9199,373.7446,2.116666794,5.8231,0,31,31,52,1,9_to_16,images/Ex16.jpg,images/Ex12.jpg,Ex16,Ex12,,,,,
,,,,,751138,001,61,Female,British,O Level,2024-11-07_15h03.36.772,CatSimMDS,2023.2.3,Win32,59.88023952,6154463474d88dfc259ef4b8,672bf50eac1463c2ad3c747f,672cd6a4c830d1725506cae5,,,,,,,,,,,373.7449,0.5,374.242,374.242,377.1353,1.14166673,2.8918,0,32,32,42,1,9_to_16,images/Ex15.jpg,images/Ex9.jpg,Ex15,Ex9,,,,,
,,,,,751138,001,61,Female,British,O Level,2024-11-07_15h03.36.772,CatSimMDS,2023.2.3,Win32,59.88023952,6154463474d88dfc259ef4b8,672bf50eac1463c2ad3c747f,672cd6a4c830d1725506cae5,,,,,,,,,,,377.1355,0.8,377.9319,377.9319,379.4788,1.14166673,1.5453,0,33,33,29,1,9_to_16,images/Ex13.jpg,images/Ex10.jpg,Ex13,Ex10,,,,,
,,,,,751138,001,61,Female,British,O Level,2024-11-07_15h03.36.772,CatSimMDS,2023.2.3,Win32,59.88023952,6154463474d88dfc259ef4b8,672bf50eac1463c2ad3c747f,672cd6a4c830d1725506cae5,,,,,,,,,,,379.4792,1.2,380.6682,380.6682,382.5206,1.14166673,1.8509,0,34,34,45,1,9_to_16,images/Ex15.jpg,images/Ex12.jpg,Ex15,Ex12,,,,,
,,,,,751138,001,61,Female,British,O Level,2024-11-07_15h03.36.772,CatSimMDS,2023.2.3,Win32,59.88023952,6154463474d88dfc259ef4b8,672bf50eac1463c2ad3c747f,672cd6a4c830d1725506cae5,,,,,,,,,,,382.5209,0.5,383.0119,383.0119,384.6979,1.14166673,1.6842,0,35,35,34,1,9_to_16,images/Ex13.jpg,images/Ex16.jpg,Ex13,Ex16,,,,,
,,,,,751138,001,61,Female,British,O Level,2024-11-07_15h03.36.772,CatSimMDS,2023.2.3,Win32,59.88023952,6154463474d88dfc259ef4b8,672bf50eac1463c2ad3c747f,672cd6a4c830d1725506cae5,,,,,,,,,,,384.6981,1.3,385.9932,385.9932,387.7399,1.14166673,1.7449,0,36,36,8,1,9_to_16,images/Ex10.jpg,images/Ex11.jpg,Ex10,Ex11,,,,,
,,,,,751138,001,61,Female,British,O Level,2024-11-07_15h03.36.772,CatSimMDS,2023.2.3,Win32,59.88023952,6154463474d88dfc259ef4b8,672bf50eac1463c2ad3c747f,672cd6a4c830d1725506cae5,,,,,,,,,,,387.7402,0.6,388.3306,388.3306,391.2469,1.14166673,2.9148,0,37,37,20,1,9_to_16,images/Ex11.jpg,images/Ex16.jpg,Ex11,Ex16,,,,,
,,,,,751138,001,61,Female,British,O Level,2024-11-07_15h03.36.772,CatSimMDS,2023.2.3,Win32,59.88023952,6154463474d88dfc259ef4b8,672bf50eac1463c2ad3c747f,672cd6a4c830d1725506cae5,,,,,,,,,,,391.2472,1.3,392.5358,392.5358,395.0366,1.14166673,2.499,0,38,38,28,1,9_to_16,images/Ex13.jpg,images/Ex9.jpg,Ex13,Ex9,,,,,
,,,,,751138,001,61,Female,British,O Level,2024-11-07_15h03.36.772,CatSimMDS,2023.2.3,Win32,59.88023952,6154463474d88dfc259ef4b8,672bf50eac1463c2ad3c747f,672cd6a4c830d1725506cae5,,,,,,,,,,,395.0369,1.2,396.2257,396.2258,397.6293,1.14166673,1.4017,0,39,39,21,1,9_to_16,images/Ex12.jpg,images/Ex9.jpg,Ex12,Ex9,,,,,
,,,,,751138,001,61,Female,British,O Level,2024-11-07_15h03.36.772,CatSimMDS,2023.2.3,Win32,59.88023952,6154463474d88dfc259ef4b8,672bf50eac1463c2ad3c747f,672cd6a4c830d1725506cae5,,,,,,,,,,,397.6296,0.5,398.1204,398.1204,399.7233,1.14166673,1.6013,0,40,40,40,1,9_to_16,images/Ex14.jpg,images/Ex15.jpg,Ex14,Ex15,,,,,
,,,,,751138,001,61,Female,British,O Level,2024-11-07_15h03.36.772,CatSimMDS,2023.2.3,Win32,59.88023952,6154463474d88dfc259ef4b8,672bf50eac1463c2ad3c747f,672cd6a4c830d1725506cae5,,,,,,,,,,,399.7236,0.8,400.514,400.514,406.1649,1.14166673,5.6455,0,41,41,19,1,9_to_16,images/Ex11.jpg,images/Ex15.jpg,Ex11,Ex15,,,,,
,,,,,751138,001,61,Female,British,O Level,2024-11-07_15h03.36.772,CatSimMDS,2023.2.3,Win32,59.88023952,6154463474d88dfc259ef4b8,672bf50eac1463c2ad3c747f,672cd6a4c830d1725506cae5,,,,,,,,,,,406.1654,0.8,406.9628,406.9628,408.3256,1.14166673,1.3551,0,42,42,24,1,9_to_16,images/Ex12.jpg,images/Ex13.jpg,Ex12,Ex13,,,,,
,,,,,751138,001,61,Female,British,O Level,2024-11-07_15h03.36.772,CatSimMDS,2023.2.3,Win32,59.88023952,6154463474d88dfc259ef4b8,672bf50eac1463c2ad3c747f,672cd6a4c830d1725506cae5,,,,,,,,,,,408.3261,1.4,409.7219,409.7219,411.3682,1.14166673,1.6441,0,43,43,4,1,9_to_16,images/Ex9.jpg,images/Ex14.jpg,Ex9,Ex14,,,,,
,,,,,751138,001,61,Female,British,O Level,2024-11-07_15h03.36.772,CatSimMDS,2023.2.3,Win32,59.88023952,6154463474d88dfc259ef4b8,672bf50eac1463c2ad3c747f,672cd6a4c830d1725506cae5,,,,,,,,,,,411.369,1.2,412.5641,412.5642,414.2668,1.14166673,1.701,0,44,44,48,1,9_to_16,images/Ex15.jpg,images/Ex16.jpg,Ex15,Ex16,,,,,
,,,,,751138,001,61,Female,British,O Level,2024-11-07_15h03.36.772,CatSimMDS,2023.2.3,Win32,59.88023952,6154463474d88dfc259ef4b8,672bf50eac1463c2ad3c747f,672cd6a4c830d1725506cae5,,,,,,,,,,,414.2671,1.4,415.6556,415.6557,417.2756,1.14166673,1.6183,0,45,45,26,1,9_to_16,images/Ex12.jpg,images/Ex15.jpg,Ex12,Ex15,,,,,
,,,,,751138,001,61,Female,British,O Level,2024-11-07_15h03.36.772,CatSimMDS,2023.2.3,Win32,59.88023952,6154463474d88dfc259ef4b8,672bf50eac1463c2ad3c747f,672cd6a4c830d1725506cae5,,,,,,,,,,,417.276,1.4,418.6641,418.6641,419.9348,1.14166673,1.2691,0,46,46,9,1,9_to_16,images/Ex10.jpg,images/Ex12.jpg,Ex10,Ex12,,,,,
,,,,,751138,001,61,Female,British,O Level,2024-11-07_15h03.36.772,CatSimMDS,2023.2.3,Win32,59.88023952,6154463474d88dfc259ef4b8,672bf50eac1463c2ad3c747f,672cd6a4c830d1725506cae5,,,,,,,,,,,419.935,0.9,420.8249,420.8249,422.5534,1.14166673,1.725,0,47,47,31,1,9_to_16,images/Ex13.jpg,images/Ex12.jpg,Ex13,Ex12,,,,,
,,,,,751138,001,61,Female,British,O Level,2024-11-07_15h03.36.772,CatSimMDS,2023.2.3,Win32,59.88023952,6154463474d88dfc259ef4b8,672bf50eac1463c2ad3c747f,672cd6a4c830d1725506cae5,,,,,,,,,,,422.5542,1,423.5508,423.5509,424.8547,1.14166673,1.3022,0,48,48,30,1,9_to_16,images/Ex13.jpg,images/Ex11.jpg,Ex13,Ex11,,,,,
,,,,,751138,001,61,Female,British,O Level,2024-11-07_15h03.36.772,CatSimMDS,2023.2.3,Win32,59.88023952,6154463474d88dfc259ef4b8,672bf50eac1463c2ad3c747f,672cd6a4c830d1725506cae5,,,,,,,,,,,424.8551,1.2,426.0498,426.0499,428.2952,1.14166673,2.2438,0,49,49,1,1,9_to_16,images/Ex9.jpg,images/Ex11.jpg,Ex9,Ex11,,,,,
,,,,,751138,001,61,Female,British,O Level,2024-11-07_15h03.36.772,CatSimMDS,2023.2.3,Win32,59.88023952,6154463474d88dfc259ef4b8,672bf50eac1463c2ad3c747f,672cd6a4c830d1725506cae5,,,,,,,,,,,428.2955,1,429.2847,429.2848,433.1317,1.14166673,3.8455,0,50,50,43,1,9_to_16,images/Ex15.jpg,images/Ex10.jpg,Ex15,Ex10,,,,,
,,,,,751138,001,61,Female,British,O Level,2024-11-07_15h03.36.772,CatSimMDS,2023.2.3,Win32,59.88023952,6154463474d88dfc259ef4b8,672bf50eac1463c2ad3c747f,672cd6a4c830d1725506cae5,,,,,,,,,,,433.132,0.8,433.9223,433.9223,435.5252,1.14166673,1.6013,0,51,51,11,1,9_to_16,images/Ex10.jpg,images/Ex14.jpg,Ex10,Ex14,,,,,
,,,,,751138,001,61,Female,British,O Level,2024-11-07_15h03.36.772,CatSimMDS,2023.2.3,Win32,59.88023952,6154463474d88dfc259ef4b8,672bf50eac1463c2ad3c747f,672cd6a4c830d1725506cae5,,,,,,,,,,,435.5255,1.2,436.7144,436.7144,440.9105,2.058333397,4.1947,0,52,52,35,1,9_to_16,images/Ex14.jpg,images/Ex9.jpg,Ex14,Ex9,,,,,
,,,,,751138,001,61,Female,British,O Level,2024-11-07_15h03.36.772,CatSimMDS,2023.2.3,Win32,59.88023952,6154463474d88dfc259ef4b8,672bf50eac1463c2ad3c747f,672cd6a4c830d1725506cae5,,,,,,,,,,,440.9108,1.4,442.2992,442.2992,444.0686,1.083333333,1.7678,0,53,53,50,1,9_to_16,images/Ex16.jpg,images/Ex10.jpg,Ex16,Ex10,,,,,
,,,,,751138,001,61,Female,British,O Level,2024-11-07_15h03.36.772,CatSimMDS,2023.2.3,Win32,59.88023952,6154463474d88dfc259ef4b8,672bf50eac1463c2ad3c747f,672cd6a4c830d1725506cae5,,,,,,,,,,,444.0689,0.9,444.9587,444.9588,447.9745,1.083333333,3.0141,0,54,54,2,1,9_to_16,images/Ex9.jpg,images/Ex12.jpg,Ex9,Ex12,,,,,
,,,,,751138,001,61,Female,British,O Level,2024-11-07_15h03.36.772,CatSimMDS,2023.2.3,Win32,59.88023952,6154463474d88dfc259ef4b8,672bf50eac1463c2ad3c747f,672cd6a4c830d1725506cae5,,,,,,,,,,,,,,,,,,,,,,,,,,,,447.9749,483.3371,space,35.3217,