infCons.started,infCons.stopped,resp_consent.keys,resp_consent.rt,resp_consent.duration,participant,session,Age?,Gender?,Nationality?,Highest Educational Degree?,date,expName,psychopyVersion,OS,frameRate,PROLIFIC_PID,STUDY_ID,SESSION_ID,instructions.started,instructions.stopped,resp_instructions.keys,resp_instructions.rt,resp_instructions.duration,nextTask.started,nextTask.stopped,ready_task.keys,ready_task.rt,ready_task.duration,fixation.started,ITI,fixation.stopped,stim.started,stim.stopped,slider.response,slider.rt,trials.thisRepN,trials.thisTrialN,trials.thisN,trials.thisIndex,trials.ran,task,exemplarLeft,exemplarRight,left,right,end.started,end.stopped,resp_end.keys,resp_end.rt,resp_end.duration
0.000300001,32.0154,space,29.9898,0.000200001,794967,001,44,male,british,hnd,2024-11-07_15h04.11.847,CatSimMDS,2023.2.3,Win32,0.495343769,5bd0d2c1263e0a00016d3c7c,672bf50eac1463c2ad3c747f,672cd6b83e0961477a1b1d7e,,,,,,,,,,,,,,,,,,,,,,,,,,,,,,,,
,,,,,794967,001,44,male,british,hnd,2024-11-07_15h04.11.847,CatSimMDS,2023.2.3,Win32,0.495343769,5bd0d2c1263e0a00016d3c7c,672bf50eac1463c2ad3c747f,672cd6b83e0961477a1b1d7e,32.0161,34.0538,space,0.001099998,0.000400002,,,,,,,,,,,,,,,,,,,,,,,,,,,
,,,,,794967,001,44,male,british,hnd,2024-11-07_15h04.11.847,CatSimMDS,2023.2.3,Win32,0.495343769,5bd0d2c1263e0a00016d3c7c,672bf50eac1463c2ad3c747f,672cd6b83e0961477a1b1d7e,,,,,,34.0593,37.1025,space,2.032799999,0.000299999,37.1095,1.4,39.1314,39.1317,46.2294,3.983333333,7.095299999,0,0,0,42,1,1_to_8,images/Ex7.jpg,images/Ex1.jpg,Ex7,Ex1,,,,,
,,,,,794967,001,44,male,british,hnd,2024-11-07_15h04.11.847,CatSimMDS,2023.2.3,Win32,0.495343769,5bd0d2c1263e0a00016d3c7c,672bf50eac1463c2ad3c747f,672cd6b83e0961477a1b1d7e,,,,,,,,,,,46.2297,1.1,47.236,47.236,52.3139,3.983333333,5.076799999,0,1,1,6,1,1_to_8,images/Ex1.jpg,images/Ex8.jpg,Ex1,Ex8,,,,,
,,,,,794967,001,44,male,british,hnd,2024-11-07_15h04.11.847,CatSimMDS,2023.2.3,Win32,0.495343769,5bd0d2c1263e0a00016d3c7c,672bf50eac1463c2ad3c747f,672cd6b83e0961477a1b1d7e,,,,,,,,,,,52.3143,0.8,53.3361,53.3361,57.3942,3.983333333,4.0559,0,2,2,30,1,1_to_8,images/Ex5.jpg,images/Ex3.jpg,Ex5,Ex3,,,,,
,,,,,794967,001,44,male,british,hnd,2024-11-07_15h04.11.847,CatSimMDS,2023.2.3,Win32,0.495343769,5bd0d2c1263e0a00016d3c7c,672bf50eac1463c2ad3c747f,672cd6b83e0961477a1b1d7e,,,,,,,,,,,57.3947,0.9,58.4152,58.4153,62.4698,4.991666667,4.052199999,0,3,3,36,1,1_to_8,images/Ex6.jpg,images/Ex2.jpg,Ex6,Ex2,,,,,
,,,,,794967,001,44,male,british,hnd,2024-11-07_15h04.11.847,CatSimMDS,2023.2.3,Win32,0.495343769,5bd0d2c1263e0a00016d3c7c,672bf50eac1463c2ad3c747f,672cd6b83e0961477a1b1d7e,,,,,,,,,,,62.4703,0.8,63.4892,63.4893,74.691,3.025,11.1997,0,4,4,16,1,1_to_8,images/Ex3.jpg,images/Ex4.jpg,Ex3,Ex4,,,,,
,,,,,794967,001,44,male,british,hnd,2024-11-07_15h04.11.847,CatSimMDS,2023.2.3,Win32,0.495343769,5bd0d2c1263e0a00016d3c7c,672bf50eac1463c2ad3c747f,672cd6b83e0961477a1b1d7e,,,,,,,,,,,74.6916,0.6,74.6917,74.6917,78.7639,3.966666667,4.07,0,5,5,1,1,1_to_8,images/Ex1.jpg,images/Ex3.jpg,Ex1,Ex3,,,,,
,,,,,794967,001,44,male,british,hnd,2024-11-07_15h04.11.847,CatSimMDS,2023.2.3,Win32,0.495343769,5bd0d2c1263e0a00016d3c7c,672bf50eac1463c2ad3c747f,672cd6b83e0961477a1b1d7e,,,,,,,,,,,78.7643,1.5,79.7721,79.7722,85.8569,3.008333333,6.0826,0,6,6,0,1,1_to_8,images/Ex1.jpg,images/Ex2.jpg,Ex1,Ex2,,,,,
,,,,,794967,001,44,male,british,hnd,2024-11-07_15h04.11.847,CatSimMDS,2023.2.3,Win32,0.495343769,5bd0d2c1263e0a00016d3c7c,672bf50eac1463c2ad3c747f,672cd6b83e0961477a1b1d7e,,,,,,,,,,,85.8575,0.7,85.8577,85.8577,90.9396,3.008333333,5.079799999,0,7,7,32,1,1_to_8,images/Ex5.jpg,images/Ex6.jpg,Ex5,Ex6,,,,,
,,,,,794967,001,44,male,british,hnd,2024-11-07_15h04.11.847,CatSimMDS,2023.2.3,Win32,0.495343769,5bd0d2c1263e0a00016d3c7c,672bf50eac1463c2ad3c747f,672cd6b83e0961477a1b1d7e,,,,,,,,,,,90.9401,1.3,91.9586,91.9587,96.0208,3.983333333,4.060700001,0,8,8,20,1,1_to_8,images/Ex3.jpg,images/Ex8.jpg,Ex3,Ex8,,,,,
,,,,,794967,001,44,male,british,hnd,2024-11-07_15h04.11.847,CatSimMDS,2023.2.3,Win32,0.495343769,5bd0d2c1263e0a00016d3c7c,672bf50eac1463c2ad3c747f,672cd6b83e0961477a1b1d7e,,,,,,,,,,,96.0208,1.2,97.032,97.0321,101.1066,4.05,4.072299999,0,9,9,53,1,1_to_8,images/Ex8.jpg,images/Ex5.jpg,Ex8,Ex5,,,,,
,,,,,794967,001,44,male,british,hnd,2024-11-07_15h04.11.847,CatSimMDS,2023.2.3,Win32,0.495343769,5bd0d2c1263e0a00016d3c7c,672bf50eac1463c2ad3c747f,672cd6b83e0961477a1b1d7e,,,,,,,,,,,101.1071,0.6,101.1073,101.1073,106.181,2.95,5.0715,0,10,10,51,1,1_to_8,images/Ex8.jpg,images/Ex3.jpg,Ex8,Ex3,,,,,
,,,,,794967,001,44,male,british,hnd,2024-11-07_15h04.11.847,CatSimMDS,2023.2.3,Win32,0.495343769,5bd0d2c1263e0a00016d3c7c,672bf50eac1463c2ad3c747f,672cd6b83e0961477a1b1d7e,,,,,,,,,,,106.1815,1.5,107.1919,107.1919,112.2601,2.95,5.066099998,0,11,11,18,1,1_to_8,images/Ex3.jpg,images/Ex6.jpg,Ex3,Ex6,,,,,
,,,,,794967,001,44,male,british,hnd,2024-11-07_15h04.11.847,CatSimMDS,2023.2.3,Win32,0.495343769,5bd0d2c1263e0a00016d3c7c,672bf50eac1463c2ad3c747f,672cd6b83e0961477a1b1d7e,,,,,,,,,,,112.2605,1,113.2783,113.2784,180.6346,3.908333333,67.1096,0,12,12,27,1,1_to_8,images/Ex4.jpg,images/Ex8.jpg,Ex4,Ex8,,,,,
,,,,,794967,001,44,male,british,hnd,2024-11-07_15h04.11.847,CatSimMDS,2023.2.3,Win32,0.495343769,5bd0d2c1263e0a00016d3c7c,672bf50eac1463c2ad3c747f,672cd6b83e0961477a1b1d7e,,,,,,,,,,,180.6352,1.5,180.6354,180.6354,185.681,3.908333333,5.0445,0,13,13,24,1,1_to_8,images/Ex4.jpg,images/Ex5.jpg,Ex4,Ex5,,,,,
,,,,,794967,001,44,male,british,hnd,2024-11-07_15h04.11.847,CatSimMDS,2023.2.3,Win32,0.495343769,5bd0d2c1263e0a00016d3c7c,672bf50eac1463c2ad3c747f,672cd6b83e0961477a1b1d7e,,,,,,,,,,,185.6811,0.8,186.6894,186.6894,192.7776,3.908333333,6.086299999,0,14,14,17,1,1_to_8,images/Ex3.jpg,images/Ex5.jpg,Ex3,Ex5,,,,,
,,,,,794967,001,44,male,british,hnd,2024-11-07_15h04.11.847,CatSimMDS,2023.2.3,Win32,0.495343769,5bd0d2c1263e0a00016d3c7c,672bf50eac1463c2ad3c747f,672cd6b83e0961477a1b1d7e,,,,,,,,,,,192.7781,0.6,192.7782,192.7782,198.8421,4.816666667,6.061300001,0,15,15,14,1,1_to_8,images/Ex3.jpg,images/Ex1.jpg,Ex3,Ex1,,,,,
,,,,,794967,001,44,male,british,hnd,2024-11-07_15h04.11.847,CatSimMDS,2023.2.3,Win32,0.495343769,5bd0d2c1263e0a00016d3c7c,672bf50eac1463c2ad3c747f,672cd6b83e0961477a1b1d7e,,,,,,,,,,,198.8425,0.7,198.8425,198.8426,205.9189,2.983333333,7.074799999,0,16,16,50,1,1_to_8,images/Ex8.jpg,images/Ex2.jpg,Ex8,Ex2,,,,,
,,,,,794967,001,44,male,british,hnd,2024-11-07_15h04.11.847,CatSimMDS,2023.2.3,Win32,0.495343769,5bd0d2c1263e0a00016d3c7c,672bf50eac1463c2ad3c747f,672cd6b83e0961477a1b1d7e,,,,,,,,,,,205.9193,0.6,205.9195,205.9195,211.9919,2.983333333,6.0706,0,17,17,43,1,1_to_8,images/Ex7.jpg,images/Ex2.jpg,Ex7,Ex2,,,,,
,,,,,794967,001,44,male,british,hnd,2024-11-07_15h04.11.847,CatSimMDS,2023.2.3,Win32,0.495343769,5bd0d2c1263e0a00016d3c7c,672bf50eac1463c2ad3c747f,672cd6b83e0961477a1b1d7e,,,,,,,,,,,211.9924,0.8,212.998,212.9981,218.0479,2.983333333,5.047800001,0,18,18,12,1,1_to_8,images/Ex2.jpg,images/Ex7.jpg,Ex2,Ex7,,,,,
,,,,,794967,001,44,male,british,hnd,2024-11-07_15h04.11.847,CatSimMDS,2023.2.3,Win32,0.495343769,5bd0d2c1263e0a00016d3c7c,672bf50eac1463c2ad3c747f,672cd6b83e0961477a1b1d7e,,,,,,,,,,,218.0483,0.9,219.0665,219.0665,231.3055,3.025,12.2368,0,19,19,21,1,1_to_8,images/Ex4.jpg,images/Ex1.jpg,Ex4,Ex1,,,,,
,,,,,794967,001,44,male,british,hnd,2024-11-07_15h04.11.847,CatSimMDS,2023.2.3,Win32,0.495343769,5bd0d2c1263e0a00016d3c7c,672bf50eac1463c2ad3c747f,672cd6b83e0961477a1b1d7e,,,,,,,,,,,231.3059,1.5,232.3119,232.3121,237.3787,3.025,5.0646,0,20,20,19,1,1_to_8,images/Ex3.jpg,images/Ex7.jpg,Ex3,Ex7,,,,,
,,,,,794967,001,44,male,british,hnd,2024-11-07_15h04.11.847,CatSimMDS,2023.2.3,Win32,0.495343769,5bd0d2c1263e0a00016d3c7c,672bf50eac1463c2ad3c747f,672cd6b83e0961477a1b1d7e,,,,,,,,,,,237.3789,0.9,238.386,238.3861,243.4424,2.966666667,5.055,0,21,21,46,1,1_to_8,images/Ex7.jpg,images/Ex5.jpg,Ex7,Ex5,,,,,
,,,,,794967,001,44,male,british,hnd,2024-11-07_15h04.11.847,CatSimMDS,2023.2.3,Win32,0.495343769,5bd0d2c1263e0a00016d3c7c,672bf50eac1463c2ad3c747f,672cd6b83e0961477a1b1d7e,,,,,,,,,,,243.4425,0.9,244.4532,244.4532,249.4964,2.966666667,5.040799999,0,22,22,31,1,1_to_8,images/Ex5.jpg,images/Ex4.jpg,Ex5,Ex4,,,,,
,,,,,794967,001,44,male,british,hnd,2024-11-07_15h04.11.847,CatSimMDS,2023.2.3,Win32,0.495343769,5bd0d2c1263e0a00016d3c7c,672bf50eac1463c2ad3c747f,672cd6b83e0961477a1b1d7e,,,,,,,,,,,249.4969,1,250.5041,250.5041,255.5453,2.966666667,5.0385,0,23,23,29,1,1_to_8,images/Ex5.jpg,images/Ex2.jpg,Ex5,Ex2,,,,,
,,,,,794967,001,44,male,british,hnd,2024-11-07_15h04.11.847,CatSimMDS,2023.2.3,Win32,0.495343769,5bd0d2c1263e0a00016d3c7c,672bf50eac1463c2ad3c747f,672cd6b83e0961477a1b1d7e,,,,,,,,,,,255.5458,0.6,255.5459,255.5459,260.5966,2.966666667,5.0489,0,24,24,4,1,1_to_8,images/Ex1.jpg,images/Ex6.jpg,Ex1,Ex6,,,,,
,,,,,794967,001,44,male,british,hnd,2024-11-07_15h04.11.847,CatSimMDS,2023.2.3,Win32,0.495343769,5bd0d2c1263e0a00016d3c7c,672bf50eac1463c2ad3c747f,672cd6b83e0961477a1b1d7e,,,,,,,,,,,260.597,1.4,261.6181,261.6182,267.6809,2.966666667,6.059799999,0,25,25,48,1,1_to_8,images/Ex7.jpg,images/Ex8.jpg,Ex7,Ex8,,,,,
,,,,,794967,001,44,male,british,hnd,2024-11-07_15h04.11.847,CatSimMDS,2023.2.3,Win32,0.495343769,5bd0d2c1263e0a00016d3c7c,672bf50eac1463c2ad3c747f,672cd6b83e0961477a1b1d7e,,,,,,,,,,,267.6814,1,268.6872,268.6872,274.7497,3.95,6.0596,0,26,26,8,1,1_to_8,images/Ex2.jpg,images/Ex3.jpg,Ex2,Ex3,,,,,
,,,,,794967,001,44,male,british,hnd,2024-11-07_15h04.11.847,CatSimMDS,2023.2.3,Win32,0.495343769,5bd0d2c1263e0a00016d3c7c,672bf50eac1463c2ad3c747f,672cd6b83e0961477a1b1d7e,,,,,,,,,,,274.7502,1,275.754,275.754,281.8267,3.991666667,6.071099998,0,27,27,9,1,1_to_8,images/Ex2.jpg,images/Ex4.jpg,Ex2,Ex4,,,,,
,,,,,794967,001,44,male,british,hnd,2024-11-07_15h04.11.847,CatSimMDS,2023.2.3,Win32,0.495343769,5bd0d2c1263e0a00016d3c7c,672bf50eac1463c2ad3c747f,672cd6b83e0961477a1b1d7e,,,,,,,,,,,281.827,0.8,282.833,282.833,287.9034,4.025,5.069699999,0,28,28,40,1,1_to_8,images/Ex6.jpg,images/Ex7.jpg,Ex6,Ex7,,,,,
,,,,,794967,001,44,male,british,hnd,2024-11-07_15h04.11.847,CatSimMDS,2023.2.3,Win32,0.495343769,5bd0d2c1263e0a00016d3c7c,672bf50eac1463c2ad3c747f,672cd6b83e0961477a1b1d7e,,,,,,,,,,,287.9036,0.8,288.9138,288.9139,293.96,3.966666667,5.043699999,0,29,29,15,1,1_to_8,images/Ex3.jpg,images/Ex2.jpg,Ex3,Ex2,,,,,
,,,,,794967,001,44,male,british,hnd,2024-11-07_15h04.11.847,CatSimMDS,2023.2.3,Win32,0.495343769,5bd0d2c1263e0a00016d3c7c,672bf50eac1463c2ad3c747f,672cd6b83e0961477a1b1d7e,,,,,,,,,,,293.9604,1.4,294.9627,294.9627,300.0275,3.433333333,5.0631,0,30,30,7,1,1_to_8,images/Ex2.jpg,images/Ex1.jpg,Ex2,Ex1,,,,,
,,,,,794967,001,44,male,british,hnd,2024-11-07_15h04.11.847,CatSimMDS,2023.2.3,Win32,0.495343769,5bd0d2c1263e0a00016d3c7c,672bf50eac1463c2ad3c747f,672cd6b83e0961477a1b1d7e,,,,,,,,,,,300.028,1.3,301.0304,301.0304,307.1262,3.325,6.0946,0,31,31,28,1,1_to_8,images/Ex5.jpg,images/Ex1.jpg,Ex5,Ex1,,,,,
,,,,,794967,001,44,male,british,hnd,2024-11-07_15h04.11.847,CatSimMDS,2023.2.3,Win32,0.495343769,5bd0d2c1263e0a00016d3c7c,672bf50eac1463c2ad3c747f,672cd6b83e0961477a1b1d7e,,,,,,,,,,,307.1266,1,308.136,308.136,314.2092,3,6.0716,0,32,32,47,1,1_to_8,images/Ex7.jpg,images/Ex6.jpg,Ex7,Ex6,,,,,
,,,,,794967,001,44,male,british,hnd,2024-11-07_15h04.11.847,CatSimMDS,2023.2.3,Win32,0.495343769,5bd0d2c1263e0a00016d3c7c,672bf50eac1463c2ad3c747f,672cd6b83e0961477a1b1d7e,,,,,,,,,,,314.2098,0.7,314.2099,314.2099,319.2608,3,5.0486,0,33,33,52,1,1_to_8,images/Ex8.jpg,images/Ex4.jpg,Ex8,Ex4,,,,,
,,,,,794967,001,44,male,british,hnd,2024-11-07_15h04.11.847,CatSimMDS,2023.2.3,Win32,0.495343769,5bd0d2c1263e0a00016d3c7c,672bf50eac1463c2ad3c747f,672cd6b83e0961477a1b1d7e,,,,,,,,,,,319.2614,0.6,319.2616,319.2616,324.305,3,5.0414,0,34,34,35,1,1_to_8,images/Ex6.jpg,images/Ex1.jpg,Ex6,Ex1,,,,,
,,,,,794967,001,44,male,british,hnd,2024-11-07_15h04.11.847,CatSimMDS,2023.2.3,Win32,0.495343769,5bd0d2c1263e0a00016d3c7c,672bf50eac1463c2ad3c747f,672cd6b83e0961477a1b1d7e,,,,,,,,,,,324.3055,0.9,325.3234,325.3234,330.3725,4.016666667,5.0479,0,35,35,44,1,1_to_8,images/Ex7.jpg,images/Ex3.jpg,Ex7,Ex3,,,,,
,,,,,794967,001,44,male,british,hnd,2024-11-07_15h04.11.847,CatSimMDS,2023.2.3,Win32,0.495343769,5bd0d2c1263e0a00016d3c7c,672bf50eac1463c2ad3c747f,672cd6b83e0961477a1b1d7e,,,,,,,,,,,330.3728,0.8,331.3786,331.3786,336.4311,4.016666667,5.05,0,36,36,10,1,1_to_8,images/Ex2.jpg,images/Ex5.jpg,Ex2,Ex5,,,,,
,,,,,794967,001,44,male,british,hnd,2024-11-07_15h04.11.847,CatSimMDS,2023.2.3,Win32,0.495343769,5bd0d2c1263e0a00016d3c7c,672bf50eac1463c2ad3c747f,672cd6b83e0961477a1b1d7e,,,,,,,,,,,336.4316,0.9,337.4378,337.4378,342.5025,3.025,5.062299999,0,37,37,22,1,1_to_8,images/Ex4.jpg,images/Ex2.jpg,Ex4,Ex2,,,,,
,,,,,794967,001,44,male,british,hnd,2024-11-07_15h04.11.847,CatSimMDS,2023.2.3,Win32,0.495343769,5bd0d2c1263e0a00016d3c7c,672bf50eac1463c2ad3c747f,672cd6b83e0961477a1b1d7e,,,,,,,,,,,342.5031,1,343.5049,343.5049,349.5806,2.983333333,6.075200001,0,38,38,34,1,1_to_8,images/Ex5.jpg,images/Ex8.jpg,Ex5,Ex8,,,,,
,,,,,794967,001,44,male,british,hnd,2024-11-07_15h04.11.847,CatSimMDS,2023.2.3,Win32,0.495343769,5bd0d2c1263e0a00016d3c7c,672bf50eac1463c2ad3c747f,672cd6b83e0961477a1b1d7e,,,,,,,,,,,349.5807,1.2,350.5896,350.5896,354.6333,2.983333333,4.0424,0,39,39,49,1,1_to_8,images/Ex8.jpg,images/Ex1.jpg,Ex8,Ex1,,,,,
,,,,,794967,001,44,male,british,hnd,2024-11-07_15h04.11.847,CatSimMDS,2023.2.3,Win32,0.495343769,5bd0d2c1263e0a00016d3c7c,672bf50eac1463c2ad3c747f,672cd6b83e0961477a1b1d7e,,,,,,,,,,,354.6337,1,355.6405,355.6405,363.7273,2.983333333,8.0855,0,40,40,25,1,1_to_8,images/Ex4.jpg,images/Ex6.jpg,Ex4,Ex6,,,,,
,,,,,794967,001,44,male,british,hnd,2024-11-07_15h04.11.847,CatSimMDS,2023.2.3,Win32,0.495343769,5bd0d2c1263e0a00016d3c7c,672bf50eac1463c2ad3c747f,672cd6b83e0961477a1b1d7e,,,,,,,,,,,363.7277,1.2,364.7399,364.74,370.8052,3.975,6.063300001,0,41,41,2,1,1_to_8,images/Ex1.jpg,images/Ex4.jpg,Ex1,Ex4,,,,,
,,,,,794967,001,44,male,british,hnd,2024-11-07_15h04.11.847,CatSimMDS,2023.2.3,Win32,0.495343769,5bd0d2c1263e0a00016d3c7c,672bf50eac1463c2ad3c747f,672cd6b83e0961477a1b1d7e,,,,,,,,,,,370.8057,1.1,371.8156,371.8157,378.9174,2.99768304,7.099299999,0,42,42,41,1,1_to_8,images/Ex6.jpg,images/Ex8.jpg,Ex6,Ex8,,,,,
,,,,,794967,001,44,male,british,hnd,2024-11-07_15h04.11.847,CatSimMDS,2023.2.3,Win32,0.495343769,5bd0d2c1263e0a00016d3c7c,672bf50eac1463c2ad3c747f,672cd6b83e0961477a1b1d7e,,,,,,,,,,,378.918,0.8,380.9365,380.9365,385.006,3.558333333,4.0686,0,43,43,45,1,1_to_8,images/Ex7.jpg,images/Ex4.jpg,Ex7,Ex4,,,,,
,,,,,794967,001,44,male,british,hnd,2024-11-07_15h04.11.847,CatSimMDS,2023.2.3,Win32,0.495343769,5bd0d2c1263e0a00016d3c7c,672bf50eac1463c2ad3c747f,672cd6b83e0961477a1b1d7e,,,,,,,,,,,385.0062,0.8,386.0159,386.016,392.0877,2.966666667,6.0704,0,44,44,54,1,1_to_8,images/Ex8.jpg,images/Ex6.jpg,Ex8,Ex6,,,,,
,,,,,794967,001,44,male,british,hnd,2024-11-07_15h04.11.847,CatSimMDS,2023.2.3,Win32,0.495343769,5bd0d2c1263e0a00016d3c7c,672bf50eac1463c2ad3c747f,672cd6b83e0961477a1b1d7e,,,,,,,,,,,392.0881,1.2,393.0946,393.0947,398.1603,2.966666667,5.063800001,0,45,45,23,1,1_to_8,images/Ex4.jpg,images/Ex3.jpg,Ex4,Ex3,,,,,
,,,,,794967,001,44,male,british,hnd,2024-11-07_15h04.11.847,CatSimMDS,2023.2.3,Win32,0.495343769,5bd0d2c1263e0a00016d3c7c,672bf50eac1463c2ad3c747f,672cd6b83e0961477a1b1d7e,,,,,,,,,,,398.1607,1.2,399.1706,399.1707,404.229,2.966666667,5.0554,0,46,46,5,1,1_to_8,images/Ex1.jpg,images/Ex7.jpg,Ex1,Ex7,,,,,
,,,,,794967,001,44,male,british,hnd,2024-11-07_15h04.11.847,CatSimMDS,2023.2.3,Win32,0.495343769,5bd0d2c1263e0a00016d3c7c,672bf50eac1463c2ad3c747f,672cd6b83e0961477a1b1d7e,,,,,,,,,,,404.2296,1.4,405.2321,405.2321,411.3116,4.016666667,6.078200001,0,47,47,3,1,1_to_8,images/Ex1.jpg,images/Ex5.jpg,Ex1,Ex5,,,,,
,,,,,794967,001,44,male,british,hnd,2024-11-07_15h04.11.847,CatSimMDS,2023.2.3,Win32,0.495343769,5bd0d2c1263e0a00016d3c7c,672bf50eac1463c2ad3c747f,672cd6b83e0961477a1b1d7e,,,,,,,,,,,411.3121,0.7,411.3121,411.3122,418.3997,5.558333333,7.085800001,0,48,48,11,1,1_to_8,images/Ex2.jpg,images/Ex6.jpg,Ex2,Ex6,,,,,
,,,,,794967,001,44,male,british,hnd,2024-11-07_15h04.11.847,CatSimMDS,2023.2.3,Win32,0.495343769,5bd0d2c1263e0a00016d3c7c,672bf50eac1463c2ad3c747f,672cd6b83e0961477a1b1d7e,,,,,,,,,,,418.4001,1.2,419.411,419.411,426.4669,4,7.054200001,0,49,49,33,1,1_to_8,images/Ex5.jpg,images/Ex7.jpg,Ex5,Ex7,,,,,
,,,,,794967,001,44,male,british,hnd,2024-11-07_15h04.11.847,CatSimMDS,2023.2.3,Win32,0.495343769,5bd0d2c1263e0a00016d3c7c,672bf50eac1463c2ad3c747f,672cd6b83e0961477a1b1d7e,,,,,,,,,,,426.4671,1.2,427.471,427.4711,433.5432,3.691666667,6.071299999,0,50,50,39,1,1_to_8,images/Ex6.jpg,images/Ex5.jpg,Ex6,Ex5,,,,,
,,,,,794967,001,44,male,british,hnd,2024-11-07_15h04.11.847,CatSimMDS,2023.2.3,Win32,0.495343769,5bd0d2c1263e0a00016d3c7c,672bf50eac1463c2ad3c747f,672cd6b83e0961477a1b1d7e,,,,,,,,,,,433.5434,1.4,434.5496,434.5497,440.6363,4.366666667,6.0841,0,51,51,26,1,1_to_8,images/Ex4.jpg,images/Ex7.jpg,Ex4,Ex7,,,,,
,,,,,794967,001,44,male,british,hnd,2024-11-07_15h04.11.847,CatSimMDS,2023.2.3,Win32,0.495343769,5bd0d2c1263e0a00016d3c7c,672bf50eac1463c2ad3c747f,672cd6b83e0961477a1b1d7e,,,,,,,,,,,440.6367,1.3,441.6397,441.6397,446.7281,4.6,5.087800001,0,52,52,37,1,1_to_8,images/Ex6.jpg,images/Ex3.jpg,Ex6,Ex3,,,,,
,,,,,794967,001,44,male,british,hnd,2024-11-07_15h04.11.847,CatSimMDS,2023.2.3,Win32,0.495343769,5bd0d2c1263e0a00016d3c7c,672bf50eac1463c2ad3c747f,672cd6b83e0961477a1b1d7e,,,,,,,,,,,446.7283,0.6,446.7284,446.7284,451.8007,3.875,5.0714,0,53,53,38,1,1_to_8,images/Ex6.jpg,images/Ex4.jpg,Ex6,Ex4,,,,,
,,,,,794967,001,44,male,british,hnd,2024-11-07_15h04.11.847,CatSimMDS,2023.2.3,Win32,0.495343769,5bd0d2c1263e0a00016d3c7c,672bf50eac1463c2ad3c747f,672cd6b83e0961477a1b1d7e,,,,,,,,,,,451.8011,1.5,452.8087,452.8088,458.8515,2.566666667,6.040300001,0,54,54,13,1,1_to_8,images/Ex2.jpg,images/Ex8.jpg,Ex2,Ex8,,,,,
,,,,,794967,001,44,male,british,hnd,2024-11-07_15h04.11.847,CatSimMDS,2023.2.3,Win32,0.495343769,5bd0d2c1263e0a00016d3c7c,672bf50eac1463c2ad3c747f,672cd6b83e0961477a1b1d7e,,,,,,458.8528,464.9241,space,5.069,0.000199999,464.9268,1,465.9332,465.9333,473.0229,2.833333333,7.0884,0,0,0,24,1,9_to_16,images/Ex12.jpg,images/Ex13.jpg,Ex12,Ex13,,,,,
,,,,,794967,001,44,male,british,hnd,2024-11-07_15h04.11.847,CatSimMDS,2023.2.3,Win32,0.495343769,5bd0d2c1263e0a00016d3c7c,672bf50eac1463c2ad3c747f,672cd6b83e0961477a1b1d7e,,,,,,,,,,,473.0231,0.7,473.0232,473.0232,481.1528,4.123725672,8.1284,0,1,1,40,1,9_to_16,images/Ex14.jpg,images/Ex15.jpg,Ex14,Ex15,,,,,
,,,,,794967,001,44,male,british,hnd,2024-11-07_15h04.11.847,CatSimMDS,2023.2.3,Win32,0.495343769,5bd0d2c1263e0a00016d3c7c,672bf50eac1463c2ad3c747f,672cd6b83e0961477a1b1d7e,,,,,,,,,,,481.1532,1.4,483.1779,483.1779,487.251,3.75,4.071699999,0,2,2,51,1,9_to_16,images/Ex16.jpg,images/Ex11.jpg,Ex16,Ex11,,,,,
,,,,,794967,001,44,male,british,hnd,2024-11-07_15h04.11.847,CatSimMDS,2023.2.3,Win32,0.495343769,5bd0d2c1263e0a00016d3c7c,672bf50eac1463c2ad3c747f,672cd6b83e0961477a1b1d7e,,,,,,,,,,,487.2515,1.2,488.2606,488.2607,493.3119,3.75,5.048800001,0,3,3,8,1,9_to_16,images/Ex10.jpg,images/Ex11.jpg,Ex10,Ex11,,,,,
,,,,,794967,001,44,male,british,hnd,2024-11-07_15h04.11.847,CatSimMDS,2023.2.3,Win32,0.495343769,5bd0d2c1263e0a00016d3c7c,672bf50eac1463c2ad3c747f,672cd6b83e0961477a1b1d7e,,,,,,,,,,,493.3123,1.1,494.3338,494.3338,541.8096,2.058333333,47.4738,0,4,4,46,1,9_to_16,images/Ex15.jpg,images/Ex13.jpg,Ex15,Ex13,,,,,
,,,,,794967,001,44,male,british,hnd,2024-11-07_15h04.11.847,CatSimMDS,2023.2.3,Win32,0.495343769,5bd0d2c1263e0a00016d3c7c,672bf50eac1463c2ad3c747f,672cd6b83e0961477a1b1d7e,,,,,,,,,,,541.8097,0.7,541.8097,541.8097,599.2248,3.533333333,57.4145,0,5,5,30,1,9_to_16,images/Ex13.jpg,images/Ex11.jpg,Ex13,Ex11,,,,,
,,,,,794967,001,44,male,british,hnd,2024-11-07_15h04.11.847,CatSimMDS,2023.2.3,Win32,0.495343769,5bd0d2c1263e0a00016d3c7c,672bf50eac1463c2ad3c747f,672cd6b83e0961477a1b1d7e,,,,,,,,,,,599.225,1.2,600.2328,600.2328,602.2602,4,2.0251,0,6,6,33,1,9_to_16,images/Ex13.jpg,images/Ex15.jpg,Ex13,Ex15,,,,,
,,,,,794967,001,44,male,british,hnd,2024-11-07_15h04.11.847,CatSimMDS,2023.2.3,Win32,0.495343769,5bd0d2c1263e0a00016d3c7c,672bf50eac1463c2ad3c747f,672cd6b83e0961477a1b1d7e,,,,,,,,,,,602.2606,0.6,602.2606,602.2606,606.3261,3.966666667,4.0644,0,7,7,27,1,9_to_16,images/Ex12.jpg,images/Ex16.jpg,Ex12,Ex16,,,,,
,,,,,794967,001,44,male,british,hnd,2024-11-07_15h04.11.847,CatSimMDS,2023.2.3,Win32,0.495343769,5bd0d2c1263e0a00016d3c7c,672bf50eac1463c2ad3c747f,672cd6b83e0961477a1b1d7e,,,,,,,,,,,606.3266,1.4,607.3355,607.3356,612.3941,4.425,5.0564,0,8,8,38,1,9_to_16,images/Ex14.jpg,images/Ex12.jpg,Ex14,Ex12,,,,,
,,,,,794967,001,44,male,british,hnd,2024-11-07_15h04.11.847,CatSimMDS,2023.2.3,Win32,0.495343769,5bd0d2c1263e0a00016d3c7c,672bf50eac1463c2ad3c747f,672cd6b83e0961477a1b1d7e,,,,,,,,,,,612.3946,0.7,612.3947,612.3947,617.4596,4.9,5.062300001,0,9,9,47,1,9_to_16,images/Ex15.jpg,images/Ex14.jpg,Ex15,Ex14,,,,,
,,,,,794967,001,44,male,british,hnd,2024-11-07_15h04.11.847,CatSimMDS,2023.2.3,Win32,0.495343769,5bd0d2c1263e0a00016d3c7c,672bf50eac1463c2ad3c747f,672cd6b83e0961477a1b1d7e,,,,,,,,,,,617.46,1.5,618.4641,618.4641,620.4856,4.95,2.019299999,0,10,10,7,1,9_to_16,images/Ex10.jpg,images/Ex9.jpg,Ex10,Ex9,,,,,
,,,,,794967,001,44,male,british,hnd,2024-11-07_15h04.11.847,CatSimMDS,2023.2.3,Win32,0.495343769,5bd0d2c1263e0a00016d3c7c,672bf50eac1463c2ad3c747f,672cd6b83e0961477a1b1d7e,,,,,,,,,,,620.4861,1.4,621.5027,621.5027,623.5222,3.433333333,2.0176,0,11,11,42,1,9_to_16,images/Ex15.jpg,images/Ex9.jpg,Ex15,Ex9,,,,,
,,,,,794967,001,44,male,british,hnd,2024-11-07_15h04.11.847,CatSimMDS,2023.2.3,Win32,0.495343769,5bd0d2c1263e0a00016d3c7c,672bf50eac1463c2ad3c747f,672cd6b83e0961477a1b1d7e,,,,,,,,,,,623.5227,0.6,623.5228,623.5229,626.5575,3.758333333,3.032699999,0,12,12,45,1,9_to_16,images/Ex15.jpg,images/Ex12.jpg,Ex15,Ex12,,,,,
,,,,,794967,001,44,male,british,hnd,2024-11-07_15h04.11.847,CatSimMDS,2023.2.3,Win32,0.495343769,5bd0d2c1263e0a00016d3c7c,672bf50eac1463c2ad3c747f,672cd6b83e0961477a1b1d7e,,,,,,,,,,,626.5579,1.3,627.5671,627.5673,632.6369,2.691666667,5.067299999,0,13,13,34,1,9_to_16,images/Ex13.jpg,images/Ex16.jpg,Ex13,Ex16,,,,,
,,,,,794967,001,44,male,british,hnd,2024-11-07_15h04.11.847,CatSimMDS,2023.2.3,Win32,0.495343769,5bd0d2c1263e0a00016d3c7c,672bf50eac1463c2ad3c747f,672cd6b83e0961477a1b1d7e,,,,,,,,,,,632.6372,1.5,633.6453,633.6453,638.7058,2.641666667,5.058199999,0,14,14,12,1,9_to_16,images/Ex10.jpg,images/Ex15.jpg,Ex10,Ex15,,,,,
,,,,,794967,001,44,male,british,hnd,2024-11-07_15h04.11.847,CatSimMDS,2023.2.3,Win32,0.495343769,5bd0d2c1263e0a00016d3c7c,672bf50eac1463c2ad3c747f,672cd6b83e0961477a1b1d7e,,,,,,,,,,,638.7062,1,639.7256,639.7256,644.7858,2.616666667,5.058900002,0,15,15,31,1,9_to_16,images/Ex13.jpg,images/Ex12.jpg,Ex13,Ex12,,,,,
,,,,,794967,001,44,male,british,hnd,2024-11-07_15h04.11.847,CatSimMDS,2023.2.3,Win32,0.495343769,5bd0d2c1263e0a00016d3c7c,672bf50eac1463c2ad3c747f,672cd6b83e0961477a1b1d7e,,,,,,,,,,,644.786,1,645.7891,645.7891,650.8459,4.166666667,5.0556,0,16,16,4,1,9_to_16,images/Ex9.jpg,images/Ex14.jpg,Ex9,Ex14,,,,,
,,,,,794967,001,44,male,british,hnd,2024-11-07_15h04.11.847,CatSimMDS,2023.2.3,Win32,0.495343769,5bd0d2c1263e0a00016d3c7c,672bf50eac1463c2ad3c747f,672cd6b83e0961477a1b1d7e,,,,,,,,,,,650.8464,1,651.8543,651.8543,656.9139,3.816666667,5.057299999,0,17,17,41,1,9_to_16,images/Ex14.jpg,images/Ex16.jpg,Ex14,Ex16,,,,,
,,,,,794967,001,44,male,british,hnd,2024-11-07_15h04.11.847,CatSimMDS,2023.2.3,Win32,0.495343769,5bd0d2c1263e0a00016d3c7c,672bf50eac1463c2ad3c747f,672cd6b83e0961477a1b1d7e,,,,,,,,,,,656.9149,1.4,657.9201,657.9202,662.9909,3.075,5.068200001,0,18,18,50,1,9_to_16,images/Ex16.jpg,images/Ex10.jpg,Ex16,Ex10,,,,,
,,,,,794967,001,44,male,british,hnd,2024-11-07_15h04.11.847,CatSimMDS,2023.2.3,Win32,0.495343769,5bd0d2c1263e0a00016d3c7c,672bf50eac1463c2ad3c747f,672cd6b83e0961477a1b1d7e,,,,,,,,,,,662.9915,1.1,663.9936,663.9936,669.0694,4.133333333,5.0745,0,19,19,39,1,9_to_16,images/Ex14.jpg,images/Ex13.jpg,Ex14,Ex13,,,,,
,,,,,794967,001,44,male,british,hnd,2024-11-07_15h04.11.847,CatSimMDS,2023.2.3,Win32,0.495343769,5bd0d2c1263e0a00016d3c7c,672bf50eac1463c2ad3c747f,672cd6b83e0961477a1b1d7e,,,,,,,,,,,669.0698,1,670.079,670.0792,675.1239,3.6,5.0424,0,20,20,43,1,9_to_16,images/Ex15.jpg,images/Ex10.jpg,Ex15,Ex10,,,,,
,,,,,794967,001,44,male,british,hnd,2024-11-07_15h04.11.847,CatSimMDS,2023.2.3,Win32,0.495343769,5bd0d2c1263e0a00016d3c7c,672bf50eac1463c2ad3c747f,672cd6b83e0961477a1b1d7e,,,,,,,,,,,675.1244,0.5,675.1244,675.1245,681.1757,3.6,6.0501,0,21,21,37,1,9_to_16,images/Ex14.jpg,images/Ex11.jpg,Ex14,Ex11,,,,,
,,,,,794967,001,44,male,british,hnd,2024-11-07_15h04.11.847,CatSimMDS,2023.2.3,Win32,0.495343769,5bd0d2c1263e0a00016d3c7c,672bf50eac1463c2ad3c747f,672cd6b83e0961477a1b1d7e,,,,,,,,,,,681.1758,0.9,682.1903,682.1904,687.2499,3.6,5.0576,0,22,22,2,1,9_to_16,images/Ex9.jpg,images/Ex12.jpg,Ex9,Ex12,,,,,
,,,,,794967,001,44,male,british,hnd,2024-11-07_15h04.11.847,CatSimMDS,2023.2.3,Win32,0.495343769,5bd0d2c1263e0a00016d3c7c,672bf50eac1463c2ad3c747f,672cd6b83e0961477a1b1d7e,,,,,,,,,,,687.2501,1.4,688.2686,688.2687,736.5899,3.166666667,47.7913,0,23,23,52,1,9_to_16,images/Ex16.jpg,images/Ex12.jpg,Ex16,Ex12,,,,,
,,,,,794967,001,44,male,british,hnd,2024-11-07_15h04.11.847,CatSimMDS,2023.2.3,Win32,0.495343769,5bd0d2c1263e0a00016d3c7c,672bf50eac1463c2ad3c747f,672cd6b83e0961477a1b1d7e,,,,,,,,,,,736.5906,1.1,736.5906,736.5906,742.6499,2.2,6.0565,0,24,24,6,1,9_to_16,images/Ex9.jpg,images/Ex16.jpg,Ex9,Ex16,,,,,
,,,,,794967,001,44,male,british,hnd,2024-11-07_15h04.11.847,CatSimMDS,2023.2.3,Win32,0.495343769,5bd0d2c1263e0a00016d3c7c,672bf50eac1463c2ad3c747f,672cd6b83e0961477a1b1d7e,,,,,,,,,,,742.6504,0.9,743.6535,743.6536,749.7117,4.866666667,6.0561,0,25,25,18,1,9_to_16,images/Ex11.jpg,images/Ex14.jpg,Ex11,Ex14,,,,,
,,,,,794967,001,44,male,british,hnd,2024-11-07_15h04.11.847,CatSimMDS,2023.2.3,Win32,0.495343769,5bd0d2c1263e0a00016d3c7c,672bf50eac1463c2ad3c747f,672cd6b83e0961477a1b1d7e,,,,,,,,,,,749.7122,1,750.732,750.7321,755.7873,3.891666667,5.053300001,0,26,26,0,1,9_to_16,images/Ex9.jpg,images/Ex10.jpg,Ex9,Ex10,,,,,
,,,,,794967,001,44,male,british,hnd,2024-11-07_15h04.11.847,CatSimMDS,2023.2.3,Win32,0.495343769,5bd0d2c1263e0a00016d3c7c,672bf50eac1463c2ad3c747f,672cd6b83e0961477a1b1d7e,,,,,,,,,,,755.7878,0.9,756.7998,756.7999,761.8532,4.466666667,5.0514,0,27,27,3,1,9_to_16,images/Ex9.jpg,images/Ex13.jpg,Ex9,Ex13,,,,,
,,,,,794967,001,44,male,british,hnd,2024-11-07_15h04.11.847,CatSimMDS,2023.2.3,Win32,0.495343769,5bd0d2c1263e0a00016d3c7c,672bf50eac1463c2ad3c747f,672cd6b83e0961477a1b1d7e,,,,,,,,,,,761.8534,0.9,762.8594,762.8595,767.9182,4.425,5.056700001,0,28,28,23,1,9_to_16,images/Ex12.jpg,images/Ex11.jpg,Ex12,Ex11,,,,,
,,,,,794967,001,44,male,british,hnd,2024-11-07_15h04.11.847,CatSimMDS,2023.2.3,Win32,0.495343769,5bd0d2c1263e0a00016d3c7c,672bf50eac1463c2ad3c747f,672cd6b83e0961477a1b1d7e,,,,,,,,,,,767.9187,0.7,767.9188,767.9189,772.995,4.016666667,5.0745,0,29,29,25,1,9_to_16,images/Ex12.jpg,images/Ex14.jpg,Ex12,Ex14,,,,,
,,,,,794967,001,44,male,british,hnd,2024-11-07_15h04.11.847,CatSimMDS,2023.2.3,Win32,0.495343769,5bd0d2c1263e0a00016d3c7c,672bf50eac1463c2ad3c747f,672cd6b83e0961477a1b1d7e,,,,,,,,,,,772.9954,0.6,772.9955,772.9955,778.0525,4.133333333,5.055,0,30,30,16,1,9_to_16,images/Ex11.jpg,images/Ex12.jpg,Ex11,Ex12,,,,,
,,,,,794967,001,44,male,british,hnd,2024-11-07_15h04.11.847,CatSimMDS,2023.2.3,Win32,0.495343769,5bd0d2c1263e0a00016d3c7c,672bf50eac1463c2ad3c747f,672cd6b83e0961477a1b1d7e,,,,,,,,,,,778.0531,0.6,778.0532,778.0532,783.1048,3.808333333,5.049200001,0,31,31,5,1,9_to_16,images/Ex9.jpg,images/Ex15.jpg,Ex9,Ex15,,,,,
,,,,,794967,001,44,male,british,hnd,2024-11-07_15h04.11.847,CatSimMDS,2023.2.3,Win32,0.495343769,5bd0d2c1263e0a00016d3c7c,672bf50eac1463c2ad3c747f,672cd6b83e0961477a1b1d7e,,,,,,,,,,,783.1054,0.5,783.1055,783.1055,788.1537,4.416666667,5.0469,0,32,32,1,1,9_to_16,images/Ex9.jpg,images/Ex11.jpg,Ex9,Ex11,,,,,
,,,,,794967,001,44,male,british,hnd,2024-11-07_15h04.11.847,CatSimMDS,2023.2.3,Win32,0.495343769,5bd0d2c1263e0a00016d3c7c,672bf50eac1463c2ad3c747f,672cd6b83e0961477a1b1d7e,,,,,,,,,,,788.1539,0.9,789.164,789.1641,794.2331,4.825,5.066200001,0,33,33,44,1,9_to_16,images/Ex15.jpg,images/Ex11.jpg,Ex15,Ex11,,,,,
,,,,,794967,001,44,male,british,hnd,2024-11-07_15h04.11.847,CatSimMDS,2023.2.3,Win32,0.495343769,5bd0d2c1263e0a00016d3c7c,672bf50eac1463c2ad3c747f,672cd6b83e0961477a1b1d7e,,,,,,,,,,,794.2336,0.7,794.2337,794.2338,799.3032,4.491666667,5.0675,0,34,34,10,1,9_to_16,images/Ex10.jpg,images/Ex13.jpg,Ex10,Ex13,,,,,
,,,,,794967,001,44,male,british,hnd,2024-11-07_15h04.11.847,CatSimMDS,2023.2.3,Win32,0.495343769,5bd0d2c1263e0a00016d3c7c,672bf50eac1463c2ad3c747f,672cd6b83e0961477a1b1d7e,,,,,,,,,,,799.3039,1.5,800.3069,800.307,805.3503,4.491666667,5.0416,0,35,35,36,1,9_to_16,images/Ex14.jpg,images/Ex10.jpg,Ex14,Ex10,,,,,
,,,,,794967,001,44,male,british,hnd,2024-11-07_15h04.11.847,CatSimMDS,2023.2.3,Win32,0.495343769,5bd0d2c1263e0a00016d3c7c,672bf50eac1463c2ad3c747f,672cd6b83e0961477a1b1d7e,,,,,,,,,,,805.3508,0.7,805.3509,805.3509,810.4018,4.741666667,5.0489,0,36,36,14,1,9_to_16,images/Ex11.jpg,images/Ex9.jpg,Ex11,Ex9,,,,,
,,,,,794967,001,44,male,british,hnd,2024-11-07_15h04.11.847,CatSimMDS,2023.2.3,Win32,0.495343769,5bd0d2c1263e0a00016d3c7c,672bf50eac1463c2ad3c747f,672cd6b83e0961477a1b1d7e,,,,,,,,,,,810.4021,1.3,811.407,811.407,816.4651,3.383333333,5.056400002,0,37,37,11,1,9_to_16,images/Ex10.jpg,images/Ex14.jpg,Ex10,Ex14,,,,,
,,,,,794967,001,44,male,british,hnd,2024-11-07_15h04.11.847,CatSimMDS,2023.2.3,Win32,0.495343769,5bd0d2c1263e0a00016d3c7c,672bf50eac1463c2ad3c747f,672cd6b83e0961477a1b1d7e,,,,,,,,,,,816.4654,1.2,817.4771,817.4771,822.5316,2.391666667,5.051699999,0,38,38,9,1,9_to_16,images/Ex10.jpg,images/Ex12.jpg,Ex10,Ex12,,,,,
,,,,,794967,001,44,male,british,hnd,2024-11-07_15h04.11.847,CatSimMDS,2023.2.3,Win32,0.495343769,5bd0d2c1263e0a00016d3c7c,672bf50eac1463c2ad3c747f,672cd6b83e0961477a1b1d7e,,,,,,,,,,,822.532,1.2,823.5357,823.5357,830.6372,2.966666667,6.071199999,0,39,39,54,1,9_to_16,images/Ex16.jpg,images/Ex14.jpg,Ex16,Ex14,,,,,
,,,,,794967,001,44,male,british,hnd,2024-11-07_15h04.11.847,CatSimMDS,2023.2.3,Win32,0.495343769,5bd0d2c1263e0a00016d3c7c,672bf50eac1463c2ad3c747f,672cd6b83e0961477a1b1d7e,,,,,,,,,,,830.6375,0.9,832.6558,832.6559,836.7263,3,4.068,0,40,40,15,1,9_to_16,images/Ex11.jpg,images/Ex10.jpg,Ex11,Ex10,,,,,
,,,,,794967,001,44,male,british,hnd,2024-11-07_15h04.11.847,CatSimMDS,2023.2.3,Win32,0.495343769,5bd0d2c1263e0a00016d3c7c,672bf50eac1463c2ad3c747f,672cd6b83e0961477a1b1d7e,,,,,,,,,,,836.7267,0.8,837.7366,837.7366,841.8097,2.725,4.070800001,0,41,41,49,1,9_to_16,images/Ex16.jpg,images/Ex9.jpg,Ex16,Ex9,,,,,
,,,,,794967,001,44,male,british,hnd,2024-11-07_15h04.11.847,CatSimMDS,2023.2.3,Win32,0.495343769,5bd0d2c1263e0a00016d3c7c,672bf50eac1463c2ad3c747f,672cd6b83e0961477a1b1d7e,,,,,,,,,,,841.8102,0.7,841.8102,841.8103,845.8674,3.191666667,4.0556,0,42,42,48,1,9_to_16,images/Ex15.jpg,images/Ex16.jpg,Ex15,Ex16,,,,,
,,,,,794967,001,44,male,british,hnd,2024-11-07_15h04.11.847,CatSimMDS,2023.2.3,Win32,0.495343769,5bd0d2c1263e0a00016d3c7c,672bf50eac1463c2ad3c747f,672cd6b83e0961477a1b1d7e,,,,,,,,,,,845.8677,0.5,845.8677,845.8677,849.9363,3.758333333,4.066700001,0,43,43,17,1,9_to_16,images/Ex11.jpg,images/Ex13.jpg,Ex11,Ex13,,,,,
,,,,,794967,001,44,male,british,hnd,2024-11-07_15h04.11.847,CatSimMDS,2023.2.3,Win32,0.495343769,5bd0d2c1263e0a00016d3c7c,672bf50eac1463c2ad3c747f,672cd6b83e0961477a1b1d7e,,,,,,,,,,,849.9369,0.8,850.9433,850.9433,864.3207,2.675,13.3753,0,44,44,29,1,9_to_16,images/Ex13.jpg,images/Ex10.jpg,Ex13,Ex10,,,,,
,,,,,794967,001,44,male,british,hnd,2024-11-07_15h04.11.847,CatSimMDS,2023.2.3,Win32,0.495343769,5bd0d2c1263e0a00016d3c7c,672bf50eac1463c2ad3c747f,672cd6b83e0961477a1b1d7e,,,,,,,,,,,864.3212,1,864.3213,864.3213,868.3791,3.65,4.055799999,0,45,45,35,1,9_to_16,images/Ex14.jpg,images/Ex9.jpg,Ex14,Ex9,,,,,
,,,,,794967,001,44,male,british,hnd,2024-11-07_15h04.11.847,CatSimMDS,2023.2.3,Win32,0.495343769,5bd0d2c1263e0a00016d3c7c,672bf50eac1463c2ad3c747f,672cd6b83e0961477a1b1d7e,,,,,,,,,,,868.3795,0.8,869.3869,869.387,873.4624,3.958333333,4.0739,0,46,46,28,1,9_to_16,images/Ex13.jpg,images/Ex9.jpg,Ex13,Ex9,,,,,
,,,,,794967,001,44,male,british,hnd,2024-11-07_15h04.11.847,CatSimMDS,2023.2.3,Win32,0.495343769,5bd0d2c1263e0a00016d3c7c,672bf50eac1463c2ad3c747f,672cd6b83e0961477a1b1d7e,,,,,,,,,,,873.4629,0.9,874.4707,874.4708,880.5586,3.008333333,6.085299999,0,47,47,13,1,9_to_16,images/Ex10.jpg,images/Ex16.jpg,Ex10,Ex16,,,,,
,,,,,794967,001,44,male,british,hnd,2024-11-07_15h04.11.847,CatSimMDS,2023.2.3,Win32,0.495343769,5bd0d2c1263e0a00016d3c7c,672bf50eac1463c2ad3c747f,672cd6b83e0961477a1b1d7e,,,,,,,,,,,880.5591,0.7,880.5592,880.5592,885.6141,4.041666667,5.052200001,0,48,48,32,1,9_to_16,images/Ex13.jpg,images/Ex14.jpg,Ex13,Ex14,,,,,
,,,,,794967,001,44,male,british,hnd,2024-11-07_15h04.11.847,CatSimMDS,2023.2.3,Win32,0.495343769,5bd0d2c1263e0a00016d3c7c,672bf50eac1463c2ad3c747f,672cd6b83e0961477a1b1d7e,,,,,,,,,,,885.6145,1.2,886.619,886.6191,904.6255,2.966666667,17.3677,0,49,49,53,1,9_to_16,images/Ex16.jpg,images/Ex13.jpg,Ex16,Ex13,,,,,
,,,,,794967,001,44,male,british,hnd,2024-11-07_15h04.11.847,CatSimMDS,2023.2.3,Win32,0.495343769,5bd0d2c1263e0a00016d3c7c,672bf50eac1463c2ad3c747f,672cd6b83e0961477a1b1d7e,,,,,,,,,,,904.6261,0.9,904.6262,904.6263,908.7089,2.966666667,4.080800001,0,50,50,26,1,9_to_16,images/Ex12.jpg,images/Ex15.jpg,Ex12,Ex15,,,,,
,,,,,794967,001,44,male,british,hnd,2024-11-07_15h04.11.847,CatSimMDS,2023.2.3,Win32,0.495343769,5bd0d2c1263e0a00016d3c7c,672bf50eac1463c2ad3c747f,672cd6b83e0961477a1b1d7e,,,,,,,,,,,908.7094,1,909.7295,909.7295,913.8197,2.966666667,4.0881,0,51,51,21,1,9_to_16,images/Ex12.jpg,images/Ex9.jpg,Ex12,Ex9,,,,,
,,,,,794967,001,44,male,british,hnd,2024-11-07_15h04.11.847,CatSimMDS,2023.2.3,Win32,0.495343769,5bd0d2c1263e0a00016d3c7c,672bf50eac1463c2ad3c747f,672cd6b83e0961477a1b1d7e,,,,,,,,,,,913.8201,0.6,913.8203,913.8203,918.9081,4,5.0851,0,52,52,19,1,9_to_16,images/Ex11.jpg,images/Ex15.jpg,Ex11,Ex15,,,,,
,,,,,794967,001,44,male,british,hnd,2024-11-07_15h04.11.847,CatSimMDS,2023.2.3,Win32,0.495343769,5bd0d2c1263e0a00016d3c7c,672bf50eac1463c2ad3c747f,672cd6b83e0961477a1b1d7e,,,,,,,,,,,918.9087,0.7,918.9087,918.9088,923.9497,3.083333333,5.038300001,0,53,53,20,1,9_to_16,images/Ex11.jpg,images/Ex16.jpg,Ex11,Ex16,,,,,
,,,,,794967,001,44,male,british,hnd,2024-11-07_15h04.11.847,CatSimMDS,2023.2.3,Win32,0.495343769,5bd0d2c1263e0a00016d3c7c,672bf50eac1463c2ad3c747f,672cd6b83e0961477a1b1d7e,,,,,,,,,,,923.9501,1.4,924.9544,924.9545,926.9848,3.041666667,2.028900002,0,54,54,22,1,9_to_16,images/Ex12.jpg,images/Ex10.jpg,Ex12,Ex10,,,,,
,,,,,794967,001,44,male,british,hnd,2024-11-07_15h04.11.847,CatSimMDS,2023.2.3,Win32,0.495343769,5bd0d2c1263e0a00016d3c7c,672bf50eac1463c2ad3c747f,672cd6b83e0961477a1b1d7e,,,,,,,,,,,,,,,,,,,,,,,,,,,,926.9851,943.2074,space,14.2036,0.000199999