infCons.started,infCons.stopped,resp_consent.keys,resp_consent.rt,resp_consent.duration,participant,session,Age?,Gender?,Nationality?,Highest Educational Degree?,date,expName,psychopyVersion,OS,frameRate,PROLIFIC_PID,STUDY_ID,SESSION_ID,instructions.started,instructions.stopped,resp_instructions.keys,resp_instructions.rt,resp_instructions.duration,nextTask.started,nextTask.stopped,ready_task.keys,ready_task.rt,ready_task.duration,fixation.started,ITI,fixation.stopped,stim.started,stim.stopped,slider.response,slider.rt,trials.thisRepN,trials.thisTrialN,trials.thisN,trials.thisIndex,trials.ran,task,exemplarLeft,exemplarRight,left,right,end.started,end.stopped,resp_end.keys,resp_end.rt,resp_end.duration
0.001,17.561,space,17.509,,942610,001,36,female,british,bachelor degree,2024-11-07_15h05.10.806,CatSimMDS,2023.2.3,MacIntel,40,63ea497523794756c703094c,672bf50eac1463c2ad3c747f,672cd6edcce8cdc44015e8b7,,,,,,,,,,,,,,,,,,,,,,,,,,,,,,,,
,,,,,942610,001,36,female,british,bachelor degree,2024-11-07_15h05.10.806,CatSimMDS,2023.2.3,MacIntel,40,63ea497523794756c703094c,672bf50eac1463c2ad3c747f,672cd6edcce8cdc44015e8b7,17.563,41.186,space,23.598,,,,,,,,,,,,,,,,,,,,,,,,,,,,
,,,,,942610,001,36,female,british,bachelor degree,2024-11-07_15h05.10.806,CatSimMDS,2023.2.3,MacIntel,40,63ea497523794756c703094c,672bf50eac1463c2ad3c747f,672cd6edcce8cdc44015e8b7,,,,,,41.201,43.469,space,2.241,,43.485,1.4,44.886,44.887,48.585,1.06,3.694,0,0,0,12,1,1_to_8,images/Ex2.jpg,images/Ex7.jpg,Ex2,Ex7,,,,,
,,,,,942610,001,36,female,british,bachelor degree,2024-11-07_15h05.10.806,CatSimMDS,2023.2.3,MacIntel,40,63ea497523794756c703094c,672bf50eac1463c2ad3c747f,672cd6edcce8cdc44015e8b7,,,,,,,,,,,48.586,0.7,49.285,49.285,54.336,6.02,5.049,0,1,1,15,1,1_to_8,images/Ex3.jpg,images/Ex2.jpg,Ex3,Ex2,,,,,
,,,,,942610,001,36,female,british,bachelor degree,2024-11-07_15h05.10.806,CatSimMDS,2023.2.3,MacIntel,40,63ea497523794756c703094c,672bf50eac1463c2ad3c747f,672cd6edcce8cdc44015e8b7,,,,,,,,,,,54.336,0.8,55.136,55.136,60.403,3.01,5.259,0,2,2,40,1,1_to_8,images/Ex6.jpg,images/Ex7.jpg,Ex6,Ex7,,,,,
,,,,,942610,001,36,female,british,bachelor degree,2024-11-07_15h05.10.806,CatSimMDS,2023.2.3,MacIntel,40,63ea497523794756c703094c,672bf50eac1463c2ad3c747f,672cd6edcce8cdc44015e8b7,,,,,,,,,,,60.403,1.4,61.803,61.803,64.27,5,2.459,0,3,3,11,1,1_to_8,images/Ex2.jpg,images/Ex6.jpg,Ex2,Ex6,,,,,
,,,,,942610,001,36,female,british,bachelor degree,2024-11-07_15h05.10.806,CatSimMDS,2023.2.3,MacIntel,40,63ea497523794756c703094c,672bf50eac1463c2ad3c747f,672cd6edcce8cdc44015e8b7,,,,,,,,,,,64.271,1.1,65.37,65.371,69.12,4.98,3.742,0,4,4,6,1,1_to_8,images/Ex1.jpg,images/Ex8.jpg,Ex1,Ex8,,,,,
,,,,,942610,001,36,female,british,bachelor degree,2024-11-07_15h05.10.806,CatSimMDS,2023.2.3,MacIntel,40,63ea497523794756c703094c,672bf50eac1463c2ad3c747f,672cd6edcce8cdc44015e8b7,,,,,,,,,,,69.121,0.8,69.92,69.92,73.937,1.05,4.014,0,5,5,10,1,1_to_8,images/Ex2.jpg,images/Ex5.jpg,Ex2,Ex5,,,,,
,,,,,942610,001,36,female,british,bachelor degree,2024-11-07_15h05.10.806,CatSimMDS,2023.2.3,MacIntel,40,63ea497523794756c703094c,672bf50eac1463c2ad3c747f,672cd6edcce8cdc44015e8b7,,,,,,,,,,,73.937,1,74.938,74.938,79.155,3.02,4.213,0,6,6,47,1,1_to_8,images/Ex7.jpg,images/Ex6.jpg,Ex7,Ex6,,,,,
,,,,,942610,001,36,female,british,bachelor degree,2024-11-07_15h05.10.806,CatSimMDS,2023.2.3,MacIntel,40,63ea497523794756c703094c,672bf50eac1463c2ad3c747f,672cd6edcce8cdc44015e8b7,,,,,,,,,,,79.155,1.4,80.555,80.555,82.372,3.02,1.813,0,7,7,34,1,1_to_8,images/Ex5.jpg,images/Ex8.jpg,Ex5,Ex8,,,,,
,,,,,942610,001,36,female,british,bachelor degree,2024-11-07_15h05.10.806,CatSimMDS,2023.2.3,MacIntel,40,63ea497523794756c703094c,672bf50eac1463c2ad3c747f,672cd6edcce8cdc44015e8b7,,,,,,,,,,,82.373,0.9,83.272,83.272,85.222,2.97,1.943,0,8,8,53,1,1_to_8,images/Ex8.jpg,images/Ex5.jpg,Ex8,Ex5,,,,,
,,,,,942610,001,36,female,british,bachelor degree,2024-11-07_15h05.10.806,CatSimMDS,2023.2.3,MacIntel,40,63ea497523794756c703094c,672bf50eac1463c2ad3c747f,672cd6edcce8cdc44015e8b7,,,,,,,,,,,85.222,1.4,86.621,86.621,88.805,1.04,2.176,0,9,9,16,1,1_to_8,images/Ex3.jpg,images/Ex4.jpg,Ex3,Ex4,,,,,
,,,,,942610,001,36,female,british,bachelor degree,2024-11-07_15h05.10.806,CatSimMDS,2023.2.3,MacIntel,40,63ea497523794756c703094c,672bf50eac1463c2ad3c747f,672cd6edcce8cdc44015e8b7,,,,,,,,,,,88.806,1.5,90.305,90.305,93.106,2.03,2.796,0,10,10,2,1,1_to_8,images/Ex1.jpg,images/Ex4.jpg,Ex1,Ex4,,,,,
,,,,,942610,001,36,female,british,bachelor degree,2024-11-07_15h05.10.806,CatSimMDS,2023.2.3,MacIntel,40,63ea497523794756c703094c,672bf50eac1463c2ad3c747f,672cd6edcce8cdc44015e8b7,,,,,,,,,,,93.107,1.3,94.406,94.406,97.305,7.02,2.897,0,11,11,18,1,1_to_8,images/Ex3.jpg,images/Ex6.jpg,Ex3,Ex6,,,,,
,,,,,942610,001,36,female,british,bachelor degree,2024-11-07_15h05.10.806,CatSimMDS,2023.2.3,MacIntel,40,63ea497523794756c703094c,672bf50eac1463c2ad3c747f,672cd6edcce8cdc44015e8b7,,,,,,,,,,,97.305,1,98.306,98.306,102.006,1.01,3.694,0,12,12,54,1,1_to_8,images/Ex8.jpg,images/Ex6.jpg,Ex8,Ex6,,,,,
,,,,,942610,001,36,female,british,bachelor degree,2024-11-07_15h05.10.806,CatSimMDS,2023.2.3,MacIntel,40,63ea497523794756c703094c,672bf50eac1463c2ad3c747f,672cd6edcce8cdc44015e8b7,,,,,,,,,,,102.007,0.9,102.906,102.906,106.656,1,3.743,0,13,13,50,1,1_to_8,images/Ex8.jpg,images/Ex2.jpg,Ex8,Ex2,,,,,
,,,,,942610,001,36,female,british,bachelor degree,2024-11-07_15h05.10.806,CatSimMDS,2023.2.3,MacIntel,40,63ea497523794756c703094c,672bf50eac1463c2ad3c747f,672cd6edcce8cdc44015e8b7,,,,,,,,,,,106.657,1.3,107.956,107.956,110.456,4.99,2.494,0,14,14,1,1,1_to_8,images/Ex1.jpg,images/Ex3.jpg,Ex1,Ex3,,,,,
,,,,,942610,001,36,female,british,bachelor degree,2024-11-07_15h05.10.806,CatSimMDS,2023.2.3,MacIntel,40,63ea497523794756c703094c,672bf50eac1463c2ad3c747f,672cd6edcce8cdc44015e8b7,,,,,,,,,,,110.457,0.7,111.156,111.156,114.79,1.03,3.631,0,15,15,32,1,1_to_8,images/Ex5.jpg,images/Ex6.jpg,Ex5,Ex6,,,,,
,,,,,942610,001,36,female,british,bachelor degree,2024-11-07_15h05.10.806,CatSimMDS,2023.2.3,MacIntel,40,63ea497523794756c703094c,672bf50eac1463c2ad3c747f,672cd6edcce8cdc44015e8b7,,,,,,,,,,,114.79,1.1,115.89,115.89,118.141,1.01,2.247,0,16,16,7,1,1_to_8,images/Ex2.jpg,images/Ex1.jpg,Ex2,Ex1,,,,,
,,,,,942610,001,36,female,british,bachelor degree,2024-11-07_15h05.10.806,CatSimMDS,2023.2.3,MacIntel,40,63ea497523794756c703094c,672bf50eac1463c2ad3c747f,672cd6edcce8cdc44015e8b7,,,,,,,,,,,118.141,1.1,119.241,119.241,122.691,2.01,3.444,0,17,17,26,1,1_to_8,images/Ex4.jpg,images/Ex7.jpg,Ex4,Ex7,,,,,
,,,,,942610,001,36,female,british,bachelor degree,2024-11-07_15h05.10.806,CatSimMDS,2023.2.3,MacIntel,40,63ea497523794756c703094c,672bf50eac1463c2ad3c747f,672cd6edcce8cdc44015e8b7,,,,,,,,,,,122.691,0.9,123.59,123.59,126.025,5.96,2.431,0,18,18,14,1,1_to_8,images/Ex3.jpg,images/Ex1.jpg,Ex3,Ex1,,,,,
,,,,,942610,001,36,female,british,bachelor degree,2024-11-07_15h05.10.806,CatSimMDS,2023.2.3,MacIntel,40,63ea497523794756c703094c,672bf50eac1463c2ad3c747f,672cd6edcce8cdc44015e8b7,,,,,,,,,,,126.025,1.4,127.424,127.424,130.574,7.97,3.142,0,19,19,37,1,1_to_8,images/Ex6.jpg,images/Ex3.jpg,Ex6,Ex3,,,,,
,,,,,942610,001,36,female,british,bachelor degree,2024-11-07_15h05.10.806,CatSimMDS,2023.2.3,MacIntel,40,63ea497523794756c703094c,672bf50eac1463c2ad3c747f,672cd6edcce8cdc44015e8b7,,,,,,,,,,,130.574,1.2,131.775,131.775,134.042,3,2.261,0,20,20,38,1,1_to_8,images/Ex6.jpg,images/Ex4.jpg,Ex6,Ex4,,,,,
,,,,,942610,001,36,female,british,bachelor degree,2024-11-07_15h05.10.806,CatSimMDS,2023.2.3,MacIntel,40,63ea497523794756c703094c,672bf50eac1463c2ad3c747f,672cd6edcce8cdc44015e8b7,,,,,,,,,,,134.043,0.5,134.541,134.541,136.509,1.98,1.963,0,21,21,0,1,1_to_8,images/Ex1.jpg,images/Ex2.jpg,Ex1,Ex2,,,,,
,,,,,942610,001,36,female,british,bachelor degree,2024-11-07_15h05.10.806,CatSimMDS,2023.2.3,MacIntel,40,63ea497523794756c703094c,672bf50eac1463c2ad3c747f,672cd6edcce8cdc44015e8b7,,,,,,,,,,,136.509,0.8,137.307,137.307,139.375,1.04,2.063,0,22,22,13,1,1_to_8,images/Ex2.jpg,images/Ex8.jpg,Ex2,Ex8,,,,,
,,,,,942610,001,36,female,british,bachelor degree,2024-11-07_15h05.10.806,CatSimMDS,2023.2.3,MacIntel,40,63ea497523794756c703094c,672bf50eac1463c2ad3c747f,672cd6edcce8cdc44015e8b7,,,,,,,,,,,139.376,0.9,140.275,140.275,141.292,1.04,1.013,0,23,23,19,1,1_to_8,images/Ex3.jpg,images/Ex7.jpg,Ex3,Ex7,,,,,
,,,,,942610,001,36,female,british,bachelor degree,2024-11-07_15h05.10.806,CatSimMDS,2023.2.3,MacIntel,40,63ea497523794756c703094c,672bf50eac1463c2ad3c747f,672cd6edcce8cdc44015e8b7,,,,,,,,,,,141.293,1.4,142.691,142.692,144.491,1,1.793,0,24,24,44,1,1_to_8,images/Ex7.jpg,images/Ex3.jpg,Ex7,Ex3,,,,,
,,,,,942610,001,36,female,british,bachelor degree,2024-11-07_15h05.10.806,CatSimMDS,2023.2.3,MacIntel,40,63ea497523794756c703094c,672bf50eac1463c2ad3c747f,672cd6edcce8cdc44015e8b7,,,,,,,,,,,144.492,1.1,145.592,145.592,146.676,1,1.075,0,25,25,45,1,1_to_8,images/Ex7.jpg,images/Ex4.jpg,Ex7,Ex4,,,,,
,,,,,942610,001,36,female,british,bachelor degree,2024-11-07_15h05.10.806,CatSimMDS,2023.2.3,MacIntel,40,63ea497523794756c703094c,672bf50eac1463c2ad3c747f,672cd6edcce8cdc44015e8b7,,,,,,,,,,,146.677,0.5,147.175,147.175,149.392,4,2.213,0,26,26,36,1,1_to_8,images/Ex6.jpg,images/Ex2.jpg,Ex6,Ex2,,,,,
,,,,,942610,001,36,female,british,bachelor degree,2024-11-07_15h05.10.806,CatSimMDS,2023.2.3,MacIntel,40,63ea497523794756c703094c,672bf50eac1463c2ad3c747f,672cd6edcce8cdc44015e8b7,,,,,,,,,,,149.392,0.7,150.093,150.093,152.326,1.04,2.226,0,27,27,20,1,1_to_8,images/Ex3.jpg,images/Ex8.jpg,Ex3,Ex8,,,,,
,,,,,942610,001,36,female,british,bachelor degree,2024-11-07_15h05.10.806,CatSimMDS,2023.2.3,MacIntel,40,63ea497523794756c703094c,672bf50eac1463c2ad3c747f,672cd6edcce8cdc44015e8b7,,,,,,,,,,,152.327,1.3,153.625,153.625,156.26,2.05,2.63,0,28,28,46,1,1_to_8,images/Ex7.jpg,images/Ex5.jpg,Ex7,Ex5,,,,,
,,,,,942610,001,36,female,british,bachelor degree,2024-11-07_15h05.10.806,CatSimMDS,2023.2.3,MacIntel,40,63ea497523794756c703094c,672bf50eac1463c2ad3c747f,672cd6edcce8cdc44015e8b7,,,,,,,,,,,156.261,0.8,157.059,157.059,159.044,3.96,1.98,0,29,29,28,1,1_to_8,images/Ex5.jpg,images/Ex1.jpg,Ex5,Ex1,,,,,
,,,,,942610,001,36,female,british,bachelor degree,2024-11-07_15h05.10.806,CatSimMDS,2023.2.3,MacIntel,40,63ea497523794756c703094c,672bf50eac1463c2ad3c747f,672cd6edcce8cdc44015e8b7,,,,,,,,,,,159.044,0.8,159.843,159.844,162.81,3.09,2.961,0,30,30,49,1,1_to_8,images/Ex8.jpg,images/Ex1.jpg,Ex8,Ex1,,,,,
,,,,,942610,001,36,female,british,bachelor degree,2024-11-07_15h05.10.806,CatSimMDS,2023.2.3,MacIntel,40,63ea497523794756c703094c,672bf50eac1463c2ad3c747f,672cd6edcce8cdc44015e8b7,,,,,,,,,,,162.811,0.8,163.61,163.61,165.593,5.3,1.978,0,31,31,8,1,1_to_8,images/Ex2.jpg,images/Ex3.jpg,Ex2,Ex3,,,,,
,,,,,942610,001,36,female,british,bachelor degree,2024-11-07_15h05.10.806,CatSimMDS,2023.2.3,MacIntel,40,63ea497523794756c703094c,672bf50eac1463c2ad3c747f,672cd6edcce8cdc44015e8b7,,,,,,,,,,,165.594,0.9,166.493,166.493,168.593,2.85,2.096,0,32,32,17,1,1_to_8,images/Ex3.jpg,images/Ex5.jpg,Ex3,Ex5,,,,,
,,,,,942610,001,36,female,british,bachelor degree,2024-11-07_15h05.10.806,CatSimMDS,2023.2.3,MacIntel,40,63ea497523794756c703094c,672bf50eac1463c2ad3c747f,672cd6edcce8cdc44015e8b7,,,,,,,,,,,168.594,1.2,169.793,169.793,172.06,4.04,2.262,0,33,33,21,1,1_to_8,images/Ex4.jpg,images/Ex1.jpg,Ex4,Ex1,,,,,
,,,,,942610,001,36,female,british,bachelor degree,2024-11-07_15h05.10.806,CatSimMDS,2023.2.3,MacIntel,40,63ea497523794756c703094c,672bf50eac1463c2ad3c747f,672cd6edcce8cdc44015e8b7,,,,,,,,,,,172.06,1.4,173.461,173.461,175.694,3.04,2.229,0,34,34,5,1,1_to_8,images/Ex1.jpg,images/Ex7.jpg,Ex1,Ex7,,,,,
,,,,,942610,001,36,female,british,bachelor degree,2024-11-07_15h05.10.806,CatSimMDS,2023.2.3,MacIntel,40,63ea497523794756c703094c,672bf50eac1463c2ad3c747f,672cd6edcce8cdc44015e8b7,,,,,,,,,,,175.695,1.4,177.095,177.095,179.645,3.04,2.546,0,35,35,4,1,1_to_8,images/Ex1.jpg,images/Ex6.jpg,Ex1,Ex6,,,,,
,,,,,942610,001,36,female,british,bachelor degree,2024-11-07_15h05.10.806,CatSimMDS,2023.2.3,MacIntel,40,63ea497523794756c703094c,672bf50eac1463c2ad3c747f,672cd6edcce8cdc44015e8b7,,,,,,,,,,,179.645,0.6,180.244,180.244,182.528,2.03,2.277,0,36,36,39,1,1_to_8,images/Ex6.jpg,images/Ex5.jpg,Ex6,Ex5,,,,,
,,,,,942610,001,36,female,british,bachelor degree,2024-11-07_15h05.10.806,CatSimMDS,2023.2.3,MacIntel,40,63ea497523794756c703094c,672bf50eac1463c2ad3c747f,672cd6edcce8cdc44015e8b7,,,,,,,,,,,182.529,0.8,183.328,183.328,184.578,2.03,1.246,0,37,37,30,1,1_to_8,images/Ex5.jpg,images/Ex3.jpg,Ex5,Ex3,,,,,
,,,,,942610,001,36,female,british,bachelor degree,2024-11-07_15h05.10.806,CatSimMDS,2023.2.3,MacIntel,40,63ea497523794756c703094c,672bf50eac1463c2ad3c747f,672cd6edcce8cdc44015e8b7,,,,,,,,,,,184.578,1.2,185.779,185.779,188.011,1.11,2.226,0,38,38,51,1,1_to_8,images/Ex8.jpg,images/Ex3.jpg,Ex8,Ex3,,,,,
,,,,,942610,001,36,female,british,bachelor degree,2024-11-07_15h05.10.806,CatSimMDS,2023.2.3,MacIntel,40,63ea497523794756c703094c,672bf50eac1463c2ad3c747f,672cd6edcce8cdc44015e8b7,,,,,,,,,,,188.011,1.5,189.512,189.512,191.895,1,2.377,0,39,39,3,1,1_to_8,images/Ex1.jpg,images/Ex5.jpg,Ex1,Ex5,,,,,
,,,,,942610,001,36,female,british,bachelor degree,2024-11-07_15h05.10.806,CatSimMDS,2023.2.3,MacIntel,40,63ea497523794756c703094c,672bf50eac1463c2ad3c747f,672cd6edcce8cdc44015e8b7,,,,,,,,,,,191.896,1.1,192.995,192.995,194.328,1,1.332,0,40,40,41,1,1_to_8,images/Ex6.jpg,images/Ex8.jpg,Ex6,Ex8,,,,,
,,,,,942610,001,36,female,british,bachelor degree,2024-11-07_15h05.10.806,CatSimMDS,2023.2.3,MacIntel,40,63ea497523794756c703094c,672bf50eac1463c2ad3c747f,672cd6edcce8cdc44015e8b7,,,,,,,,,,,194.328,1.1,195.429,195.429,197.562,2.97,2.13,0,41,41,31,1,1_to_8,images/Ex5.jpg,images/Ex4.jpg,Ex5,Ex4,,,,,
,,,,,942610,001,36,female,british,bachelor degree,2024-11-07_15h05.10.806,CatSimMDS,2023.2.3,MacIntel,40,63ea497523794756c703094c,672bf50eac1463c2ad3c747f,672cd6edcce8cdc44015e8b7,,,,,,,,,,,197.563,1.4,198.962,198.962,200.913,1.51,1.945,0,42,42,43,1,1_to_8,images/Ex7.jpg,images/Ex2.jpg,Ex7,Ex2,,,,,
,,,,,942610,001,36,female,british,bachelor degree,2024-11-07_15h05.10.806,CatSimMDS,2023.2.3,MacIntel,40,63ea497523794756c703094c,672bf50eac1463c2ad3c747f,672cd6edcce8cdc44015e8b7,,,,,,,,,,,200.913,1,201.912,201.912,203.712,1.98,1.794,0,43,43,24,1,1_to_8,images/Ex4.jpg,images/Ex5.jpg,Ex4,Ex5,,,,,
,,,,,942610,001,36,female,british,bachelor degree,2024-11-07_15h05.10.806,CatSimMDS,2023.2.3,MacIntel,40,63ea497523794756c703094c,672bf50eac1463c2ad3c747f,672cd6edcce8cdc44015e8b7,,,,,,,,,,,203.712,1,204.712,204.712,207.597,4,2.88,0,44,44,35,1,1_to_8,images/Ex6.jpg,images/Ex1.jpg,Ex6,Ex1,,,,,
,,,,,942610,001,36,female,british,bachelor degree,2024-11-07_15h05.10.806,CatSimMDS,2023.2.3,MacIntel,40,63ea497523794756c703094c,672bf50eac1463c2ad3c747f,672cd6edcce8cdc44015e8b7,,,,,,,,,,,207.597,0.7,208.296,208.297,210.114,3.03,1.814,0,45,45,25,1,1_to_8,images/Ex4.jpg,images/Ex6.jpg,Ex4,Ex6,,,,,
,,,,,942610,001,36,female,british,bachelor degree,2024-11-07_15h05.10.806,CatSimMDS,2023.2.3,MacIntel,40,63ea497523794756c703094c,672bf50eac1463c2ad3c747f,672cd6edcce8cdc44015e8b7,,,,,,,,,,,210.114,1.4,211.512,211.512,213.53,2.04,2.01,0,46,46,22,1,1_to_8,images/Ex4.jpg,images/Ex2.jpg,Ex4,Ex2,,,,,
,,,,,942610,001,36,female,british,bachelor degree,2024-11-07_15h05.10.806,CatSimMDS,2023.2.3,MacIntel,40,63ea497523794756c703094c,672bf50eac1463c2ad3c747f,672cd6edcce8cdc44015e8b7,,,,,,,,,,,213.53,1.4,214.931,214.931,216.331,2.04,1.392,0,47,47,29,1,1_to_8,images/Ex5.jpg,images/Ex2.jpg,Ex5,Ex2,,,,,
,,,,,942610,001,36,female,british,bachelor degree,2024-11-07_15h05.10.806,CatSimMDS,2023.2.3,MacIntel,40,63ea497523794756c703094c,672bf50eac1463c2ad3c747f,672cd6edcce8cdc44015e8b7,,,,,,,,,,,216.331,0.8,217.131,217.131,220.731,4.03,3.593,0,48,48,27,1,1_to_8,images/Ex4.jpg,images/Ex8.jpg,Ex4,Ex8,,,,,
,,,,,942610,001,36,female,british,bachelor degree,2024-11-07_15h05.10.806,CatSimMDS,2023.2.3,MacIntel,40,63ea497523794756c703094c,672bf50eac1463c2ad3c747f,672cd6edcce8cdc44015e8b7,,,,,,,,,,,220.731,1,221.731,221.731,223.73,1.06,1.996,0,49,49,23,1,1_to_8,images/Ex4.jpg,images/Ex3.jpg,Ex4,Ex3,,,,,
,,,,,942610,001,36,female,british,bachelor degree,2024-11-07_15h05.10.806,CatSimMDS,2023.2.3,MacIntel,40,63ea497523794756c703094c,672bf50eac1463c2ad3c747f,672cd6edcce8cdc44015e8b7,,,,,,,,,,,223.731,1.5,225.231,225.231,226.948,1.06,1.71,0,50,50,48,1,1_to_8,images/Ex7.jpg,images/Ex8.jpg,Ex7,Ex8,,,,,
,,,,,942610,001,36,female,british,bachelor degree,2024-11-07_15h05.10.806,CatSimMDS,2023.2.3,MacIntel,40,63ea497523794756c703094c,672bf50eac1463c2ad3c747f,672cd6edcce8cdc44015e8b7,,,,,,,,,,,226.948,1.3,228.247,228.247,230.531,2.09,2.278,0,51,51,52,1,1_to_8,images/Ex8.jpg,images/Ex4.jpg,Ex8,Ex4,,,,,
,,,,,942610,001,36,female,british,bachelor degree,2024-11-07_15h05.10.806,CatSimMDS,2023.2.3,MacIntel,40,63ea497523794756c703094c,672bf50eac1463c2ad3c747f,672cd6edcce8cdc44015e8b7,,,,,,,,,,,230.532,1.1,231.632,231.632,233.265,2.02,1.626,0,52,52,33,1,1_to_8,images/Ex5.jpg,images/Ex7.jpg,Ex5,Ex7,,,,,
,,,,,942610,001,36,female,british,bachelor degree,2024-11-07_15h05.10.806,CatSimMDS,2023.2.3,MacIntel,40,63ea497523794756c703094c,672bf50eac1463c2ad3c747f,672cd6edcce8cdc44015e8b7,,,,,,,,,,,233.266,0.5,233.765,233.765,235.182,2.02,1.406,0,53,53,9,1,1_to_8,images/Ex2.jpg,images/Ex4.jpg,Ex2,Ex4,,,,,
,,,,,942610,001,36,female,british,bachelor degree,2024-11-07_15h05.10.806,CatSimMDS,2023.2.3,MacIntel,40,63ea497523794756c703094c,672bf50eac1463c2ad3c747f,672cd6edcce8cdc44015e8b7,,,,,,,,,,,235.182,1.5,236.682,236.682,239.182,1.11,2.49,0,54,54,42,1,1_to_8,images/Ex7.jpg,images/Ex1.jpg,Ex7,Ex1,,,,,
,,,,,942610,001,36,female,british,bachelor degree,2024-11-07_15h05.10.806,CatSimMDS,2023.2.3,MacIntel,40,63ea497523794756c703094c,672bf50eac1463c2ad3c747f,672cd6edcce8cdc44015e8b7,,,,,,239.19,241.048,space,1.843,,241.056,0.6,241.649,241.649,246.099,1.05,4.442,0,0,0,24,1,9_to_16,images/Ex12.jpg,images/Ex13.jpg,Ex12,Ex13,,,,,
,,,,,942610,001,36,female,british,bachelor degree,2024-11-07_15h05.10.806,CatSimMDS,2023.2.3,MacIntel,40,63ea497523794756c703094c,672bf50eac1463c2ad3c747f,672cd6edcce8cdc44015e8b7,,,,,,,,,,,246.099,1,247.099,247.099,249.516,1.02,2.413,0,1,1,12,1,9_to_16,images/Ex10.jpg,images/Ex15.jpg,Ex10,Ex15,,,,,
,,,,,942610,001,36,female,british,bachelor degree,2024-11-07_15h05.10.806,CatSimMDS,2023.2.3,MacIntel,40,63ea497523794756c703094c,672bf50eac1463c2ad3c747f,672cd6edcce8cdc44015e8b7,,,,,,,,,,,249.517,0.8,250.316,250.316,253.182,1.02,2.865,0,2,2,18,1,9_to_16,images/Ex11.jpg,images/Ex14.jpg,Ex11,Ex14,,,,,
,,,,,942610,001,36,female,british,bachelor degree,2024-11-07_15h05.10.806,CatSimMDS,2023.2.3,MacIntel,40,63ea497523794756c703094c,672bf50eac1463c2ad3c747f,672cd6edcce8cdc44015e8b7,,,,,,,,,,,253.182,0.7,253.883,253.883,256.849,1.06,2.966,0,3,3,49,1,9_to_16,images/Ex16.jpg,images/Ex9.jpg,Ex16,Ex9,,,,,
,,,,,942610,001,36,female,british,bachelor degree,2024-11-07_15h05.10.806,CatSimMDS,2023.2.3,MacIntel,40,63ea497523794756c703094c,672bf50eac1463c2ad3c747f,672cd6edcce8cdc44015e8b7,,,,,,,,,,,256.849,0.7,257.549,257.549,260.5,1.05,2.944,0,4,4,19,1,9_to_16,images/Ex11.jpg,images/Ex15.jpg,Ex11,Ex15,,,,,
,,,,,942610,001,36,female,british,bachelor degree,2024-11-07_15h05.10.806,CatSimMDS,2023.2.3,MacIntel,40,63ea497523794756c703094c,672bf50eac1463c2ad3c747f,672cd6edcce8cdc44015e8b7,,,,,,,,,,,260.501,0.6,261.1,261.101,264.783,1.02,3.68,0,5,5,2,1,9_to_16,images/Ex9.jpg,images/Ex12.jpg,Ex9,Ex12,,,,,
,,,,,942610,001,36,female,british,bachelor degree,2024-11-07_15h05.10.806,CatSimMDS,2023.2.3,MacIntel,40,63ea497523794756c703094c,672bf50eac1463c2ad3c747f,672cd6edcce8cdc44015e8b7,,,,,,,,,,,264.783,1.1,265.884,265.884,266.95,1.02,1.065,0,6,6,10,1,9_to_16,images/Ex10.jpg,images/Ex13.jpg,Ex10,Ex13,,,,,
,,,,,942610,001,36,female,british,bachelor degree,2024-11-07_15h05.10.806,CatSimMDS,2023.2.3,MacIntel,40,63ea497523794756c703094c,672bf50eac1463c2ad3c747f,672cd6edcce8cdc44015e8b7,,,,,,,,,,,266.95,1,267.95,267.95,269.483,1.02,1.525,0,7,7,43,1,9_to_16,images/Ex15.jpg,images/Ex10.jpg,Ex15,Ex10,,,,,
,,,,,942610,001,36,female,british,bachelor degree,2024-11-07_15h05.10.806,CatSimMDS,2023.2.3,MacIntel,40,63ea497523794756c703094c,672bf50eac1463c2ad3c747f,672cd6edcce8cdc44015e8b7,,,,,,,,,,,269.484,1,270.483,270.483,272.033,1.02,1.548,0,8,8,7,1,9_to_16,images/Ex10.jpg,images/Ex9.jpg,Ex10,Ex9,,,,,
,,,,,942610,001,36,female,british,bachelor degree,2024-11-07_15h05.10.806,CatSimMDS,2023.2.3,MacIntel,40,63ea497523794756c703094c,672bf50eac1463c2ad3c747f,672cd6edcce8cdc44015e8b7,,,,,,,,,,,272.034,1,273.033,273.033,276.201,1.97,3.163,0,9,9,35,1,9_to_16,images/Ex14.jpg,images/Ex9.jpg,Ex14,Ex9,,,,,
,,,,,942610,001,36,female,british,bachelor degree,2024-11-07_15h05.10.806,CatSimMDS,2023.2.3,MacIntel,40,63ea497523794756c703094c,672bf50eac1463c2ad3c747f,672cd6edcce8cdc44015e8b7,,,,,,,,,,,276.201,1.4,277.602,277.602,279.552,1.08,1.943,0,10,10,48,1,9_to_16,images/Ex15.jpg,images/Ex16.jpg,Ex15,Ex16,,,,,
,,,,,942610,001,36,female,british,bachelor degree,2024-11-07_15h05.10.806,CatSimMDS,2023.2.3,MacIntel,40,63ea497523794756c703094c,672bf50eac1463c2ad3c747f,672cd6edcce8cdc44015e8b7,,,,,,,,,,,279.552,0.7,280.252,280.252,283.302,2.27,3.047,0,11,11,20,1,9_to_16,images/Ex11.jpg,images/Ex16.jpg,Ex11,Ex16,,,,,
,,,,,942610,001,36,female,british,bachelor degree,2024-11-07_15h05.10.806,CatSimMDS,2023.2.3,MacIntel,40,63ea497523794756c703094c,672bf50eac1463c2ad3c747f,672cd6edcce8cdc44015e8b7,,,,,,,,,,,283.302,1.1,284.401,284.401,287.018,1.37,2.614,0,12,12,37,1,9_to_16,images/Ex14.jpg,images/Ex11.jpg,Ex14,Ex11,,,,,
,,,,,942610,001,36,female,british,bachelor degree,2024-11-07_15h05.10.806,CatSimMDS,2023.2.3,MacIntel,40,63ea497523794756c703094c,672bf50eac1463c2ad3c747f,672cd6edcce8cdc44015e8b7,,,,,,,,,,,287.018,0.9,287.918,287.918,289.819,1.1,1.9,0,13,13,33,1,9_to_16,images/Ex13.jpg,images/Ex15.jpg,Ex13,Ex15,,,,,
,,,,,942610,001,36,female,british,bachelor degree,2024-11-07_15h05.10.806,CatSimMDS,2023.2.3,MacIntel,40,63ea497523794756c703094c,672bf50eac1463c2ad3c747f,672cd6edcce8cdc44015e8b7,,,,,,,,,,,289.819,0.6,290.419,290.419,292.019,1.1,1.596,0,14,14,39,1,9_to_16,images/Ex14.jpg,images/Ex13.jpg,Ex14,Ex13,,,,,
,,,,,942610,001,36,female,british,bachelor degree,2024-11-07_15h05.10.806,CatSimMDS,2023.2.3,MacIntel,40,63ea497523794756c703094c,672bf50eac1463c2ad3c747f,672cd6edcce8cdc44015e8b7,,,,,,,,,,,292.019,1,293.019,293.019,295.153,1.1,2.125,0,15,15,14,1,9_to_16,images/Ex11.jpg,images/Ex9.jpg,Ex11,Ex9,,,,,
,,,,,942610,001,36,female,british,bachelor degree,2024-11-07_15h05.10.806,CatSimMDS,2023.2.3,MacIntel,40,63ea497523794756c703094c,672bf50eac1463c2ad3c747f,672cd6edcce8cdc44015e8b7,,,,,,,,,,,295.154,1.2,296.352,296.352,297.47,1.1,1.108,0,16,16,47,1,9_to_16,images/Ex15.jpg,images/Ex14.jpg,Ex15,Ex14,,,,,
,,,,,942610,001,36,female,british,bachelor degree,2024-11-07_15h05.10.806,CatSimMDS,2023.2.3,MacIntel,40,63ea497523794756c703094c,672bf50eac1463c2ad3c747f,672cd6edcce8cdc44015e8b7,,,,,,,,,,,297.47,1,298.47,298.47,301.02,1.05,2.549,0,17,17,38,1,9_to_16,images/Ex14.jpg,images/Ex12.jpg,Ex14,Ex12,,,,,
,,,,,942610,001,36,female,british,bachelor degree,2024-11-07_15h05.10.806,CatSimMDS,2023.2.3,MacIntel,40,63ea497523794756c703094c,672bf50eac1463c2ad3c747f,672cd6edcce8cdc44015e8b7,,,,,,,,,,,301.02,1.1,302.12,302.12,305.553,1.06,3.43,0,18,18,44,1,9_to_16,images/Ex15.jpg,images/Ex11.jpg,Ex15,Ex11,,,,,
,,,,,942610,001,36,female,british,bachelor degree,2024-11-07_15h05.10.806,CatSimMDS,2023.2.3,MacIntel,40,63ea497523794756c703094c,672bf50eac1463c2ad3c747f,672cd6edcce8cdc44015e8b7,,,,,,,,,,,305.554,1,306.554,306.554,308.67,1.05,2.113,0,19,19,16,1,9_to_16,images/Ex11.jpg,images/Ex12.jpg,Ex11,Ex12,,,,,
,,,,,942610,001,36,female,british,bachelor degree,2024-11-07_15h05.10.806,CatSimMDS,2023.2.3,MacIntel,40,63ea497523794756c703094c,672bf50eac1463c2ad3c747f,672cd6edcce8cdc44015e8b7,,,,,,,,,,,308.671,1.5,310.171,310.171,311.204,1.05,1.027,0,20,20,9,1,9_to_16,images/Ex10.jpg,images/Ex12.jpg,Ex10,Ex12,,,,,
,,,,,942610,001,36,female,british,bachelor degree,2024-11-07_15h05.10.806,CatSimMDS,2023.2.3,MacIntel,40,63ea497523794756c703094c,672bf50eac1463c2ad3c747f,672cd6edcce8cdc44015e8b7,,,,,,,,,,,311.204,1.3,312.503,312.503,314.537,1.06,2.027,0,21,21,31,1,9_to_16,images/Ex13.jpg,images/Ex12.jpg,Ex13,Ex12,,,,,
,,,,,942610,001,36,female,british,bachelor degree,2024-11-07_15h05.10.806,CatSimMDS,2023.2.3,MacIntel,40,63ea497523794756c703094c,672bf50eac1463c2ad3c747f,672cd6edcce8cdc44015e8b7,,,,,,,,,,,314.537,0.7,315.237,315.237,316.403,1.06,1.159,0,22,22,21,1,9_to_16,images/Ex12.jpg,images/Ex9.jpg,Ex12,Ex9,,,,,
,,,,,942610,001,36,female,british,bachelor degree,2024-11-07_15h05.10.806,CatSimMDS,2023.2.3,MacIntel,40,63ea497523794756c703094c,672bf50eac1463c2ad3c747f,672cd6edcce8cdc44015e8b7,,,,,,,,,,,316.404,0.7,317.104,317.104,318.204,1.06,1.096,0,23,23,17,1,9_to_16,images/Ex11.jpg,images/Ex13.jpg,Ex11,Ex13,,,,,
,,,,,942610,001,36,female,british,bachelor degree,2024-11-07_15h05.10.806,CatSimMDS,2023.2.3,MacIntel,40,63ea497523794756c703094c,672bf50eac1463c2ad3c747f,672cd6edcce8cdc44015e8b7,,,,,,,,,,,318.204,1.5,319.705,319.705,322.571,2,2.859,0,24,24,3,1,9_to_16,images/Ex9.jpg,images/Ex13.jpg,Ex9,Ex13,,,,,
,,,,,942610,001,36,female,british,bachelor degree,2024-11-07_15h05.10.806,CatSimMDS,2023.2.3,MacIntel,40,63ea497523794756c703094c,672bf50eac1463c2ad3c747f,672cd6edcce8cdc44015e8b7,,,,,,,,,,,322.571,1,323.57,323.57,325.671,1.95,2.1,0,25,25,28,1,9_to_16,images/Ex13.jpg,images/Ex9.jpg,Ex13,Ex9,,,,,
,,,,,942610,001,36,female,british,bachelor degree,2024-11-07_15h05.10.806,CatSimMDS,2023.2.3,MacIntel,40,63ea497523794756c703094c,672bf50eac1463c2ad3c747f,672cd6edcce8cdc44015e8b7,,,,,,,,,,,325.671,1.4,327.072,327.072,329.989,2.07,2.91,0,26,26,36,1,9_to_16,images/Ex14.jpg,images/Ex10.jpg,Ex14,Ex10,,,,,
,,,,,942610,001,36,female,british,bachelor degree,2024-11-07_15h05.10.806,CatSimMDS,2023.2.3,MacIntel,40,63ea497523794756c703094c,672bf50eac1463c2ad3c747f,672cd6edcce8cdc44015e8b7,,,,,,,,,,,329.989,1.1,331.089,331.089,333.188,1.02,2.097,0,27,27,42,1,9_to_16,images/Ex15.jpg,images/Ex9.jpg,Ex15,Ex9,,,,,
,,,,,942610,001,36,female,british,bachelor degree,2024-11-07_15h05.10.806,CatSimMDS,2023.2.3,MacIntel,40,63ea497523794756c703094c,672bf50eac1463c2ad3c747f,672cd6edcce8cdc44015e8b7,,,,,,,,,,,333.188,1.3,334.488,334.488,336.989,1.02,2.497,0,28,28,45,1,9_to_16,images/Ex15.jpg,images/Ex12.jpg,Ex15,Ex12,,,,,
,,,,,942610,001,36,female,british,bachelor degree,2024-11-07_15h05.10.806,CatSimMDS,2023.2.3,MacIntel,40,63ea497523794756c703094c,672bf50eac1463c2ad3c747f,672cd6edcce8cdc44015e8b7,,,,,,,,,,,336.989,0.5,337.488,337.488,340.089,1,2.592,0,29,29,26,1,9_to_16,images/Ex12.jpg,images/Ex15.jpg,Ex12,Ex15,,,,,
,,,,,942610,001,36,female,british,bachelor degree,2024-11-07_15h05.10.806,CatSimMDS,2023.2.3,MacIntel,40,63ea497523794756c703094c,672bf50eac1463c2ad3c747f,672cd6edcce8cdc44015e8b7,,,,,,,,,,,340.09,0.9,340.989,340.989,342.939,1.03,1.942,0,30,30,41,1,9_to_16,images/Ex14.jpg,images/Ex16.jpg,Ex14,Ex16,,,,,
,,,,,942610,001,36,female,british,bachelor degree,2024-11-07_15h05.10.806,CatSimMDS,2023.2.3,MacIntel,40,63ea497523794756c703094c,672bf50eac1463c2ad3c747f,672cd6edcce8cdc44015e8b7,,,,,,,,,,,342.94,0.8,343.738,343.739,345.739,1.02,1.997,0,31,31,1,1,9_to_16,images/Ex9.jpg,images/Ex11.jpg,Ex9,Ex11,,,,,
,,,,,942610,001,36,female,british,bachelor degree,2024-11-07_15h05.10.806,CatSimMDS,2023.2.3,MacIntel,40,63ea497523794756c703094c,672bf50eac1463c2ad3c747f,672cd6edcce8cdc44015e8b7,,,,,,,,,,,345.739,1.3,347.039,347.039,349.14,1.06,2.097,0,32,32,6,1,9_to_16,images/Ex9.jpg,images/Ex16.jpg,Ex9,Ex16,,,,,
,,,,,942610,001,36,female,british,bachelor degree,2024-11-07_15h05.10.806,CatSimMDS,2023.2.3,MacIntel,40,63ea497523794756c703094c,672bf50eac1463c2ad3c747f,672cd6edcce8cdc44015e8b7,,,,,,,,,,,349.141,1.3,350.44,350.44,352.489,1.04,2.045,0,33,33,23,1,9_to_16,images/Ex12.jpg,images/Ex11.jpg,Ex12,Ex11,,,,,
,,,,,942610,001,36,female,british,bachelor degree,2024-11-07_15h05.10.806,CatSimMDS,2023.2.3,MacIntel,40,63ea497523794756c703094c,672bf50eac1463c2ad3c747f,672cd6edcce8cdc44015e8b7,,,,,,,,,,,352.49,1.3,353.79,353.79,355.674,1.02,1.883,0,34,34,15,1,9_to_16,images/Ex11.jpg,images/Ex10.jpg,Ex11,Ex10,,,,,
,,,,,942610,001,36,female,british,bachelor degree,2024-11-07_15h05.10.806,CatSimMDS,2023.2.3,MacIntel,40,63ea497523794756c703094c,672bf50eac1463c2ad3c747f,672cd6edcce8cdc44015e8b7,,,,,,,,,,,355.674,1.5,357.174,357.174,360.324,1.05,3.149,0,35,35,0,1,9_to_16,images/Ex9.jpg,images/Ex10.jpg,Ex9,Ex10,,,,,
,,,,,942610,001,36,female,british,bachelor degree,2024-11-07_15h05.10.806,CatSimMDS,2023.2.3,MacIntel,40,63ea497523794756c703094c,672bf50eac1463c2ad3c747f,672cd6edcce8cdc44015e8b7,,,,,,,,,,,360.324,1.1,361.423,361.424,363.191,1.04,1.764,0,36,36,13,1,9_to_16,images/Ex10.jpg,images/Ex16.jpg,Ex10,Ex16,,,,,
,,,,,942610,001,36,female,british,bachelor degree,2024-11-07_15h05.10.806,CatSimMDS,2023.2.3,MacIntel,40,63ea497523794756c703094c,672bf50eac1463c2ad3c747f,672cd6edcce8cdc44015e8b7,,,,,,,,,,,363.191,0.6,363.791,363.791,365.307,1.04,1.513,0,37,37,52,1,9_to_16,images/Ex16.jpg,images/Ex12.jpg,Ex16,Ex12,,,,,
,,,,,942610,001,36,female,british,bachelor degree,2024-11-07_15h05.10.806,CatSimMDS,2023.2.3,MacIntel,40,63ea497523794756c703094c,672bf50eac1463c2ad3c747f,672cd6edcce8cdc44015e8b7,,,,,,,,,,,365.307,0.7,366.008,366.008,367.957,1.04,1.947,0,38,38,29,1,9_to_16,images/Ex13.jpg,images/Ex10.jpg,Ex13,Ex10,,,,,
,,,,,942610,001,36,female,british,bachelor degree,2024-11-07_15h05.10.806,CatSimMDS,2023.2.3,MacIntel,40,63ea497523794756c703094c,672bf50eac1463c2ad3c747f,672cd6edcce8cdc44015e8b7,,,,,,,,,,,367.957,0.7,368.658,368.658,370.624,1.05,1.958,0,39,39,4,1,9_to_16,images/Ex9.jpg,images/Ex14.jpg,Ex9,Ex14,,,,,
,,,,,942610,001,36,female,british,bachelor degree,2024-11-07_15h05.10.806,CatSimMDS,2023.2.3,MacIntel,40,63ea497523794756c703094c,672bf50eac1463c2ad3c747f,672cd6edcce8cdc44015e8b7,,,,,,,,,,,370.624,1.4,372.024,372.024,373.808,1.09,1.782,0,40,40,27,1,9_to_16,images/Ex12.jpg,images/Ex16.jpg,Ex12,Ex16,,,,,
,,,,,942610,001,36,female,british,bachelor degree,2024-11-07_15h05.10.806,CatSimMDS,2023.2.3,MacIntel,40,63ea497523794756c703094c,672bf50eac1463c2ad3c747f,672cd6edcce8cdc44015e8b7,,,,,,,,,,,373.809,1.5,375.308,375.308,377.241,1.07,1.924,0,41,41,32,1,9_to_16,images/Ex13.jpg,images/Ex14.jpg,Ex13,Ex14,,,,,
,,,,,942610,001,36,female,british,bachelor degree,2024-11-07_15h05.10.806,CatSimMDS,2023.2.3,MacIntel,40,63ea497523794756c703094c,672bf50eac1463c2ad3c747f,672cd6edcce8cdc44015e8b7,,,,,,,,,,,377.241,0.9,378.142,378.142,379.974,1.02,1.832,0,42,42,30,1,9_to_16,images/Ex13.jpg,images/Ex11.jpg,Ex13,Ex11,,,,,
,,,,,942610,001,36,female,british,bachelor degree,2024-11-07_15h05.10.806,CatSimMDS,2023.2.3,MacIntel,40,63ea497523794756c703094c,672bf50eac1463c2ad3c747f,672cd6edcce8cdc44015e8b7,,,,,,,,,,,379.975,0.8,380.774,380.774,383.425,3.01,2.647,0,43,43,51,1,9_to_16,images/Ex16.jpg,images/Ex11.jpg,Ex16,Ex11,,,,,
,,,,,942610,001,36,female,british,bachelor degree,2024-11-07_15h05.10.806,CatSimMDS,2023.2.3,MacIntel,40,63ea497523794756c703094c,672bf50eac1463c2ad3c747f,672cd6edcce8cdc44015e8b7,,,,,,,,,,,383.425,1.2,384.626,384.626,386.991,1.04,2.36,0,44,44,5,1,9_to_16,images/Ex9.jpg,images/Ex15.jpg,Ex9,Ex15,,,,,
,,,,,942610,001,36,female,british,bachelor degree,2024-11-07_15h05.10.806,CatSimMDS,2023.2.3,MacIntel,40,63ea497523794756c703094c,672bf50eac1463c2ad3c747f,672cd6edcce8cdc44015e8b7,,,,,,,,,,,386.992,1.5,388.492,388.492,390.242,1.05,1.746,0,45,45,53,1,9_to_16,images/Ex16.jpg,images/Ex13.jpg,Ex16,Ex13,,,,,
,,,,,942610,001,36,female,british,bachelor degree,2024-11-07_15h05.10.806,CatSimMDS,2023.2.3,MacIntel,40,63ea497523794756c703094c,672bf50eac1463c2ad3c747f,672cd6edcce8cdc44015e8b7,,,,,,,,,,,390.243,1.5,391.743,391.743,393.576,1.08,1.829,0,46,46,54,1,9_to_16,images/Ex16.jpg,images/Ex14.jpg,Ex16,Ex14,,,,,
,,,,,942610,001,36,female,british,bachelor degree,2024-11-07_15h05.10.806,CatSimMDS,2023.2.3,MacIntel,40,63ea497523794756c703094c,672bf50eac1463c2ad3c747f,672cd6edcce8cdc44015e8b7,,,,,,,,,,,393.576,1.4,394.976,394.976,396.959,2.91,1.975,0,47,47,11,1,9_to_16,images/Ex10.jpg,images/Ex14.jpg,Ex10,Ex14,,,,,
,,,,,942610,001,36,female,british,bachelor degree,2024-11-07_15h05.10.806,CatSimMDS,2023.2.3,MacIntel,40,63ea497523794756c703094c,672bf50eac1463c2ad3c747f,672cd6edcce8cdc44015e8b7,,,,,,,,,,,396.959,1.1,398.059,398.059,399.91,1.08,1.843,0,48,48,50,1,9_to_16,images/Ex16.jpg,images/Ex10.jpg,Ex16,Ex10,,,,,
,,,,,942610,001,36,female,british,bachelor degree,2024-11-07_15h05.10.806,CatSimMDS,2023.2.3,MacIntel,40,63ea497523794756c703094c,672bf50eac1463c2ad3c747f,672cd6edcce8cdc44015e8b7,,,,,,,,,,,399.91,1.3,401.21,401.21,403.043,1.04,1.83,0,49,49,34,1,9_to_16,images/Ex13.jpg,images/Ex16.jpg,Ex13,Ex16,,,,,
,,,,,942610,001,36,female,british,bachelor degree,2024-11-07_15h05.10.806,CatSimMDS,2023.2.3,MacIntel,40,63ea497523794756c703094c,672bf50eac1463c2ad3c747f,672cd6edcce8cdc44015e8b7,,,,,,,,,,,403.044,0.5,403.543,403.543,405.693,1.06,2.148,0,50,50,8,1,9_to_16,images/Ex10.jpg,images/Ex11.jpg,Ex10,Ex11,,,,,
,,,,,942610,001,36,female,british,bachelor degree,2024-11-07_15h05.10.806,CatSimMDS,2023.2.3,MacIntel,40,63ea497523794756c703094c,672bf50eac1463c2ad3c747f,672cd6edcce8cdc44015e8b7,,,,,,,,,,,405.694,1.5,407.193,407.194,409.111,1.06,1.913,0,51,51,22,1,9_to_16,images/Ex12.jpg,images/Ex10.jpg,Ex12,Ex10,,,,,
,,,,,942610,001,36,female,british,bachelor degree,2024-11-07_15h05.10.806,CatSimMDS,2023.2.3,MacIntel,40,63ea497523794756c703094c,672bf50eac1463c2ad3c747f,672cd6edcce8cdc44015e8b7,,,,,,,,,,,409.112,0.6,409.711,409.711,412.061,2.06,2.346,0,52,52,46,1,9_to_16,images/Ex15.jpg,images/Ex13.jpg,Ex15,Ex13,,,,,
,,,,,942610,001,36,female,british,bachelor degree,2024-11-07_15h05.10.806,CatSimMDS,2023.2.3,MacIntel,40,63ea497523794756c703094c,672bf50eac1463c2ad3c747f,672cd6edcce8cdc44015e8b7,,,,,,,,,,,412.061,0.5,412.56,412.56,415.677,1.1,3.114,0,53,53,25,1,9_to_16,images/Ex12.jpg,images/Ex14.jpg,Ex12,Ex14,,,,,
,,,,,942610,001,36,female,british,bachelor degree,2024-11-07_15h05.10.806,CatSimMDS,2023.2.3,MacIntel,40,63ea497523794756c703094c,672bf50eac1463c2ad3c747f,672cd6edcce8cdc44015e8b7,,,,,,,,,,,415.677,1.1,416.777,416.777,418.812,1.07,2.031,0,54,54,40,1,9_to_16,images/Ex14.jpg,images/Ex15.jpg,Ex14,Ex15,,,,,
,,,,,942610,001,36,female,british,bachelor degree,2024-11-07_15h05.10.806,CatSimMDS,2023.2.3,MacIntel,40,63ea497523794756c703094c,672bf50eac1463c2ad3c747f,672cd6edcce8cdc44015e8b7,,,,,,,,,,,,,,,,,,,,,,,,,,,,418.813,440.464,space,21.615,