infCons.started,infCons.stopped,resp_consent.keys,resp_consent.rt,resp_consent.duration,participant,session,Age?,Gender?,Nationality?,Highest Educational Degree?,date,expName,psychopyVersion,OS,frameRate,PROLIFIC_PID,STUDY_ID,SESSION_ID,instructions.started,instructions.stopped,resp_instructions.keys,resp_instructions.rt,resp_instructions.duration,nextTask.started,nextTask.stopped,ready_task.keys,ready_task.rt,ready_task.duration,fixation.started,ITI,fixation.stopped,stim.started,stim.stopped,slider.response,slider.rt,trials.thisRepN,trials.thisTrialN,trials.thisN,trials.thisIndex,trials.ran,task,exemplarLeft,exemplarRight,left,right,end.started,end.stopped,resp_end.keys,resp_end.rt,resp_end.duration
0.001,7.83,space,7.79,,995364,001,38,Male,British,BA HONS,2024-11-07_15h07.58.197,CatSimMDS,2023.2.3,MacIntel,10.86956522,5cf5497696cde00015bc3ce7,672bf50eac1463c2ad3c747f,672cd6e752a40a14f85dd936,,,,,,,,,,,,,,,,,,,,,,,,,,,,,,,,
,,,,,995364,001,38,Male,British,BA HONS,2024-11-07_15h07.58.197,CatSimMDS,2023.2.3,MacIntel,10.86956522,5cf5497696cde00015bc3ce7,672bf50eac1463c2ad3c747f,672cd6e752a40a14f85dd936,7.831,65.378,space,57.529,,,,,,,,,,,,,,,,,,,,,,,,,,,,
,,,,,995364,001,38,Male,British,BA HONS,2024-11-07_15h07.58.197,CatSimMDS,2023.2.3,MacIntel,10.86956522,5cf5497696cde00015bc3ce7,672bf50eac1463c2ad3c747f,672cd6e752a40a14f85dd936,,,,,,65.39,67.723,space,2.308,,67.737,0.9,68.637,68.637,72.777,2.755,4.13,0,0,0,34,1,9_to_16,images/Ex13.jpg,images/Ex16.jpg,Ex13,Ex16,,,,,
,,,,,995364,001,38,Male,British,BA HONS,2024-11-07_15h07.58.197,CatSimMDS,2023.2.3,MacIntel,10.86956522,5cf5497696cde00015bc3ce7,672bf50eac1463c2ad3c747f,672cd6e752a40a14f85dd936,,,,,,,,,,,72.778,0.7,73.474,73.474,75.953,2.71,2.471,0,1,1,45,1,9_to_16,images/Ex15.jpg,images/Ex12.jpg,Ex15,Ex12,,,,,
,,,,,995364,001,38,Male,British,BA HONS,2024-11-07_15h07.58.197,CatSimMDS,2023.2.3,MacIntel,10.86956522,5cf5497696cde00015bc3ce7,672bf50eac1463c2ad3c747f,672cd6e752a40a14f85dd936,,,,,,,,,,,75.954,0.7,76.651,76.651,78.746,2.0125,2.089,0,2,2,8,1,9_to_16,images/Ex10.jpg,images/Ex11.jpg,Ex10,Ex11,,,,,
,,,,,995364,001,38,Male,British,BA HONS,2024-11-07_15h07.58.197,CatSimMDS,2023.2.3,MacIntel,10.86956522,5cf5497696cde00015bc3ce7,672bf50eac1463c2ad3c747f,672cd6e752a40a14f85dd936,,,,,,,,,,,78.747,1,79.744,79.744,81.922,5.005,2.17,0,3,3,21,1,9_to_16,images/Ex12.jpg,images/Ex9.jpg,Ex12,Ex9,,,,,
,,,,,995364,001,38,Male,British,BA HONS,2024-11-07_15h07.58.197,CatSimMDS,2023.2.3,MacIntel,10.86956522,5cf5497696cde00015bc3ce7,672bf50eac1463c2ad3c747f,672cd6e752a40a14f85dd936,,,,,,,,,,,81.922,0.8,82.72,82.72,84.681,1.765,1.959,0,4,4,36,1,9_to_16,images/Ex14.jpg,images/Ex10.jpg,Ex14,Ex10,,,,,
,,,,,995364,001,38,Male,British,BA HONS,2024-11-07_15h07.58.197,CatSimMDS,2023.2.3,MacIntel,10.86956522,5cf5497696cde00015bc3ce7,672bf50eac1463c2ad3c747f,672cd6e752a40a14f85dd936,,,,,,,,,,,84.681,1.5,86.177,86.178,88.224,1.68625,2.037,0,5,5,49,1,9_to_16,images/Ex16.jpg,images/Ex9.jpg,Ex16,Ex9,,,,,
,,,,,995364,001,38,Male,British,BA HONS,2024-11-07_15h07.58.197,CatSimMDS,2023.2.3,MacIntel,10.86956522,5cf5497696cde00015bc3ce7,672bf50eac1463c2ad3c747f,672cd6e752a40a14f85dd936,,,,,,,,,,,88.224,0.8,89.022,89.022,91.766,5.51125,2.738,0,6,6,54,1,9_to_16,images/Ex16.jpg,images/Ex14.jpg,Ex16,Ex14,,,,,
,,,,,995364,001,38,Male,British,BA HONS,2024-11-07_15h07.58.197,CatSimMDS,2023.2.3,MacIntel,10.86956522,5cf5497696cde00015bc3ce7,672bf50eac1463c2ad3c747f,672cd6e752a40a14f85dd936,,,,,,,,,,,91.766,0.9,92.663,92.663,95.54,2.13625,2.872,0,7,7,31,1,9_to_16,images/Ex13.jpg,images/Ex12.jpg,Ex13,Ex12,,,,,
,,,,,995364,001,38,Male,British,BA HONS,2024-11-07_15h07.58.197,CatSimMDS,2023.2.3,MacIntel,10.86956522,5cf5497696cde00015bc3ce7,672bf50eac1463c2ad3c747f,672cd6e752a40a14f85dd936,,,,,,,,,,,95.54,1.5,97.035,97.035,99.213,2.26,2.169,0,8,8,51,1,9_to_16,images/Ex16.jpg,images/Ex11.jpg,Ex16,Ex11,,,,,
,,,,,995364,001,38,Male,British,BA HONS,2024-11-07_15h07.58.197,CatSimMDS,2023.2.3,MacIntel,10.86956522,5cf5497696cde00015bc3ce7,672bf50eac1463c2ad3c747f,672cd6e752a40a14f85dd936,,,,,,,,,,,99.214,1.2,100.412,100.412,103.054,5.5675,2.636,0,9,9,46,1,9_to_16,images/Ex15.jpg,images/Ex13.jpg,Ex15,Ex13,,,,,
,,,,,995364,001,38,Male,British,BA HONS,2024-11-07_15h07.58.197,CatSimMDS,2023.2.3,MacIntel,10.86956522,5cf5497696cde00015bc3ce7,672bf50eac1463c2ad3c747f,672cd6e752a40a14f85dd936,,,,,,,,,,,103.055,0.8,103.854,103.854,106.264,6.81625,2.402,0,10,10,1,1,9_to_16,images/Ex9.jpg,images/Ex11.jpg,Ex9,Ex11,,,,,
,,,,,995364,001,38,Male,British,BA HONS,2024-11-07_15h07.58.197,CatSimMDS,2023.2.3,MacIntel,10.86956522,5cf5497696cde00015bc3ce7,672bf50eac1463c2ad3c747f,672cd6e752a40a14f85dd936,,,,,,,,,,,106.265,0.7,106.963,106.963,108.975,6.805,2.004,0,11,11,19,1,9_to_16,images/Ex11.jpg,images/Ex15.jpg,Ex11,Ex15,,,,,
,,,,,995364,001,38,Male,British,BA HONS,2024-11-07_15h07.58.197,CatSimMDS,2023.2.3,MacIntel,10.86956522,5cf5497696cde00015bc3ce7,672bf50eac1463c2ad3c747f,672cd6e752a40a14f85dd936,,,,,,,,,,,108.976,1.4,110.372,110.372,112.133,7.49125,1.752,0,12,12,40,1,9_to_16,images/Ex14.jpg,images/Ex15.jpg,Ex14,Ex15,,,,,
,,,,,995364,001,38,Male,British,BA HONS,2024-11-07_15h07.58.197,CatSimMDS,2023.2.3,MacIntel,10.86956522,5cf5497696cde00015bc3ce7,672bf50eac1463c2ad3c747f,672cd6e752a40a14f85dd936,,,,,,,,,,,112.134,0.8,112.932,112.932,114.811,7.5475,1.87,0,13,13,14,1,9_to_16,images/Ex11.jpg,images/Ex9.jpg,Ex11,Ex9,,,,,
,,,,,995364,001,38,Male,British,BA HONS,2024-11-07_15h07.58.197,CatSimMDS,2023.2.3,MacIntel,10.86956522,5cf5497696cde00015bc3ce7,672bf50eac1463c2ad3c747f,672cd6e752a40a14f85dd936,,,,,,,,,,,114.811,1.1,115.908,115.908,119.117,4.6225,3.202,0,14,14,47,1,9_to_16,images/Ex15.jpg,images/Ex14.jpg,Ex15,Ex14,,,,,
,,,,,995364,001,38,Male,British,BA HONS,2024-11-07_15h07.58.197,CatSimMDS,2023.2.3,MacIntel,10.86956522,5cf5497696cde00015bc3ce7,672bf50eac1463c2ad3c747f,672cd6e752a40a14f85dd936,,,,,,,,,,,119.117,1.1,120.214,120.214,122.558,1.91125,2.342,0,15,15,24,1,9_to_16,images/Ex12.jpg,images/Ex13.jpg,Ex12,Ex13,,,,,
,,,,,995364,001,38,Male,British,BA HONS,2024-11-07_15h07.58.197,CatSimMDS,2023.2.3,MacIntel,10.86956522,5cf5497696cde00015bc3ce7,672bf50eac1463c2ad3c747f,672cd6e752a40a14f85dd936,,,,,,,,,,,122.559,0.9,123.457,123.457,125.469,2.27125,2.007,0,16,16,50,1,9_to_16,images/Ex16.jpg,images/Ex10.jpg,Ex16,Ex10,,,,,
,,,,,995364,001,38,Male,British,BA HONS,2024-11-07_15h07.58.197,CatSimMDS,2023.2.3,MacIntel,10.86956522,5cf5497696cde00015bc3ce7,672bf50eac1463c2ad3c747f,672cd6e752a40a14f85dd936,,,,,,,,,,,125.47,1,126.467,126.467,128.279,7.94125,1.805,0,17,17,25,1,9_to_16,images/Ex12.jpg,images/Ex14.jpg,Ex12,Ex14,,,,,
,,,,,995364,001,38,Male,British,BA HONS,2024-11-07_15h07.58.197,CatSimMDS,2023.2.3,MacIntel,10.86956522,5cf5497696cde00015bc3ce7,672bf50eac1463c2ad3c747f,672cd6e752a40a14f85dd936,,,,,,,,,,,128.28,1.4,129.676,129.676,132.385,5.21875,2.703,0,18,18,10,1,9_to_16,images/Ex10.jpg,images/Ex13.jpg,Ex10,Ex13,,,,,
,,,,,995364,001,38,Male,British,BA HONS,2024-11-07_15h07.58.197,CatSimMDS,2023.2.3,MacIntel,10.86956522,5cf5497696cde00015bc3ce7,672bf50eac1463c2ad3c747f,672cd6e752a40a14f85dd936,,,,,,,,,,,132.386,1,133.384,133.384,135.429,2.24875,2.035,0,19,19,39,1,9_to_16,images/Ex14.jpg,images/Ex13.jpg,Ex14,Ex13,,,,,
,,,,,995364,001,38,Male,British,BA HONS,2024-11-07_15h07.58.197,CatSimMDS,2023.2.3,MacIntel,10.86956522,5cf5497696cde00015bc3ce7,672bf50eac1463c2ad3c747f,672cd6e752a40a14f85dd936,,,,,,,,,,,135.43,1.4,136.826,136.826,139.187,1.9675,2.352,0,20,20,48,1,9_to_16,images/Ex15.jpg,images/Ex16.jpg,Ex15,Ex16,,,,,
,,,,,995364,001,38,Male,British,BA HONS,2024-11-07_15h07.58.197,CatSimMDS,2023.2.3,MacIntel,10.86956522,5cf5497696cde00015bc3ce7,672bf50eac1463c2ad3c747f,672cd6e752a40a14f85dd936,,,,,,,,,,,139.188,1.5,140.683,140.683,142.428,1.765,1.739,0,21,21,7,1,9_to_16,images/Ex10.jpg,images/Ex9.jpg,Ex10,Ex9,,,,,
,,,,,995364,001,38,Male,British,BA HONS,2024-11-07_15h07.58.197,CatSimMDS,2023.2.3,MacIntel,10.86956522,5cf5497696cde00015bc3ce7,672bf50eac1463c2ad3c747f,672cd6e752a40a14f85dd936,,,,,,,,,,,142.429,0.5,142.928,142.928,145.055,4.67875,2.118,0,22,22,4,1,9_to_16,images/Ex9.jpg,images/Ex14.jpg,Ex9,Ex14,,,,,
,,,,,995364,001,38,Male,British,BA HONS,2024-11-07_15h07.58.197,CatSimMDS,2023.2.3,MacIntel,10.86956522,5cf5497696cde00015bc3ce7,672bf50eac1463c2ad3c747f,672cd6e752a40a14f85dd936,,,,,,,,,,,145.056,1,146.054,146.054,147.883,1.81,1.82,0,23,23,22,1,9_to_16,images/Ex12.jpg,images/Ex10.jpg,Ex12,Ex10,,,,,
,,,,,995364,001,38,Male,British,BA HONS,2024-11-07_15h07.58.197,CatSimMDS,2023.2.3,MacIntel,10.86956522,5cf5497696cde00015bc3ce7,672bf50eac1463c2ad3c747f,672cd6e752a40a14f85dd936,,,,,,,,,,,147.883,1.3,149.18,149.18,151.292,5.59,2.103,0,24,24,35,1,9_to_16,images/Ex14.jpg,images/Ex9.jpg,Ex14,Ex9,,,,,
,,,,,995364,001,38,Male,British,BA HONS,2024-11-07_15h07.58.197,CatSimMDS,2023.2.3,MacIntel,10.86956522,5cf5497696cde00015bc3ce7,672bf50eac1463c2ad3c747f,672cd6e752a40a14f85dd936,,,,,,,,,,,151.293,1.3,152.588,152.588,154.584,7.40125,1.987,0,25,25,37,1,9_to_16,images/Ex14.jpg,images/Ex11.jpg,Ex14,Ex11,,,,,
,,,,,995364,001,38,Male,British,BA HONS,2024-11-07_15h07.58.197,CatSimMDS,2023.2.3,MacIntel,10.86956522,5cf5497696cde00015bc3ce7,672bf50eac1463c2ad3c747f,672cd6e752a40a14f85dd936,,,,,,,,,,,154.585,0.9,155.481,155.481,157.875,1.63,2.389,0,26,26,53,1,9_to_16,images/Ex16.jpg,images/Ex13.jpg,Ex16,Ex13,,,,,
,,,,,995364,001,38,Male,British,BA HONS,2024-11-07_15h07.58.197,CatSimMDS,2023.2.3,MacIntel,10.86956522,5cf5497696cde00015bc3ce7,672bf50eac1463c2ad3c747f,672cd6e752a40a14f85dd936,,,,,,,,,,,157.876,1.4,159.273,159.273,162.299,5.06125,3.016,0,27,27,12,1,9_to_16,images/Ex10.jpg,images/Ex15.jpg,Ex10,Ex15,,,,,
,,,,,995364,001,38,Male,British,BA HONS,2024-11-07_15h07.58.197,CatSimMDS,2023.2.3,MacIntel,10.86956522,5cf5497696cde00015bc3ce7,672bf50eac1463c2ad3c747f,672cd6e752a40a14f85dd936,,,,,,,,,,,162.299,1,163.297,163.297,166.405,4.3525,3.101,0,28,28,3,1,9_to_16,images/Ex9.jpg,images/Ex13.jpg,Ex9,Ex13,,,,,
,,,,,995364,001,38,Male,British,BA HONS,2024-11-07_15h07.58.197,CatSimMDS,2023.2.3,MacIntel,10.86956522,5cf5497696cde00015bc3ce7,672bf50eac1463c2ad3c747f,672cd6e752a40a14f85dd936,,,,,,,,,,,166.405,1.3,167.702,167.702,169.348,1.68625,1.644,0,29,29,9,1,9_to_16,images/Ex10.jpg,images/Ex12.jpg,Ex10,Ex12,,,,,
,,,,,995364,001,38,Male,British,BA HONS,2024-11-07_15h07.58.197,CatSimMDS,2023.2.3,MacIntel,10.86956522,5cf5497696cde00015bc3ce7,672bf50eac1463c2ad3c747f,672cd6e752a40a14f85dd936,,,,,,,,,,,169.349,0.6,169.948,169.948,171.677,1.82125,1.72,0,30,30,15,1,9_to_16,images/Ex11.jpg,images/Ex10.jpg,Ex11,Ex10,,,,,
,,,,,995364,001,38,Male,British,BA HONS,2024-11-07_15h07.58.197,CatSimMDS,2023.2.3,MacIntel,10.86956522,5cf5497696cde00015bc3ce7,672bf50eac1463c2ad3c747f,672cd6e752a40a14f85dd936,,,,,,,,,,,171.678,1.1,172.774,172.775,174.403,1.6525,1.62,0,31,31,0,1,9_to_16,images/Ex9.jpg,images/Ex10.jpg,Ex9,Ex10,,,,,
,,,,,995364,001,38,Male,British,BA HONS,2024-11-07_15h07.58.197,CatSimMDS,2023.2.3,MacIntel,10.86956522,5cf5497696cde00015bc3ce7,672bf50eac1463c2ad3c747f,672cd6e752a40a14f85dd936,,,,,,,,,,,174.404,1.4,175.8,175.8,178.527,4.8025,2.719,0,32,32,2,1,9_to_16,images/Ex9.jpg,images/Ex12.jpg,Ex9,Ex12,,,,,
,,,,,995364,001,38,Male,British,BA HONS,2024-11-07_15h07.58.197,CatSimMDS,2023.2.3,MacIntel,10.86956522,5cf5497696cde00015bc3ce7,672bf50eac1463c2ad3c747f,672cd6e752a40a14f85dd936,,,,,,,,,,,178.527,0.7,179.225,179.225,181.27,2.4175,2.039,0,33,33,42,1,9_to_16,images/Ex15.jpg,images/Ex9.jpg,Ex15,Ex9,,,,,
,,,,,995364,001,38,Male,British,BA HONS,2024-11-07_15h07.58.197,CatSimMDS,2023.2.3,MacIntel,10.86956522,5cf5497696cde00015bc3ce7,672bf50eac1463c2ad3c747f,672cd6e752a40a14f85dd936,,,,,,,,,,,181.271,0.8,182.069,182.069,184.015,2.485,1.939,0,34,34,17,1,9_to_16,images/Ex11.jpg,images/Ex13.jpg,Ex11,Ex13,,,,,
,,,,,995364,001,38,Male,British,BA HONS,2024-11-07_15h07.58.197,CatSimMDS,2023.2.3,MacIntel,10.86956522,5cf5497696cde00015bc3ce7,672bf50eac1463c2ad3c747f,672cd6e752a40a14f85dd936,,,,,,,,,,,184.015,1,185.012,185.012,186.84,2.42875,1.822,0,35,35,5,1,9_to_16,images/Ex9.jpg,images/Ex15.jpg,Ex9,Ex15,,,,,
,,,,,995364,001,38,Male,British,BA HONS,2024-11-07_15h07.58.197,CatSimMDS,2023.2.3,MacIntel,10.86956522,5cf5497696cde00015bc3ce7,672bf50eac1463c2ad3c747f,672cd6e752a40a14f85dd936,,,,,,,,,,,186.841,0.8,187.639,187.639,189.384,2.31625,1.737,0,36,36,11,1,9_to_16,images/Ex10.jpg,images/Ex14.jpg,Ex10,Ex14,,,,,
,,,,,995364,001,38,Male,British,BA HONS,2024-11-07_15h07.58.197,CatSimMDS,2023.2.3,MacIntel,10.86956522,5cf5497696cde00015bc3ce7,672bf50eac1463c2ad3c747f,672cd6e752a40a14f85dd936,,,,,,,,,,,189.385,0.8,190.183,190.183,193.409,4.92625,3.215,0,37,37,43,1,9_to_16,images/Ex15.jpg,images/Ex10.jpg,Ex15,Ex10,,,,,
,,,,,995364,001,38,Male,British,BA HONS,2024-11-07_15h07.58.197,CatSimMDS,2023.2.3,MacIntel,10.86956522,5cf5497696cde00015bc3ce7,672bf50eac1463c2ad3c747f,672cd6e752a40a14f85dd936,,,,,,,,,,,193.41,0.6,194.008,194.008,196.685,5.905,2.672,0,38,38,44,1,9_to_16,images/Ex15.jpg,images/Ex11.jpg,Ex15,Ex11,,,,,
,,,,,995364,001,38,Male,British,BA HONS,2024-11-07_15h07.58.197,CatSimMDS,2023.2.3,MacIntel,10.86956522,5cf5497696cde00015bc3ce7,672bf50eac1463c2ad3c747f,672cd6e752a40a14f85dd936,,,,,,,,,,,196.685,1.3,197.981,197.981,200.01,2.58625,2.022,0,39,39,33,1,9_to_16,images/Ex13.jpg,images/Ex15.jpg,Ex13,Ex15,,,,,
,,,,,995364,001,38,Male,British,BA HONS,2024-11-07_15h07.58.197,CatSimMDS,2023.2.3,MacIntel,10.86956522,5cf5497696cde00015bc3ce7,672bf50eac1463c2ad3c747f,672cd6e752a40a14f85dd936,,,,,,,,,,,200.011,0.6,200.609,200.609,203.501,2.45125,2.887,0,40,40,26,1,9_to_16,images/Ex12.jpg,images/Ex15.jpg,Ex12,Ex15,,,,,
,,,,,995364,001,38,Male,British,BA HONS,2024-11-07_15h07.58.197,CatSimMDS,2023.2.3,MacIntel,10.86956522,5cf5497696cde00015bc3ce7,672bf50eac1463c2ad3c747f,672cd6e752a40a14f85dd936,,,,,,,,,,,203.501,0.7,204.2,204.2,206.129,6.445,1.92,0,41,41,27,1,9_to_16,images/Ex12.jpg,images/Ex16.jpg,Ex12,Ex16,,,,,
,,,,,995364,001,38,Male,British,BA HONS,2024-11-07_15h07.58.197,CatSimMDS,2023.2.3,MacIntel,10.86956522,5cf5497696cde00015bc3ce7,672bf50eac1463c2ad3c747f,672cd6e752a40a14f85dd936,,,,,,,,,,,206.13,1.3,207.426,207.426,209.371,1.6975,1.937,0,42,42,20,1,9_to_16,images/Ex11.jpg,images/Ex16.jpg,Ex11,Ex16,,,,,
,,,,,995364,001,38,Male,British,BA HONS,2024-11-07_15h07.58.197,CatSimMDS,2023.2.3,MacIntel,10.86956522,5cf5497696cde00015bc3ce7,672bf50eac1463c2ad3c747f,672cd6e752a40a14f85dd936,,,,,,,,,,,209.371,1.2,210.569,210.569,291.146,5.1625,80.567,0,43,43,6,1,9_to_16,images/Ex9.jpg,images/Ex16.jpg,Ex9,Ex16,,,,,
,,,,,995364,001,38,Male,British,BA HONS,2024-11-07_15h07.58.197,CatSimMDS,2023.2.3,MacIntel,10.86956522,5cf5497696cde00015bc3ce7,672bf50eac1463c2ad3c747f,672cd6e752a40a14f85dd936,,,,,,,,,,,291.146,1,292.143,292.143,293.973,6.535,1.82,0,44,44,28,1,9_to_16,images/Ex13.jpg,images/Ex9.jpg,Ex13,Ex9,,,,,
,,,,,995364,001,38,Male,British,BA HONS,2024-11-07_15h07.58.197,CatSimMDS,2023.2.3,MacIntel,10.86956522,5cf5497696cde00015bc3ce7,672bf50eac1463c2ad3c747f,672cd6e752a40a14f85dd936,,,,,,,,,,,293.973,0.9,294.87,294.87,297.563,5.21875,2.686,0,45,45,29,1,9_to_16,images/Ex13.jpg,images/Ex10.jpg,Ex13,Ex10,,,,,
,,,,,995364,001,38,Male,British,BA HONS,2024-11-07_15h07.58.197,CatSimMDS,2023.2.3,MacIntel,10.86956522,5cf5497696cde00015bc3ce7,672bf50eac1463c2ad3c747f,672cd6e752a40a14f85dd936,,,,,,,,,,,297.564,1.2,298.761,298.761,301.32,3.89125,2.558,0,46,46,13,1,9_to_16,images/Ex10.jpg,images/Ex16.jpg,Ex10,Ex16,,,,,
,,,,,995364,001,38,Male,British,BA HONS,2024-11-07_15h07.58.197,CatSimMDS,2023.2.3,MacIntel,10.86956522,5cf5497696cde00015bc3ce7,672bf50eac1463c2ad3c747f,672cd6e752a40a14f85dd936,,,,,,,,,,,301.321,1.1,302.419,302.419,304.463,3.55375,2.039,0,47,47,30,1,9_to_16,images/Ex13.jpg,images/Ex11.jpg,Ex13,Ex11,,,,,
,,,,,995364,001,38,Male,British,BA HONS,2024-11-07_15h07.58.197,CatSimMDS,2023.2.3,MacIntel,10.86956522,5cf5497696cde00015bc3ce7,672bf50eac1463c2ad3c747f,672cd6e752a40a14f85dd936,,,,,,,,,,,304.464,1.4,305.86,305.86,307.939,5.4325,2.071,0,48,48,23,1,9_to_16,images/Ex12.jpg,images/Ex11.jpg,Ex12,Ex11,,,,,
,,,,,995364,001,38,Male,British,BA HONS,2024-11-07_15h07.58.197,CatSimMDS,2023.2.3,MacIntel,10.86956522,5cf5497696cde00015bc3ce7,672bf50eac1463c2ad3c747f,672cd6e752a40a14f85dd936,,,,,,,,,,,307.94,0.6,308.537,308.537,310.384,5.15125,1.84,0,49,49,16,1,9_to_16,images/Ex11.jpg,images/Ex12.jpg,Ex11,Ex12,,,,,
,,,,,995364,001,38,Male,British,BA HONS,2024-11-07_15h07.58.197,CatSimMDS,2023.2.3,MacIntel,10.86956522,5cf5497696cde00015bc3ce7,672bf50eac1463c2ad3c747f,672cd6e752a40a14f85dd936,,,,,,,,,,,310.384,0.7,311.082,311.082,313.559,6.4225,2.469,0,50,50,41,1,9_to_16,images/Ex14.jpg,images/Ex16.jpg,Ex14,Ex16,,,,,
,,,,,995364,001,38,Male,British,BA HONS,2024-11-07_15h07.58.197,CatSimMDS,2023.2.3,MacIntel,10.86956522,5cf5497696cde00015bc3ce7,672bf50eac1463c2ad3c747f,672cd6e752a40a14f85dd936,,,,,,,,,,,313.56,1.1,314.656,314.657,338.833,6.43375,24.168,0,51,51,52,1,9_to_16,images/Ex16.jpg,images/Ex12.jpg,Ex16,Ex12,,,,,
,,,,,995364,001,38,Male,British,BA HONS,2024-11-07_15h07.58.197,CatSimMDS,2023.2.3,MacIntel,10.86956522,5cf5497696cde00015bc3ce7,672bf50eac1463c2ad3c747f,672cd6e752a40a14f85dd936,,,,,,,,,,,338.834,1.4,340.23,340.23,342.408,6.23125,2.17,0,52,52,38,1,9_to_16,images/Ex14.jpg,images/Ex12.jpg,Ex14,Ex12,,,,,
,,,,,995364,001,38,Male,British,BA HONS,2024-11-07_15h07.58.197,CatSimMDS,2023.2.3,MacIntel,10.86956522,5cf5497696cde00015bc3ce7,672bf50eac1463c2ad3c747f,672cd6e752a40a14f85dd936,,,,,,,,,,,342.408,1.4,343.804,343.805,346.049,4.72375,2.237,0,53,53,32,1,9_to_16,images/Ex13.jpg,images/Ex14.jpg,Ex13,Ex14,,,,,
,,,,,995364,001,38,Male,British,BA HONS,2024-11-07_15h07.58.197,CatSimMDS,2023.2.3,MacIntel,10.86956522,5cf5497696cde00015bc3ce7,672bf50eac1463c2ad3c747f,672cd6e752a40a14f85dd936,,,,,,,,,,,346.05,0.7,346.748,346.748,601.131,5.275,254.376,0,54,54,18,1,9_to_16,images/Ex11.jpg,images/Ex14.jpg,Ex11,Ex14,,,,,
,,,,,995364,001,38,Male,British,BA HONS,2024-11-07_15h07.58.197,CatSimMDS,2023.2.3,MacIntel,10.86956522,5cf5497696cde00015bc3ce7,672bf50eac1463c2ad3c747f,672cd6e752a40a14f85dd936,,,,,,601.135,602.644,space,1.499,,602.652,0.9,603.543,603.543,605.704,5.9275,2.15,0,0,0,13,1,1_to_8,images/Ex2.jpg,images/Ex8.jpg,Ex2,Ex8,,,,,
,,,,,995364,001,38,Male,British,BA HONS,2024-11-07_15h07.58.197,CatSimMDS,2023.2.3,MacIntel,10.86956522,5cf5497696cde00015bc3ce7,672bf50eac1463c2ad3c747f,672cd6e752a40a14f85dd936,,,,,,,,,,,605.705,0.7,606.402,606.402,608.231,9.08875,1.822,0,1,1,37,1,1_to_8,images/Ex6.jpg,images/Ex3.jpg,Ex6,Ex3,,,,,
,,,,,995364,001,38,Male,British,BA HONS,2024-11-07_15h07.58.197,CatSimMDS,2023.2.3,MacIntel,10.86956522,5cf5497696cde00015bc3ce7,672bf50eac1463c2ad3c747f,672cd6e752a40a14f85dd936,,,,,,,,,,,608.232,1.3,609.528,609.528,611.29,5.01625,1.755,0,2,2,19,1,1_to_8,images/Ex3.jpg,images/Ex7.jpg,Ex3,Ex7,,,,,
,,,,,995364,001,38,Male,British,BA HONS,2024-11-07_15h07.58.197,CatSimMDS,2023.2.3,MacIntel,10.86956522,5cf5497696cde00015bc3ce7,672bf50eac1463c2ad3c747f,672cd6e752a40a14f85dd936,,,,,,,,,,,611.291,1.4,612.687,612.688,614.3,4.6675,1.609,0,3,3,17,1,1_to_8,images/Ex3.jpg,images/Ex5.jpg,Ex3,Ex5,,,,,
,,,,,995364,001,38,Male,British,BA HONS,2024-11-07_15h07.58.197,CatSimMDS,2023.2.3,MacIntel,10.86956522,5cf5497696cde00015bc3ce7,672bf50eac1463c2ad3c747f,672cd6e752a40a14f85dd936,,,,,,,,,,,614.301,1,615.298,615.298,617.043,6.74875,1.739,0,4,4,9,1,1_to_8,images/Ex2.jpg,images/Ex4.jpg,Ex2,Ex4,,,,,
,,,,,995364,001,38,Male,British,BA HONS,2024-11-07_15h07.58.197,CatSimMDS,2023.2.3,MacIntel,10.86956522,5cf5497696cde00015bc3ce7,672bf50eac1463c2ad3c747f,672cd6e752a40a14f85dd936,,,,,,,,,,,617.044,1.5,618.54,618.54,619.738,8.59375,1.192,0,5,5,39,1,1_to_8,images/Ex6.jpg,images/Ex5.jpg,Ex6,Ex5,,,,,
,,,,,995364,001,38,Male,British,BA HONS,2024-11-07_15h07.58.197,CatSimMDS,2023.2.3,MacIntel,10.86956522,5cf5497696cde00015bc3ce7,672bf50eac1463c2ad3c747f,672cd6e752a40a14f85dd936,,,,,,,,,,,619.738,1,620.735,620.735,621.998,4.38625,1.255,0,6,6,7,1,1_to_8,images/Ex2.jpg,images/Ex1.jpg,Ex2,Ex1,,,,,
,,,,,995364,001,38,Male,British,BA HONS,2024-11-07_15h07.58.197,CatSimMDS,2023.2.3,MacIntel,10.86956522,5cf5497696cde00015bc3ce7,672bf50eac1463c2ad3c747f,672cd6e752a40a14f85dd936,,,,,,,,,,,621.998,1.5,623.495,623.495,624.858,3.655,1.355,0,7,7,44,1,1_to_8,images/Ex7.jpg,images/Ex3.jpg,Ex7,Ex3,,,,,
,,,,,995364,001,38,Male,British,BA HONS,2024-11-07_15h07.58.197,CatSimMDS,2023.2.3,MacIntel,10.86956522,5cf5497696cde00015bc3ce7,672bf50eac1463c2ad3c747f,672cd6e752a40a14f85dd936,,,,,,,,,,,624.859,0.8,625.657,625.657,627.203,2.69875,1.538,0,8,8,15,1,1_to_8,images/Ex3.jpg,images/Ex2.jpg,Ex3,Ex2,,,,,
,,,,,995364,001,38,Male,British,BA HONS,2024-11-07_15h07.58.197,CatSimMDS,2023.2.3,MacIntel,10.86956522,5cf5497696cde00015bc3ce7,672bf50eac1463c2ad3c747f,672cd6e752a40a14f85dd936,,,,,,,,,,,627.204,0.9,628.101,628.101,630.163,7.08625,2.057,0,9,9,36,1,1_to_8,images/Ex6.jpg,images/Ex2.jpg,Ex6,Ex2,,,,,
,,,,,995364,001,38,Male,British,BA HONS,2024-11-07_15h07.58.197,CatSimMDS,2023.2.3,MacIntel,10.86956522,5cf5497696cde00015bc3ce7,672bf50eac1463c2ad3c747f,672cd6e752a40a14f85dd936,,,,,,,,,,,630.163,0.7,630.861,630.861,632.691,2.395,1.823,0,10,10,42,1,1_to_8,images/Ex7.jpg,images/Ex1.jpg,Ex7,Ex1,,,,,
,,,,,995364,001,38,Male,British,BA HONS,2024-11-07_15h07.58.197,CatSimMDS,2023.2.3,MacIntel,10.86956522,5cf5497696cde00015bc3ce7,672bf50eac1463c2ad3c747f,672cd6e752a40a14f85dd936,,,,,,,,,,,632.692,0.7,633.389,633.389,635.35,3.86875,1.957,0,11,11,2,1,1_to_8,images/Ex1.jpg,images/Ex4.jpg,Ex1,Ex4,,,,,
,,,,,995364,001,38,Male,British,BA HONS,2024-11-07_15h07.58.197,CatSimMDS,2023.2.3,MacIntel,10.86956522,5cf5497696cde00015bc3ce7,672bf50eac1463c2ad3c747f,672cd6e752a40a14f85dd936,,,,,,,,,,,635.35,1.3,636.648,636.648,639.258,5.5675,2.6,0,12,12,12,1,1_to_8,images/Ex2.jpg,images/Ex7.jpg,Ex2,Ex7,,,,,
,,,,,995364,001,38,Male,British,BA HONS,2024-11-07_15h07.58.197,CatSimMDS,2023.2.3,MacIntel,10.86956522,5cf5497696cde00015bc3ce7,672bf50eac1463c2ad3c747f,672cd6e752a40a14f85dd936,,,,,,,,,,,639.259,1.4,640.655,640.655,642.782,3.3625,2.121,0,13,13,50,1,1_to_8,images/Ex8.jpg,images/Ex2.jpg,Ex8,Ex2,,,,,
,,,,,995364,001,38,Male,British,BA HONS,2024-11-07_15h07.58.197,CatSimMDS,2023.2.3,MacIntel,10.86956522,5cf5497696cde00015bc3ce7,672bf50eac1463c2ad3c747f,672cd6e752a40a14f85dd936,,,,,,,,,,,642.783,1.5,644.28,644.28,645.876,7.58125,1.588,0,14,14,25,1,1_to_8,images/Ex4.jpg,images/Ex6.jpg,Ex4,Ex6,,,,,
,,,,,995364,001,38,Male,British,BA HONS,2024-11-07_15h07.58.197,CatSimMDS,2023.2.3,MacIntel,10.86956522,5cf5497696cde00015bc3ce7,672bf50eac1463c2ad3c747f,672cd6e752a40a14f85dd936,,,,,,,,,,,645.876,1.3,647.173,647.173,648.918,3.89125,1.739,0,15,15,31,1,1_to_8,images/Ex5.jpg,images/Ex4.jpg,Ex5,Ex4,,,,,
,,,,,995364,001,38,Male,British,BA HONS,2024-11-07_15h07.58.197,CatSimMDS,2023.2.3,MacIntel,10.86956522,5cf5497696cde00015bc3ce7,672bf50eac1463c2ad3c747f,672cd6e752a40a14f85dd936,,,,,,,,,,,648.918,1.3,650.215,650.216,652.393,3.12625,2.174,0,16,16,8,1,1_to_8,images/Ex2.jpg,images/Ex3.jpg,Ex2,Ex3,,,,,
,,,,,995364,001,38,Male,British,BA HONS,2024-11-07_15h07.58.197,CatSimMDS,2023.2.3,MacIntel,10.86956522,5cf5497696cde00015bc3ce7,672bf50eac1463c2ad3c747f,672cd6e752a40a14f85dd936,,,,,,,,,,,652.394,1.3,653.691,653.691,658.131,7.44625,4.434,0,17,17,24,1,1_to_8,images/Ex4.jpg,images/Ex5.jpg,Ex4,Ex5,,,,,
,,,,,995364,001,38,Male,British,BA HONS,2024-11-07_15h07.58.197,CatSimMDS,2023.2.3,MacIntel,10.86956522,5cf5497696cde00015bc3ce7,672bf50eac1463c2ad3c747f,672cd6e752a40a14f85dd936,,,,,,,,,,,658.131,1.4,659.527,659.527,661.057,3.295,1.521,0,18,18,46,1,1_to_8,images/Ex7.jpg,images/Ex5.jpg,Ex7,Ex5,,,,,
,,,,,995364,001,38,Male,British,BA HONS,2024-11-07_15h07.58.197,CatSimMDS,2023.2.3,MacIntel,10.86956522,5cf5497696cde00015bc3ce7,672bf50eac1463c2ad3c747f,672cd6e752a40a14f85dd936,,,,,,,,,,,661.057,1.2,662.253,662.253,664.149,4.65625,1.888,0,19,19,10,1,1_to_8,images/Ex2.jpg,images/Ex5.jpg,Ex2,Ex5,,,,,
,,,,,995364,001,38,Male,British,BA HONS,2024-11-07_15h07.58.197,CatSimMDS,2023.2.3,MacIntel,10.86956522,5cf5497696cde00015bc3ce7,672bf50eac1463c2ad3c747f,672cd6e752a40a14f85dd936,,,,,,,,,,,664.15,1.5,665.646,665.646,667.557,5.455,1.905,0,20,20,34,1,1_to_8,images/Ex5.jpg,images/Ex8.jpg,Ex5,Ex8,,,,,
,,,,,995364,001,38,Male,British,BA HONS,2024-11-07_15h07.58.197,CatSimMDS,2023.2.3,MacIntel,10.86956522,5cf5497696cde00015bc3ce7,672bf50eac1463c2ad3c747f,672cd6e752a40a14f85dd936,,,,,,,,,,,667.557,1.4,668.955,668.955,670.717,3.565,1.754,0,21,21,4,1,1_to_8,images/Ex1.jpg,images/Ex6.jpg,Ex1,Ex6,,,,,
,,,,,995364,001,38,Male,British,BA HONS,2024-11-07_15h07.58.197,CatSimMDS,2023.2.3,MacIntel,10.86956522,5cf5497696cde00015bc3ce7,672bf50eac1463c2ad3c747f,672cd6e752a40a14f85dd936,,,,,,,,,,,670.718,0.7,671.415,671.416,673.079,3.7675,1.655,0,22,22,23,1,1_to_8,images/Ex4.jpg,images/Ex3.jpg,Ex4,Ex3,,,,,
,,,,,995364,001,38,Male,British,BA HONS,2024-11-07_15h07.58.197,CatSimMDS,2023.2.3,MacIntel,10.86956522,5cf5497696cde00015bc3ce7,672bf50eac1463c2ad3c747f,672cd6e752a40a14f85dd936,,,,,,,,,,,673.08,0.6,673.677,673.677,675.389,3.08125,1.705,0,23,23,27,1,1_to_8,images/Ex4.jpg,images/Ex8.jpg,Ex4,Ex8,,,,,
,,,,,995364,001,38,Male,British,BA HONS,2024-11-07_15h07.58.197,CatSimMDS,2023.2.3,MacIntel,10.86956522,5cf5497696cde00015bc3ce7,672bf50eac1463c2ad3c747f,672cd6e752a40a14f85dd936,,,,,,,,,,,675.39,0.5,675.888,675.888,677.567,7.615,1.67,0,24,24,38,1,1_to_8,images/Ex6.jpg,images/Ex4.jpg,Ex6,Ex4,,,,,
,,,,,995364,001,38,Male,British,BA HONS,2024-11-07_15h07.58.197,CatSimMDS,2023.2.3,MacIntel,10.86956522,5cf5497696cde00015bc3ce7,672bf50eac1463c2ad3c747f,672cd6e752a40a14f85dd936,,,,,,,,,,,677.567,1.4,678.965,678.965,681.957,3.7675,2.985,0,25,25,43,1,1_to_8,images/Ex7.jpg,images/Ex2.jpg,Ex7,Ex2,,,,,
,,,,,995364,001,38,Male,British,BA HONS,2024-11-07_15h07.58.197,CatSimMDS,2023.2.3,MacIntel,10.86956522,5cf5497696cde00015bc3ce7,672bf50eac1463c2ad3c747f,672cd6e752a40a14f85dd936,,,,,,,,,,,681.958,0.9,682.855,682.855,687.112,4.92625,4.249,0,26,26,14,1,1_to_8,images/Ex3.jpg,images/Ex1.jpg,Ex3,Ex1,,,,,
,,,,,995364,001,38,Male,British,BA HONS,2024-11-07_15h07.58.197,CatSimMDS,2023.2.3,MacIntel,10.86956522,5cf5497696cde00015bc3ce7,672bf50eac1463c2ad3c747f,672cd6e752a40a14f85dd936,,,,,,,,,,,687.112,0.5,687.611,687.611,689.256,3.14875,1.642,0,27,27,29,1,1_to_8,images/Ex5.jpg,images/Ex2.jpg,Ex5,Ex2,,,,,
,,,,,995364,001,38,Male,British,BA HONS,2024-11-07_15h07.58.197,CatSimMDS,2023.2.3,MacIntel,10.86956522,5cf5497696cde00015bc3ce7,672bf50eac1463c2ad3c747f,672cd6e752a40a14f85dd936,,,,,,,,,,,689.256,1.2,690.454,690.454,692.433,3.43,1.971,0,28,28,45,1,1_to_8,images/Ex7.jpg,images/Ex4.jpg,Ex7,Ex4,,,,,
,,,,,995364,001,38,Male,British,BA HONS,2024-11-07_15h07.58.197,CatSimMDS,2023.2.3,MacIntel,10.86956522,5cf5497696cde00015bc3ce7,672bf50eac1463c2ad3c747f,672cd6e752a40a14f85dd936,,,,,,,,,,,692.434,1.1,693.53,693.53,695.077,2.755,1.537,0,29,29,3,1,1_to_8,images/Ex1.jpg,images/Ex5.jpg,Ex1,Ex5,,,,,
,,,,,995364,001,38,Male,British,BA HONS,2024-11-07_15h07.58.197,CatSimMDS,2023.2.3,MacIntel,10.86956522,5cf5497696cde00015bc3ce7,672bf50eac1463c2ad3c747f,672cd6e752a40a14f85dd936,,,,,,,,,,,695.078,0.8,695.874,695.874,697.804,6.77125,1.923,0,30,30,11,1,1_to_8,images/Ex2.jpg,images/Ex6.jpg,Ex2,Ex6,,,,,
,,,,,995364,001,38,Male,British,BA HONS,2024-11-07_15h07.58.197,CatSimMDS,2023.2.3,MacIntel,10.86956522,5cf5497696cde00015bc3ce7,672bf50eac1463c2ad3c747f,672cd6e752a40a14f85dd936,,,,,,,,,,,697.804,0.8,698.602,698.602,700.281,2.395,1.672,0,31,31,41,1,1_to_8,images/Ex6.jpg,images/Ex8.jpg,Ex6,Ex8,,,,,
,,,,,995364,001,38,Male,British,BA HONS,2024-11-07_15h07.58.197,CatSimMDS,2023.2.3,MacIntel,10.86956522,5cf5497696cde00015bc3ce7,672bf50eac1463c2ad3c747f,672cd6e752a40a14f85dd936,,,,,,,,,,,700.282,0.9,701.179,701.179,702.858,3.205,1.671,0,32,32,47,1,1_to_8,images/Ex7.jpg,images/Ex6.jpg,Ex7,Ex6,,,,,
,,,,,995364,001,38,Male,British,BA HONS,2024-11-07_15h07.58.197,CatSimMDS,2023.2.3,MacIntel,10.86956522,5cf5497696cde00015bc3ce7,672bf50eac1463c2ad3c747f,672cd6e752a40a14f85dd936,,,,,,,,,,,702.859,0.7,703.556,703.557,706.781,4.65625,3.223,0,33,33,53,1,1_to_8,images/Ex8.jpg,images/Ex5.jpg,Ex8,Ex5,,,,,
,,,,,995364,001,38,Male,British,BA HONS,2024-11-07_15h07.58.197,CatSimMDS,2023.2.3,MacIntel,10.86956522,5cf5497696cde00015bc3ce7,672bf50eac1463c2ad3c747f,672cd6e752a40a14f85dd936,,,,,,,,,,,706.782,1.3,708.079,708.079,710.989,2.5525,2.901,0,34,34,51,1,1_to_8,images/Ex8.jpg,images/Ex3.jpg,Ex8,Ex3,,,,,
,,,,,995364,001,38,Male,British,BA HONS,2024-11-07_15h07.58.197,CatSimMDS,2023.2.3,MacIntel,10.86956522,5cf5497696cde00015bc3ce7,672bf50eac1463c2ad3c747f,672cd6e752a40a14f85dd936,,,,,,,,,,,710.989,0.7,711.687,711.687,713.533,6.49,1.84,0,35,35,52,1,1_to_8,images/Ex8.jpg,images/Ex4.jpg,Ex8,Ex4,,,,,
,,,,,995364,001,38,Male,British,BA HONS,2024-11-07_15h07.58.197,CatSimMDS,2023.2.3,MacIntel,10.86956522,5cf5497696cde00015bc3ce7,672bf50eac1463c2ad3c747f,672cd6e752a40a14f85dd936,,,,,,,,,,,713.534,0.8,714.331,714.331,717.007,2.26,2.674,0,36,36,16,1,1_to_8,images/Ex3.jpg,images/Ex4.jpg,Ex3,Ex4,,,,,
,,,,,995364,001,38,Male,British,BA HONS,2024-11-07_15h07.58.197,CatSimMDS,2023.2.3,MacIntel,10.86956522,5cf5497696cde00015bc3ce7,672bf50eac1463c2ad3c747f,672cd6e752a40a14f85dd936,,,,,,,,,,,717.008,0.7,717.706,717.706,720.965,4.38625,3.252,0,37,37,26,1,1_to_8,images/Ex4.jpg,images/Ex7.jpg,Ex4,Ex7,,,,,
,,,,,995364,001,38,Male,British,BA HONS,2024-11-07_15h07.58.197,CatSimMDS,2023.2.3,MacIntel,10.86956522,5cf5497696cde00015bc3ce7,672bf50eac1463c2ad3c747f,672cd6e752a40a14f85dd936,,,,,,,,,,,720.966,1.5,722.462,722.462,724.474,2.42875,2.006,0,38,38,5,1,1_to_8,images/Ex1.jpg,images/Ex7.jpg,Ex1,Ex7,,,,,
,,,,,995364,001,38,Male,British,BA HONS,2024-11-07_15h07.58.197,CatSimMDS,2023.2.3,MacIntel,10.86956522,5cf5497696cde00015bc3ce7,672bf50eac1463c2ad3c747f,672cd6e752a40a14f85dd936,,,,,,,,,,,724.474,0.8,725.272,725.272,727.633,3.37375,2.353,0,39,39,49,1,1_to_8,images/Ex8.jpg,images/Ex1.jpg,Ex8,Ex1,,,,,
,,,,,995364,001,38,Male,British,BA HONS,2024-11-07_15h07.58.197,CatSimMDS,2023.2.3,MacIntel,10.86956522,5cf5497696cde00015bc3ce7,672bf50eac1463c2ad3c747f,672cd6e752a40a14f85dd936,,,,,,,,,,,727.634,1.4,729.03,729.03,730.925,2.56375,1.888,0,40,40,18,1,1_to_8,images/Ex3.jpg,images/Ex6.jpg,Ex3,Ex6,,,,,
,,,,,995364,001,38,Male,British,BA HONS,2024-11-07_15h07.58.197,CatSimMDS,2023.2.3,MacIntel,10.86956522,5cf5497696cde00015bc3ce7,672bf50eac1463c2ad3c747f,672cd6e752a40a14f85dd936,,,,,,,,,,,730.926,0.8,731.723,731.723,734.102,3.4975,2.37,0,41,41,54,1,1_to_8,images/Ex8.jpg,images/Ex6.jpg,Ex8,Ex6,,,,,
,,,,,995364,001,38,Male,British,BA HONS,2024-11-07_15h07.58.197,CatSimMDS,2023.2.3,MacIntel,10.86956522,5cf5497696cde00015bc3ce7,672bf50eac1463c2ad3c747f,672cd6e752a40a14f85dd936,,,,,,,,,,,734.102,1.4,735.498,735.498,738.806,2.6875,3.3,0,42,42,28,1,1_to_8,images/Ex5.jpg,images/Ex1.jpg,Ex5,Ex1,,,,,
,,,,,995364,001,38,Male,British,BA HONS,2024-11-07_15h07.58.197,CatSimMDS,2023.2.3,MacIntel,10.86956522,5cf5497696cde00015bc3ce7,672bf50eac1463c2ad3c747f,672cd6e752a40a14f85dd936,,,,,,,,,,,738.807,1.2,740.004,740.004,742.98,4.31875,2.967,0,43,43,1,1,1_to_8,images/Ex1.jpg,images/Ex3.jpg,Ex1,Ex3,,,,,
,,,,,995364,001,38,Male,British,BA HONS,2024-11-07_15h07.58.197,CatSimMDS,2023.2.3,MacIntel,10.86956522,5cf5497696cde00015bc3ce7,672bf50eac1463c2ad3c747f,672cd6e752a40a14f85dd936,,,,,,,,,,,742.981,1.2,744.177,744.177,746.622,2.58625,2.44,0,44,44,0,1,1_to_8,images/Ex1.jpg,images/Ex2.jpg,Ex1,Ex2,,,,,
,,,,,995364,001,38,Male,British,BA HONS,2024-11-07_15h07.58.197,CatSimMDS,2023.2.3,MacIntel,10.86956522,5cf5497696cde00015bc3ce7,672bf50eac1463c2ad3c747f,672cd6e752a40a14f85dd936,,,,,,,,,,,746.622,1.2,747.819,747.819,750.562,4.83625,2.734,0,45,45,40,1,1_to_8,images/Ex6.jpg,images/Ex7.jpg,Ex6,Ex7,,,,,
,,,,,995364,001,38,Male,British,BA HONS,2024-11-07_15h07.58.197,CatSimMDS,2023.2.3,MacIntel,10.86956522,5cf5497696cde00015bc3ce7,672bf50eac1463c2ad3c747f,672cd6e752a40a14f85dd936,,,,,,,,,,,750.562,1,751.56,751.56,753.521,4.42,1.959,0,46,46,22,1,1_to_8,images/Ex4.jpg,images/Ex2.jpg,Ex4,Ex2,,,,,
,,,,,995364,001,38,Male,British,BA HONS,2024-11-07_15h07.58.197,CatSimMDS,2023.2.3,MacIntel,10.86956522,5cf5497696cde00015bc3ce7,672bf50eac1463c2ad3c747f,672cd6e752a40a14f85dd936,,,,,,,,,,,753.522,1.5,755.019,755.019,756.78,4.18375,1.757,0,47,47,6,1,1_to_8,images/Ex1.jpg,images/Ex8.jpg,Ex1,Ex8,,,,,
,,,,,995364,001,38,Male,British,BA HONS,2024-11-07_15h07.58.197,CatSimMDS,2023.2.3,MacIntel,10.86956522,5cf5497696cde00015bc3ce7,672bf50eac1463c2ad3c747f,672cd6e752a40a14f85dd936,,,,,,,,,,,756.78,1.1,757.878,757.879,760.29,2.9125,2.403,0,48,48,30,1,1_to_8,images/Ex5.jpg,images/Ex3.jpg,Ex5,Ex3,,,,,
,,,,,995364,001,38,Male,British,BA HONS,2024-11-07_15h07.58.197,CatSimMDS,2023.2.3,MacIntel,10.86956522,5cf5497696cde00015bc3ce7,672bf50eac1463c2ad3c747f,672cd6e752a40a14f85dd936,,,,,,,,,,,760.29,0.7,760.988,760.988,763.732,3.88,2.736,0,49,49,20,1,1_to_8,images/Ex3.jpg,images/Ex8.jpg,Ex3,Ex8,,,,,
,,,,,995364,001,38,Male,British,BA HONS,2024-11-07_15h07.58.197,CatSimMDS,2023.2.3,MacIntel,10.86956522,5cf5497696cde00015bc3ce7,672bf50eac1463c2ad3c747f,672cd6e752a40a14f85dd936,,,,,,,,,,,763.732,1.2,764.929,764.929,766.857,1.61875,1.923,0,50,50,21,1,1_to_8,images/Ex4.jpg,images/Ex1.jpg,Ex4,Ex1,,,,,
,,,,,995364,001,38,Male,British,BA HONS,2024-11-07_15h07.58.197,CatSimMDS,2023.2.3,MacIntel,10.86956522,5cf5497696cde00015bc3ce7,672bf50eac1463c2ad3c747f,672cd6e752a40a14f85dd936,,,,,,,,,,,766.858,0.7,767.555,767.555,769.568,3.475,2.006,0,51,51,48,1,1_to_8,images/Ex7.jpg,images/Ex8.jpg,Ex7,Ex8,,,,,
,,,,,995364,001,38,Male,British,BA HONS,2024-11-07_15h07.58.197,CatSimMDS,2023.2.3,MacIntel,10.86956522,5cf5497696cde00015bc3ce7,672bf50eac1463c2ad3c747f,672cd6e752a40a14f85dd936,,,,,,,,,,,769.568,1.3,770.864,770.865,772.644,2.56375,1.772,0,52,52,35,1,1_to_8,images/Ex6.jpg,images/Ex1.jpg,Ex6,Ex1,,,,,
,,,,,995364,001,38,Male,British,BA HONS,2024-11-07_15h07.58.197,CatSimMDS,2023.2.3,MacIntel,10.86956522,5cf5497696cde00015bc3ce7,672bf50eac1463c2ad3c747f,672cd6e752a40a14f85dd936,,,,,,,,,,,772.644,1.3,773.941,773.941,776.102,5.32,2.154,0,53,53,32,1,1_to_8,images/Ex5.jpg,images/Ex6.jpg,Ex5,Ex6,,,,,
,,,,,995364,001,38,Male,British,BA HONS,2024-11-07_15h07.58.197,CatSimMDS,2023.2.3,MacIntel,10.86956522,5cf5497696cde00015bc3ce7,672bf50eac1463c2ad3c747f,672cd6e752a40a14f85dd936,,,,,,,,,,,776.102,0.7,776.8,776.801,779.759,3.0475,2.957,0,54,54,33,1,1_to_8,images/Ex5.jpg,images/Ex7.jpg,Ex5,Ex7,,,,,
,,,,,995364,001,38,Male,British,BA HONS,2024-11-07_15h07.58.197,CatSimMDS,2023.2.3,MacIntel,10.86956522,5cf5497696cde00015bc3ce7,672bf50eac1463c2ad3c747f,672cd6e752a40a14f85dd936,,,,,,,,,,,,,,,,,,,,,,,,,,,,779.76,791.533,space,11.742,