infCons.started,infCons.stopped,resp_consent.keys,resp_consent.rt,resp_consent.duration,participant,session,Age?,Gender?,Nationality?,Highest Educational Degree?,date,expName,psychopyVersion,OS,frameRate,STUDY_ID,SESSION_ID,instructions.started,instructions.stopped,resp_instructions.keys,resp_instructions.rt,resp_instructions.duration,nextTask.started,nextTask.stopped,ready_task.keys,ready_task.rt,ready_task.duration,fixation.started,ITI,fixation.stopped,stim.started,stim.stopped,response.keys,response.corr,response.rt,response.duration,feedback.started,feedback.stopped,trials.thisRepN,trials.thisTrialN,trials.thisN,trials.thisIndex,trials.ran,task,phase,Exemplars,r_correct,condition,difficulty,set,end.started,end.stopped,resp_end.keys,resp_end.rt,resp_end.duration
0.001,10.844,space,10.799,,59ae8d282a78fd00010b80e7,001,40,Male,British,Bachelors,2024-02-26_20h16.03.290,CRL1e,2023.2.3,MacIntel,33.33333333,65dbad3905fde4fe1981dc61,65dcf14b71b3c7f5f10a3005,,,,,,,,,,,,,,,,,,,,,,,,,,,,,,,,,,,,,,
,,,,,59ae8d282a78fd00010b80e7,001,40,Male,British,Bachelors,2024-02-26_20h16.03.290,CRL1e,2023.2.3,MacIntel,33.33333333,65dbad3905fde4fe1981dc61,65dcf14b71b3c7f5f10a3005,10.845,70.211,space,59.343,,,,,,,,,,,,,,,,,,,,,,,,,,,,,,,,,,
,,,,,59ae8d282a78fd00010b80e7,001,40,Male,British,Bachelors,2024-02-26_20h16.03.290,CRL1e,2023.2.3,MacIntel,33.33333333,65dbad3905fde4fe1981dc61,65dcf14b71b3c7f5f10a3005,,,,,,70.222,78.312,space,8.072,,78.321,1.2,79.513,79.513,80.932,left,1,1.397,,80.933,81.93,0,0,0,1,1,total,1,images/Ex13.jpg,left,training,easy,7,,,,,
,,,,,59ae8d282a78fd00010b80e7,001,40,Male,British,Bachelors,2024-02-26_20h16.03.290,CRL1e,2023.2.3,MacIntel,33.33333333,65dbad3905fde4fe1981dc61,65dcf14b71b3c7f5f10a3005,,,,,,,,,,,81.931,0.9,82.829,82.829,83.43,left,1,0.591,,83.43,84.43,0,1,1,0,1,total,1,images/Ex13.jpg,left,training,easy,7,,,,,
,,,,,59ae8d282a78fd00010b80e7,001,40,Male,British,Bachelors,2024-02-26_20h16.03.290,CRL1e,2023.2.3,MacIntel,33.33333333,65dbad3905fde4fe1981dc61,65dcf14b71b3c7f5f10a3005,,,,,,,,,,,84.431,0.7,85.129,85.13,85.679,right,0,0.541,,85.679,86.68,0,2,2,3,1,total,1,images/Ex14.jpg,left,training,easy,7,,,,,
,,,,,59ae8d282a78fd00010b80e7,001,40,Male,British,Bachelors,2024-02-26_20h16.03.290,CRL1e,2023.2.3,MacIntel,33.33333333,65dbad3905fde4fe1981dc61,65dcf14b71b3c7f5f10a3005,,,,,,,,,,,86.68,0.6,87.278,87.278,88.213,right,1,0.925,,88.213,89.213,0,3,3,6,1,total,1,images/Ex16.jpg,right,training,easy,7,,,,,
,,,,,59ae8d282a78fd00010b80e7,001,40,Male,British,Bachelors,2024-02-26_20h16.03.290,CRL1e,2023.2.3,MacIntel,33.33333333,65dbad3905fde4fe1981dc61,65dcf14b71b3c7f5f10a3005,,,,,,,,,,,89.214,1,90.214,90.214,90.73,left,1,0.503,,90.73,91.73,0,4,4,2,1,total,1,images/Ex14.jpg,left,training,easy,7,,,,,
,,,,,59ae8d282a78fd00010b80e7,001,40,Male,British,Bachelors,2024-02-26_20h16.03.290,CRL1e,2023.2.3,MacIntel,33.33333333,65dbad3905fde4fe1981dc61,65dcf14b71b3c7f5f10a3005,,,,,,,,,,,91.731,0.8,92.529,92.529,93.429,right,1,0.894,,93.429,94.43,0,5,5,4,1,total,1,images/Ex15.jpg,right,training,easy,7,,,,,
,,,,,59ae8d282a78fd00010b80e7,001,40,Male,British,Bachelors,2024-02-26_20h16.03.290,CRL1e,2023.2.3,MacIntel,33.33333333,65dbad3905fde4fe1981dc61,65dcf14b71b3c7f5f10a3005,,,,,,,,,,,94.431,0.8,95.231,95.231,95.847,right,1,0.604,,95.847,96.847,0,6,6,5,1,total,1,images/Ex15.jpg,right,training,easy,7,,,,,
,,,,,59ae8d282a78fd00010b80e7,001,40,Male,British,Bachelors,2024-02-26_20h16.03.290,CRL1e,2023.2.3,MacIntel,33.33333333,65dbad3905fde4fe1981dc61,65dcf14b71b3c7f5f10a3005,,,,,,,,,,,96.848,0.7,97.547,97.547,98.28,right,1,0.723,,98.281,99.28,0,7,7,7,1,total,1,images/Ex16.jpg,right,training,easy,7,,,,,
,,,,,59ae8d282a78fd00010b80e7,001,40,Male,British,Bachelors,2024-02-26_20h16.03.290,CRL1e,2023.2.3,MacIntel,33.33333333,65dbad3905fde4fe1981dc61,65dcf14b71b3c7f5f10a3005,,,,,,,,,,,99.281,1.2,100.481,100.481,100.863,left,1,0.379,,100.863,101.863,1,0,8,0,1,total,1,images/Ex13.jpg,left,training,easy,7,,,,,
,,,,,59ae8d282a78fd00010b80e7,001,40,Male,British,Bachelors,2024-02-26_20h16.03.290,CRL1e,2023.2.3,MacIntel,33.33333333,65dbad3905fde4fe1981dc61,65dcf14b71b3c7f5f10a3005,,,,,,,,,,,101.864,0.7,102.563,102.563,102.998,left,1,0.424,,102.998,103.997,1,1,9,3,1,total,1,images/Ex14.jpg,left,training,easy,7,,,,,
,,,,,59ae8d282a78fd00010b80e7,001,40,Male,British,Bachelors,2024-02-26_20h16.03.290,CRL1e,2023.2.3,MacIntel,33.33333333,65dbad3905fde4fe1981dc61,65dcf14b71b3c7f5f10a3005,,,,,,,,,,,103.997,0.7,104.696,104.696,105.148,right,1,0.442,,105.148,106.147,1,2,10,5,1,total,1,images/Ex15.jpg,right,training,easy,7,,,,,
,,,,,59ae8d282a78fd00010b80e7,001,40,Male,British,Bachelors,2024-02-26_20h16.03.290,CRL1e,2023.2.3,MacIntel,33.33333333,65dbad3905fde4fe1981dc61,65dcf14b71b3c7f5f10a3005,,,,,,,,,,,106.148,1.2,107.348,107.348,107.964,right,0,0.613,,107.964,108.964,1,3,11,2,1,total,1,images/Ex14.jpg,left,training,easy,7,,,,,
,,,,,59ae8d282a78fd00010b80e7,001,40,Male,British,Bachelors,2024-02-26_20h16.03.290,CRL1e,2023.2.3,MacIntel,33.33333333,65dbad3905fde4fe1981dc61,65dcf14b71b3c7f5f10a3005,,,,,,,,,,,108.964,0.9,109.864,109.864,110.414,right,1,0.539,,110.414,111.415,1,4,12,6,1,total,1,images/Ex16.jpg,right,training,easy,7,,,,,
,,,,,59ae8d282a78fd00010b80e7,001,40,Male,British,Bachelors,2024-02-26_20h16.03.290,CRL1e,2023.2.3,MacIntel,33.33333333,65dbad3905fde4fe1981dc61,65dcf14b71b3c7f5f10a3005,,,,,,,,,,,111.415,1,112.414,112.414,112.931,left,0,0.508,,112.931,113.932,1,5,13,4,1,total,1,images/Ex15.jpg,right,training,easy,7,,,,,
,,,,,59ae8d282a78fd00010b80e7,001,40,Male,British,Bachelors,2024-02-26_20h16.03.290,CRL1e,2023.2.3,MacIntel,33.33333333,65dbad3905fde4fe1981dc61,65dcf14b71b3c7f5f10a3005,,,,,,,,,,,113.932,0.8,114.732,114.732,115.249,left,1,0.505,,115.249,116.248,1,6,14,1,1,total,1,images/Ex13.jpg,left,training,easy,7,,,,,
,,,,,59ae8d282a78fd00010b80e7,001,40,Male,British,Bachelors,2024-02-26_20h16.03.290,CRL1e,2023.2.3,MacIntel,33.33333333,65dbad3905fde4fe1981dc61,65dcf14b71b3c7f5f10a3005,,,,,,,,,,,116.249,1.5,117.748,117.749,118.315,right,1,0.555,,118.315,119.315,1,7,15,7,1,total,1,images/Ex16.jpg,right,training,easy,7,,,,,
,,,,,59ae8d282a78fd00010b80e7,001,40,Male,British,Bachelors,2024-02-26_20h16.03.290,CRL1e,2023.2.3,MacIntel,33.33333333,65dbad3905fde4fe1981dc61,65dcf14b71b3c7f5f10a3005,,,,,,,,,,,119.316,0.7,120.015,120.016,120.615,right,0,0.594,,120.615,121.615,2,0,16,3,1,total,1,images/Ex14.jpg,left,training,easy,7,,,,,
,,,,,59ae8d282a78fd00010b80e7,001,40,Male,British,Bachelors,2024-02-26_20h16.03.290,CRL1e,2023.2.3,MacIntel,33.33333333,65dbad3905fde4fe1981dc61,65dcf14b71b3c7f5f10a3005,,,,,,,,,,,121.616,1.3,122.915,122.915,123.414,left,1,0.496,,123.414,124.416,2,1,17,1,1,total,1,images/Ex13.jpg,left,training,easy,7,,,,,
,,,,,59ae8d282a78fd00010b80e7,001,40,Male,British,Bachelors,2024-02-26_20h16.03.290,CRL1e,2023.2.3,MacIntel,33.33333333,65dbad3905fde4fe1981dc61,65dcf14b71b3c7f5f10a3005,,,,,,,,,,,124.416,0.7,125.115,125.115,125.599,right,1,0.476,,125.599,126.598,2,2,18,7,1,total,1,images/Ex16.jpg,right,training,easy,7,,,,,
,,,,,59ae8d282a78fd00010b80e7,001,40,Male,British,Bachelors,2024-02-26_20h16.03.290,CRL1e,2023.2.3,MacIntel,33.33333333,65dbad3905fde4fe1981dc61,65dcf14b71b3c7f5f10a3005,,,,,,,,,,,126.599,0.6,127.199,127.199,127.948,right,1,0.744,,127.948,128.949,2,3,19,5,1,total,1,images/Ex15.jpg,right,training,easy,7,,,,,
,,,,,59ae8d282a78fd00010b80e7,001,40,Male,British,Bachelors,2024-02-26_20h16.03.290,CRL1e,2023.2.3,MacIntel,33.33333333,65dbad3905fde4fe1981dc61,65dcf14b71b3c7f5f10a3005,,,,,,,,,,,128.95,1.3,130.249,130.249,130.633,left,1,0.372,,130.633,131.631,2,4,20,2,1,total,1,images/Ex14.jpg,left,training,easy,7,,,,,
,,,,,59ae8d282a78fd00010b80e7,001,40,Male,British,Bachelors,2024-02-26_20h16.03.290,CRL1e,2023.2.3,MacIntel,33.33333333,65dbad3905fde4fe1981dc61,65dcf14b71b3c7f5f10a3005,,,,,,,,,,,131.632,0.9,132.531,132.532,133.033,left,1,0.491,,133.033,134.032,2,5,21,0,1,total,1,images/Ex13.jpg,left,training,easy,7,,,,,
,,,,,59ae8d282a78fd00010b80e7,001,40,Male,British,Bachelors,2024-02-26_20h16.03.290,CRL1e,2023.2.3,MacIntel,33.33333333,65dbad3905fde4fe1981dc61,65dcf14b71b3c7f5f10a3005,,,,,,,,,,,134.032,0.9,134.933,134.933,135.466,right,1,0.527,,135.466,136.467,2,6,22,6,1,total,1,images/Ex16.jpg,right,training,easy,7,,,,,
,,,,,59ae8d282a78fd00010b80e7,001,40,Male,British,Bachelors,2024-02-26_20h16.03.290,CRL1e,2023.2.3,MacIntel,33.33333333,65dbad3905fde4fe1981dc61,65dcf14b71b3c7f5f10a3005,,,,,,,,,,,136.467,1.3,137.766,137.766,138.266,right,1,0.489,,138.266,139.266,2,7,23,4,1,total,1,images/Ex15.jpg,right,training,easy,7,,,,,
,,,,,59ae8d282a78fd00010b80e7,001,40,Male,British,Bachelors,2024-02-26_20h16.03.290,CRL1e,2023.2.3,MacIntel,33.33333333,65dbad3905fde4fe1981dc61,65dcf14b71b3c7f5f10a3005,,,,,,,,,,,139.266,0.8,140.066,140.066,140.583,left,1,0.506,,140.583,141.583,3,0,24,2,1,total,1,images/Ex14.jpg,left,training,easy,7,,,,,
,,,,,59ae8d282a78fd00010b80e7,001,40,Male,British,Bachelors,2024-02-26_20h16.03.290,CRL1e,2023.2.3,MacIntel,33.33333333,65dbad3905fde4fe1981dc61,65dcf14b71b3c7f5f10a3005,,,,,,,,,,,141.584,0.7,142.284,142.284,142.75,left,1,0.461,,142.75,143.749,3,1,25,0,1,total,1,images/Ex13.jpg,left,training,easy,7,,,,,
,,,,,59ae8d282a78fd00010b80e7,001,40,Male,British,Bachelors,2024-02-26_20h16.03.290,CRL1e,2023.2.3,MacIntel,33.33333333,65dbad3905fde4fe1981dc61,65dcf14b71b3c7f5f10a3005,,,,,,,,,,,143.75,1.2,144.95,144.95,145.4,right,1,0.44,,145.4,146.399,3,2,26,4,1,total,1,images/Ex15.jpg,right,training,easy,7,,,,,
,,,,,59ae8d282a78fd00010b80e7,001,40,Male,British,Bachelors,2024-02-26_20h16.03.290,CRL1e,2023.2.3,MacIntel,33.33333333,65dbad3905fde4fe1981dc61,65dcf14b71b3c7f5f10a3005,,,,,,,,,,,146.399,1,147.4,147.4,147.833,right,1,0.428,,147.833,148.834,3,3,27,6,1,total,1,images/Ex16.jpg,right,training,easy,7,,,,,
,,,,,59ae8d282a78fd00010b80e7,001,40,Male,British,Bachelors,2024-02-26_20h16.03.290,CRL1e,2023.2.3,MacIntel,33.33333333,65dbad3905fde4fe1981dc61,65dcf14b71b3c7f5f10a3005,,,,,,,,,,,148.834,0.9,149.734,149.734,150.149,right,1,0.414,,150.15,151.151,3,4,28,5,1,total,1,images/Ex15.jpg,right,training,easy,7,,,,,
,,,,,59ae8d282a78fd00010b80e7,001,40,Male,British,Bachelors,2024-02-26_20h16.03.290,CRL1e,2023.2.3,MacIntel,33.33333333,65dbad3905fde4fe1981dc61,65dcf14b71b3c7f5f10a3005,,,,,,,,,,,151.151,1.1,152.25,152.25,152.667,right,0,0.407,,152.667,153.667,3,5,29,1,1,total,1,images/Ex13.jpg,left,training,easy,7,,,,,
,,,,,59ae8d282a78fd00010b80e7,001,40,Male,British,Bachelors,2024-02-26_20h16.03.290,CRL1e,2023.2.3,MacIntel,33.33333333,65dbad3905fde4fe1981dc61,65dcf14b71b3c7f5f10a3005,,,,,,,,,,,153.667,1.2,154.867,154.868,155.384,right,1,0.507,,155.384,156.384,3,6,30,7,1,total,1,images/Ex16.jpg,right,training,easy,7,,,,,
,,,,,59ae8d282a78fd00010b80e7,001,40,Male,British,Bachelors,2024-02-26_20h16.03.290,CRL1e,2023.2.3,MacIntel,33.33333333,65dbad3905fde4fe1981dc61,65dcf14b71b3c7f5f10a3005,,,,,,,,,,,156.384,0.7,157.083,157.083,157.501,left,1,0.412,,157.501,158.501,3,7,31,3,1,total,1,images/Ex14.jpg,left,training,easy,7,,,,,
,,,,,59ae8d282a78fd00010b80e7,001,40,Male,British,Bachelors,2024-02-26_20h16.03.290,CRL1e,2023.2.3,MacIntel,33.33333333,65dbad3905fde4fe1981dc61,65dcf14b71b3c7f5f10a3005,,,,,,,,,,,158.503,1.4,159.901,159.901,160.317,left,1,0.408,,160.317,161.318,4,0,32,1,1,total,1,images/Ex13.jpg,left,training,easy,7,,,,,
,,,,,59ae8d282a78fd00010b80e7,001,40,Male,British,Bachelors,2024-02-26_20h16.03.290,CRL1e,2023.2.3,MacIntel,33.33333333,65dbad3905fde4fe1981dc61,65dcf14b71b3c7f5f10a3005,,,,,,,,,,,161.318,0.7,162.018,162.018,162.534,right,1,0.505,,162.534,163.535,4,1,33,7,1,total,1,images/Ex16.jpg,right,training,easy,7,,,,,
,,,,,59ae8d282a78fd00010b80e7,001,40,Male,British,Bachelors,2024-02-26_20h16.03.290,CRL1e,2023.2.3,MacIntel,33.33333333,65dbad3905fde4fe1981dc61,65dcf14b71b3c7f5f10a3005,,,,,,,,,,,163.535,1.5,165.035,165.035,165.5,left,0,0.461,,165.501,166.502,4,2,34,5,1,total,1,images/Ex15.jpg,right,training,easy,7,,,,,
,,,,,59ae8d282a78fd00010b80e7,001,40,Male,British,Bachelors,2024-02-26_20h16.03.290,CRL1e,2023.2.3,MacIntel,33.33333333,65dbad3905fde4fe1981dc61,65dcf14b71b3c7f5f10a3005,,,,,,,,,,,166.503,1.2,167.701,167.701,168.284,right,1,0.574,,168.284,169.285,4,3,35,6,1,total,1,images/Ex16.jpg,right,training,easy,7,,,,,
,,,,,59ae8d282a78fd00010b80e7,001,40,Male,British,Bachelors,2024-02-26_20h16.03.290,CRL1e,2023.2.3,MacIntel,33.33333333,65dbad3905fde4fe1981dc61,65dcf14b71b3c7f5f10a3005,,,,,,,,,,,169.286,1.1,170.384,170.385,170.951,left,1,0.559,,170.951,171.952,4,4,36,0,1,total,1,images/Ex13.jpg,left,training,easy,7,,,,,
,,,,,59ae8d282a78fd00010b80e7,001,40,Male,British,Bachelors,2024-02-26_20h16.03.290,CRL1e,2023.2.3,MacIntel,33.33333333,65dbad3905fde4fe1981dc61,65dcf14b71b3c7f5f10a3005,,,,,,,,,,,171.953,1.4,173.352,173.352,173.886,right,1,0.527,,173.886,174.884,4,5,37,4,1,total,1,images/Ex15.jpg,right,training,easy,7,,,,,
,,,,,59ae8d282a78fd00010b80e7,001,40,Male,British,Bachelors,2024-02-26_20h16.03.290,CRL1e,2023.2.3,MacIntel,33.33333333,65dbad3905fde4fe1981dc61,65dcf14b71b3c7f5f10a3005,,,,,,,,,,,174.885,1.3,176.185,176.185,176.652,left,1,0.457,,176.652,177.652,4,6,38,2,1,total,1,images/Ex14.jpg,left,training,easy,7,,,,,
,,,,,59ae8d282a78fd00010b80e7,001,40,Male,British,Bachelors,2024-02-26_20h16.03.290,CRL1e,2023.2.3,MacIntel,33.33333333,65dbad3905fde4fe1981dc61,65dcf14b71b3c7f5f10a3005,,,,,,,,,,,177.653,0.6,178.251,178.251,178.685,left,1,0.431,,178.685,179.685,4,7,39,3,1,total,1,images/Ex14.jpg,left,training,easy,7,,,,,
,,,,,59ae8d282a78fd00010b80e7,001,40,Male,British,Bachelors,2024-02-26_20h16.03.290,CRL1e,2023.2.3,MacIntel,33.33333333,65dbad3905fde4fe1981dc61,65dcf14b71b3c7f5f10a3005,,,,,,,,,,,179.685,0.7,180.386,180.386,180.769,right,1,0.376,,180.769,181.769,5,0,40,5,1,total,1,images/Ex15.jpg,right,training,easy,7,,,,,
,,,,,59ae8d282a78fd00010b80e7,001,40,Male,British,Bachelors,2024-02-26_20h16.03.290,CRL1e,2023.2.3,MacIntel,33.33333333,65dbad3905fde4fe1981dc61,65dcf14b71b3c7f5f10a3005,,,,,,,,,,,181.769,1,182.769,182.769,183.172,right,1,0.392,,183.172,184.169,5,1,41,4,1,total,1,images/Ex15.jpg,right,training,easy,7,,,,,
,,,,,59ae8d282a78fd00010b80e7,001,40,Male,British,Bachelors,2024-02-26_20h16.03.290,CRL1e,2023.2.3,MacIntel,33.33333333,65dbad3905fde4fe1981dc61,65dcf14b71b3c7f5f10a3005,,,,,,,,,,,184.17,1.2,185.368,185.369,185.853,left,1,0.475,,185.853,186.853,5,2,42,3,1,total,1,images/Ex14.jpg,left,training,easy,7,,,,,
,,,,,59ae8d282a78fd00010b80e7,001,40,Male,British,Bachelors,2024-02-26_20h16.03.290,CRL1e,2023.2.3,MacIntel,33.33333333,65dbad3905fde4fe1981dc61,65dcf14b71b3c7f5f10a3005,,,,,,,,,,,186.853,1.2,188.053,188.053,188.519,right,0,0.457,,188.519,189.519,5,3,43,0,1,total,1,images/Ex13.jpg,left,training,easy,7,,,,,
,,,,,59ae8d282a78fd00010b80e7,001,40,Male,British,Bachelors,2024-02-26_20h16.03.290,CRL1e,2023.2.3,MacIntel,33.33333333,65dbad3905fde4fe1981dc61,65dcf14b71b3c7f5f10a3005,,,,,,,,,,,189.519,1.2,190.72,190.72,191.135,left,1,0.407,,191.135,192.137,5,4,44,1,1,total,1,images/Ex13.jpg,left,training,easy,7,,,,,
,,,,,59ae8d282a78fd00010b80e7,001,40,Male,British,Bachelors,2024-02-26_20h16.03.290,CRL1e,2023.2.3,MacIntel,33.33333333,65dbad3905fde4fe1981dc61,65dcf14b71b3c7f5f10a3005,,,,,,,,,,,192.138,0.8,192.937,192.937,193.469,right,1,0.523,,193.469,194.47,5,5,45,6,1,total,1,images/Ex16.jpg,right,training,easy,7,,,,,
,,,,,59ae8d282a78fd00010b80e7,001,40,Male,British,Bachelors,2024-02-26_20h16.03.290,CRL1e,2023.2.3,MacIntel,33.33333333,65dbad3905fde4fe1981dc61,65dcf14b71b3c7f5f10a3005,,,,,,,,,,,194.471,1.1,195.57,195.57,195.938,right,1,0.359,,195.938,196.936,5,6,46,7,1,total,1,images/Ex16.jpg,right,training,easy,7,,,,,
,,,,,59ae8d282a78fd00010b80e7,001,40,Male,British,Bachelors,2024-02-26_20h16.03.290,CRL1e,2023.2.3,MacIntel,33.33333333,65dbad3905fde4fe1981dc61,65dcf14b71b3c7f5f10a3005,,,,,,,,,,,196.937,1.5,198.437,198.437,198.737,left,1,0.289,,198.737,199.737,5,7,47,2,1,total,1,images/Ex14.jpg,left,training,easy,7,,,,,
,,,,,59ae8d282a78fd00010b80e7,001,40,Male,British,Bachelors,2024-02-26_20h16.03.290,CRL1e,2023.2.3,MacIntel,33.33333333,65dbad3905fde4fe1981dc61,65dcf14b71b3c7f5f10a3005,,,,,,,,,,,199.746,0.7,200.437,200.437,200.87,left,0,0.425,,200.87,201.871,0,0,0,2,1,total,2,images/Ex14.jpg,right,reversed,easy,7,,,,,
,,,,,59ae8d282a78fd00010b80e7,001,40,Male,British,Bachelors,2024-02-26_20h16.03.290,CRL1e,2023.2.3,MacIntel,33.33333333,65dbad3905fde4fe1981dc61,65dcf14b71b3c7f5f10a3005,,,,,,,,,,,201.871,1.1,202.971,202.971,203.387,left,0,0.412,,203.387,204.387,0,1,1,1,1,total,2,images/Ex13.jpg,right,reversed,easy,7,,,,,
,,,,,59ae8d282a78fd00010b80e7,001,40,Male,British,Bachelors,2024-02-26_20h16.03.290,CRL1e,2023.2.3,MacIntel,33.33333333,65dbad3905fde4fe1981dc61,65dcf14b71b3c7f5f10a3005,,,,,,,,,,,204.392,1.2,205.587,205.587,206.088,right,0,0.492,,206.088,207.088,0,2,2,5,1,total,2,images/Ex15.jpg,left,reversed,easy,7,,,,,
,,,,,59ae8d282a78fd00010b80e7,001,40,Male,British,Bachelors,2024-02-26_20h16.03.290,CRL1e,2023.2.3,MacIntel,33.33333333,65dbad3905fde4fe1981dc61,65dcf14b71b3c7f5f10a3005,,,,,,,,,,,207.088,0.6,207.688,207.688,208.421,right,1,0.724,,208.421,209.421,0,3,3,3,1,total,2,images/Ex14.jpg,right,reversed,easy,7,,,,,
,,,,,59ae8d282a78fd00010b80e7,001,40,Male,British,Bachelors,2024-02-26_20h16.03.290,CRL1e,2023.2.3,MacIntel,33.33333333,65dbad3905fde4fe1981dc61,65dcf14b71b3c7f5f10a3005,,,,,,,,,,,209.422,1.4,210.82,210.82,211.238,left,1,0.409,,211.238,212.237,0,4,4,7,1,total,2,images/Ex16.jpg,left,reversed,easy,7,,,,,
,,,,,59ae8d282a78fd00010b80e7,001,40,Male,British,Bachelors,2024-02-26_20h16.03.290,CRL1e,2023.2.3,MacIntel,33.33333333,65dbad3905fde4fe1981dc61,65dcf14b71b3c7f5f10a3005,,,,,,,,,,,212.237,0.6,212.837,212.837,213.287,left,1,0.447,,213.287,214.288,0,5,5,4,1,total,2,images/Ex15.jpg,left,reversed,easy,7,,,,,
,,,,,59ae8d282a78fd00010b80e7,001,40,Male,British,Bachelors,2024-02-26_20h16.03.290,CRL1e,2023.2.3,MacIntel,33.33333333,65dbad3905fde4fe1981dc61,65dcf14b71b3c7f5f10a3005,,,,,,,,,,,214.289,0.5,214.788,214.788,215.204,left,1,0.414,,215.204,216.204,0,6,6,6,1,total,2,images/Ex16.jpg,left,reversed,easy,7,,,,,
,,,,,59ae8d282a78fd00010b80e7,001,40,Male,British,Bachelors,2024-02-26_20h16.03.290,CRL1e,2023.2.3,MacIntel,33.33333333,65dbad3905fde4fe1981dc61,65dcf14b71b3c7f5f10a3005,,,,,,,,,,,216.205,1.3,217.505,217.505,217.922,right,1,0.407,,217.922,218.921,0,7,7,0,1,total,2,images/Ex13.jpg,right,reversed,easy,7,,,,,
,,,,,59ae8d282a78fd00010b80e7,001,40,Male,British,Bachelors,2024-02-26_20h16.03.290,CRL1e,2023.2.3,MacIntel,33.33333333,65dbad3905fde4fe1981dc61,65dcf14b71b3c7f5f10a3005,,,,,,,,,,,218.921,1,219.922,219.922,220.254,left,1,0.331,,220.254,221.255,1,0,8,5,1,total,2,images/Ex15.jpg,left,reversed,easy,7,,,,,
,,,,,59ae8d282a78fd00010b80e7,001,40,Male,British,Bachelors,2024-02-26_20h16.03.290,CRL1e,2023.2.3,MacIntel,33.33333333,65dbad3905fde4fe1981dc61,65dcf14b71b3c7f5f10a3005,,,,,,,,,,,221.255,1.2,222.455,222.456,222.972,right,0,0.507,,222.972,223.971,1,1,9,6,1,total,2,images/Ex16.jpg,left,reversed,easy,7,,,,,
,,,,,59ae8d282a78fd00010b80e7,001,40,Male,British,Bachelors,2024-02-26_20h16.03.290,CRL1e,2023.2.3,MacIntel,33.33333333,65dbad3905fde4fe1981dc61,65dcf14b71b3c7f5f10a3005,,,,,,,,,,,223.972,1.4,225.372,225.373,225.872,right,1,0.493,,225.872,226.872,1,2,10,1,1,total,2,images/Ex13.jpg,right,reversed,easy,7,,,,,
,,,,,59ae8d282a78fd00010b80e7,001,40,Male,British,Bachelors,2024-02-26_20h16.03.290,CRL1e,2023.2.3,MacIntel,33.33333333,65dbad3905fde4fe1981dc61,65dcf14b71b3c7f5f10a3005,,,,,,,,,,,226.874,0.6,227.472,227.472,227.906,left,0,0.428,,227.906,228.906,1,3,11,0,1,total,2,images/Ex13.jpg,right,reversed,easy,7,,,,,
,,,,,59ae8d282a78fd00010b80e7,001,40,Male,British,Bachelors,2024-02-26_20h16.03.290,CRL1e,2023.2.3,MacIntel,33.33333333,65dbad3905fde4fe1981dc61,65dcf14b71b3c7f5f10a3005,,,,,,,,,,,228.906,1,229.906,229.906,230.255,left,1,0.34,,230.255,231.256,1,4,12,4,1,total,2,images/Ex15.jpg,left,reversed,easy,7,,,,,
,,,,,59ae8d282a78fd00010b80e7,001,40,Male,British,Bachelors,2024-02-26_20h16.03.290,CRL1e,2023.2.3,MacIntel,33.33333333,65dbad3905fde4fe1981dc61,65dcf14b71b3c7f5f10a3005,,,,,,,,,,,231.257,0.7,231.955,231.956,232.388,left,1,0.429,,232.389,233.389,1,5,13,7,1,total,2,images/Ex16.jpg,left,reversed,easy,7,,,,,
,,,,,59ae8d282a78fd00010b80e7,001,40,Male,British,Bachelors,2024-02-26_20h16.03.290,CRL1e,2023.2.3,MacIntel,33.33333333,65dbad3905fde4fe1981dc61,65dcf14b71b3c7f5f10a3005,,,,,,,,,,,233.389,1.1,234.49,234.49,235.039,right,1,0.538,,235.039,236.04,1,6,14,3,1,total,2,images/Ex14.jpg,right,reversed,easy,7,,,,,
,,,,,59ae8d282a78fd00010b80e7,001,40,Male,British,Bachelors,2024-02-26_20h16.03.290,CRL1e,2023.2.3,MacIntel,33.33333333,65dbad3905fde4fe1981dc61,65dcf14b71b3c7f5f10a3005,,,,,,,,,,,236.04,0.6,236.64,236.64,237.09,left,0,0.44,,237.09,238.089,1,7,15,2,1,total,2,images/Ex14.jpg,right,reversed,easy,7,,,,,
,,,,,59ae8d282a78fd00010b80e7,001,40,Male,British,Bachelors,2024-02-26_20h16.03.290,CRL1e,2023.2.3,MacIntel,33.33333333,65dbad3905fde4fe1981dc61,65dcf14b71b3c7f5f10a3005,,,,,,,,,,,238.089,1.1,239.189,239.189,239.673,left,0,0.48,,239.673,240.672,2,0,16,3,1,total,2,images/Ex14.jpg,right,reversed,easy,7,,,,,
,,,,,59ae8d282a78fd00010b80e7,001,40,Male,British,Bachelors,2024-02-26_20h16.03.290,CRL1e,2023.2.3,MacIntel,33.33333333,65dbad3905fde4fe1981dc61,65dcf14b71b3c7f5f10a3005,,,,,,,,,,,240.672,1.2,241.874,241.874,242.373,left,1,0.488,,242.373,243.374,2,1,17,6,1,total,2,images/Ex16.jpg,left,reversed,easy,7,,,,,
,,,,,59ae8d282a78fd00010b80e7,001,40,Male,British,Bachelors,2024-02-26_20h16.03.290,CRL1e,2023.2.3,MacIntel,33.33333333,65dbad3905fde4fe1981dc61,65dcf14b71b3c7f5f10a3005,,,,,,,,,,,243.375,0.6,243.972,243.974,244.39,left,0,0.407,,244.39,245.39,2,2,18,1,1,total,2,images/Ex13.jpg,right,reversed,easy,7,,,,,
,,,,,59ae8d282a78fd00010b80e7,001,40,Male,British,Bachelors,2024-02-26_20h16.03.290,CRL1e,2023.2.3,MacIntel,33.33333333,65dbad3905fde4fe1981dc61,65dcf14b71b3c7f5f10a3005,,,,,,,,,,,245.391,0.6,245.99,245.99,246.523,right,1,0.525,,246.523,247.524,2,3,19,0,1,total,2,images/Ex13.jpg,right,reversed,easy,7,,,,,
,,,,,59ae8d282a78fd00010b80e7,001,40,Male,British,Bachelors,2024-02-26_20h16.03.290,CRL1e,2023.2.3,MacIntel,33.33333333,65dbad3905fde4fe1981dc61,65dcf14b71b3c7f5f10a3005,,,,,,,,,,,247.524,1,248.523,248.524,248.956,left,1,0.423,,248.956,249.957,2,4,20,4,1,total,2,images/Ex15.jpg,left,reversed,easy,7,,,,,
,,,,,59ae8d282a78fd00010b80e7,001,40,Male,British,Bachelors,2024-02-26_20h16.03.290,CRL1e,2023.2.3,MacIntel,33.33333333,65dbad3905fde4fe1981dc61,65dcf14b71b3c7f5f10a3005,,,,,,,,,,,249.958,1.4,251.356,251.356,251.774,left,0,0.408,,251.774,252.774,2,5,21,2,1,total,2,images/Ex14.jpg,right,reversed,easy,7,,,,,
,,,,,59ae8d282a78fd00010b80e7,001,40,Male,British,Bachelors,2024-02-26_20h16.03.290,CRL1e,2023.2.3,MacIntel,33.33333333,65dbad3905fde4fe1981dc61,65dcf14b71b3c7f5f10a3005,,,,,,,,,,,252.775,0.6,253.374,253.374,253.874,right,0,0.497,,253.874,254.874,2,6,22,5,1,total,2,images/Ex15.jpg,left,reversed,easy,7,,,,,
,,,,,59ae8d282a78fd00010b80e7,001,40,Male,British,Bachelors,2024-02-26_20h16.03.290,CRL1e,2023.2.3,MacIntel,33.33333333,65dbad3905fde4fe1981dc61,65dcf14b71b3c7f5f10a3005,,,,,,,,,,,254.874,0.7,255.574,255.574,256.141,left,1,0.561,,256.141,257.141,2,7,23,7,1,total,2,images/Ex16.jpg,left,reversed,easy,7,,,,,
,,,,,59ae8d282a78fd00010b80e7,001,40,Male,British,Bachelors,2024-02-26_20h16.03.290,CRL1e,2023.2.3,MacIntel,33.33333333,65dbad3905fde4fe1981dc61,65dcf14b71b3c7f5f10a3005,,,,,,,,,,,257.141,1,258.141,258.141,259.158,right,1,1.009,,259.158,260.157,3,0,24,3,1,total,2,images/Ex14.jpg,right,reversed,easy,7,,,,,
,,,,,59ae8d282a78fd00010b80e7,001,40,Male,British,Bachelors,2024-02-26_20h16.03.290,CRL1e,2023.2.3,MacIntel,33.33333333,65dbad3905fde4fe1981dc61,65dcf14b71b3c7f5f10a3005,,,,,,,,,,,260.157,0.8,260.958,260.958,261.474,left,1,0.504,,261.475,262.475,3,1,25,6,1,total,2,images/Ex16.jpg,left,reversed,easy,7,,,,,
,,,,,59ae8d282a78fd00010b80e7,001,40,Male,British,Bachelors,2024-02-26_20h16.03.290,CRL1e,2023.2.3,MacIntel,33.33333333,65dbad3905fde4fe1981dc61,65dcf14b71b3c7f5f10a3005,,,,,,,,,,,262.475,0.5,262.975,262.975,263.924,right,1,0.94,,263.924,264.924,3,2,26,1,1,total,2,images/Ex13.jpg,right,reversed,easy,7,,,,,
,,,,,59ae8d282a78fd00010b80e7,001,40,Male,British,Bachelors,2024-02-26_20h16.03.290,CRL1e,2023.2.3,MacIntel,33.33333333,65dbad3905fde4fe1981dc61,65dcf14b71b3c7f5f10a3005,,,,,,,,,,,264.925,1.2,266.124,266.124,266.708,right,1,0.572,,266.708,267.709,3,3,27,2,1,total,2,images/Ex14.jpg,right,reversed,easy,7,,,,,
,,,,,59ae8d282a78fd00010b80e7,001,40,Male,British,Bachelors,2024-02-26_20h16.03.290,CRL1e,2023.2.3,MacIntel,33.33333333,65dbad3905fde4fe1981dc61,65dcf14b71b3c7f5f10a3005,,,,,,,,,,,267.71,0.6,268.309,268.309,268.809,left,1,0.487,,268.809,269.808,3,4,28,5,1,total,2,images/Ex15.jpg,left,reversed,easy,7,,,,,
,,,,,59ae8d282a78fd00010b80e7,001,40,Male,British,Bachelors,2024-02-26_20h16.03.290,CRL1e,2023.2.3,MacIntel,33.33333333,65dbad3905fde4fe1981dc61,65dcf14b71b3c7f5f10a3005,,,,,,,,,,,269.808,1.2,271.009,271.009,271.341,left,1,0.321,,271.342,272.341,3,5,29,7,1,total,2,images/Ex16.jpg,left,reversed,easy,7,,,,,
,,,,,59ae8d282a78fd00010b80e7,001,40,Male,British,Bachelors,2024-02-26_20h16.03.290,CRL1e,2023.2.3,MacIntel,33.33333333,65dbad3905fde4fe1981dc61,65dcf14b71b3c7f5f10a3005,,,,,,,,,,,272.342,1.3,273.643,273.643,274.042,left,1,0.387,,274.042,275.042,3,6,30,4,1,total,2,images/Ex15.jpg,left,reversed,easy,7,,,,,
,,,,,59ae8d282a78fd00010b80e7,001,40,Male,British,Bachelors,2024-02-26_20h16.03.290,CRL1e,2023.2.3,MacIntel,33.33333333,65dbad3905fde4fe1981dc61,65dcf14b71b3c7f5f10a3005,,,,,,,,,,,275.043,0.7,275.742,275.742,276.242,right,1,0.49,,276.242,277.242,3,7,31,0,1,total,2,images/Ex13.jpg,right,reversed,easy,7,,,,,
,,,,,59ae8d282a78fd00010b80e7,001,40,Male,British,Bachelors,2024-02-26_20h16.03.290,CRL1e,2023.2.3,MacIntel,33.33333333,65dbad3905fde4fe1981dc61,65dcf14b71b3c7f5f10a3005,,,,,,,,,,,277.243,1,278.242,278.242,278.808,left,1,0.555,,278.808,279.809,4,0,32,5,1,total,2,images/Ex15.jpg,left,reversed,easy,7,,,,,
,,,,,59ae8d282a78fd00010b80e7,001,40,Male,British,Bachelors,2024-02-26_20h16.03.290,CRL1e,2023.2.3,MacIntel,33.33333333,65dbad3905fde4fe1981dc61,65dcf14b71b3c7f5f10a3005,,,,,,,,,,,279.81,1,280.809,280.81,281.342,right,1,0.523,,281.342,282.343,4,1,33,1,1,total,2,images/Ex13.jpg,right,reversed,easy,7,,,,,
,,,,,59ae8d282a78fd00010b80e7,001,40,Male,British,Bachelors,2024-02-26_20h16.03.290,CRL1e,2023.2.3,MacIntel,33.33333333,65dbad3905fde4fe1981dc61,65dcf14b71b3c7f5f10a3005,,,,,,,,,,,282.343,0.6,282.942,282.942,283.392,left,1,0.441,,283.392,284.393,4,2,34,6,1,total,2,images/Ex16.jpg,left,reversed,easy,7,,,,,
,,,,,59ae8d282a78fd00010b80e7,001,40,Male,British,Bachelors,2024-02-26_20h16.03.290,CRL1e,2023.2.3,MacIntel,33.33333333,65dbad3905fde4fe1981dc61,65dcf14b71b3c7f5f10a3005,,,,,,,,,,,284.393,1.3,285.693,285.693,286.243,right,1,0.544,,286.243,287.243,4,3,35,2,1,total,2,images/Ex14.jpg,right,reversed,easy,7,,,,,
,,,,,59ae8d282a78fd00010b80e7,001,40,Male,British,Bachelors,2024-02-26_20h16.03.290,CRL1e,2023.2.3,MacIntel,33.33333333,65dbad3905fde4fe1981dc61,65dcf14b71b3c7f5f10a3005,,,,,,,,,,,287.243,1.4,288.643,288.643,289.143,right,1,0.493,,289.143,290.142,4,4,36,0,1,total,2,images/Ex13.jpg,right,reversed,easy,7,,,,,
,,,,,59ae8d282a78fd00010b80e7,001,40,Male,British,Bachelors,2024-02-26_20h16.03.290,CRL1e,2023.2.3,MacIntel,33.33333333,65dbad3905fde4fe1981dc61,65dcf14b71b3c7f5f10a3005,,,,,,,,,,,290.143,1,291.143,291.144,291.61,right,0,0.455,,291.61,292.61,4,5,37,7,1,total,2,images/Ex16.jpg,left,reversed,easy,7,,,,,
,,,,,59ae8d282a78fd00010b80e7,001,40,Male,British,Bachelors,2024-02-26_20h16.03.290,CRL1e,2023.2.3,MacIntel,33.33333333,65dbad3905fde4fe1981dc61,65dcf14b71b3c7f5f10a3005,,,,,,,,,,,292.61,1.5,294.11,294.11,294.51,left,1,0.389,,294.51,295.509,4,6,38,4,1,total,2,images/Ex15.jpg,left,reversed,easy,7,,,,,
,,,,,59ae8d282a78fd00010b80e7,001,40,Male,British,Bachelors,2024-02-26_20h16.03.290,CRL1e,2023.2.3,MacIntel,33.33333333,65dbad3905fde4fe1981dc61,65dcf14b71b3c7f5f10a3005,,,,,,,,,,,295.51,1.4,296.911,296.911,297.443,right,1,0.526,,297.444,298.443,4,7,39,3,1,total,2,images/Ex14.jpg,right,reversed,easy,7,,,,,
,,,,,59ae8d282a78fd00010b80e7,001,40,Male,British,Bachelors,2024-02-26_20h16.03.290,CRL1e,2023.2.3,MacIntel,33.33333333,65dbad3905fde4fe1981dc61,65dcf14b71b3c7f5f10a3005,,,,,,,,,,,298.443,1.2,299.644,299.644,300.127,right,1,0.48,,300.127,301.127,5,0,40,2,1,total,2,images/Ex14.jpg,right,reversed,easy,7,,,,,
,,,,,59ae8d282a78fd00010b80e7,001,40,Male,British,Bachelors,2024-02-26_20h16.03.290,CRL1e,2023.2.3,MacIntel,33.33333333,65dbad3905fde4fe1981dc61,65dcf14b71b3c7f5f10a3005,,,,,,,,,,,301.128,0.9,302.027,302.027,302.51,left,0,0.477,,302.51,303.511,5,1,41,0,1,total,2,images/Ex13.jpg,right,reversed,easy,7,,,,,
,,,,,59ae8d282a78fd00010b80e7,001,40,Male,British,Bachelors,2024-02-26_20h16.03.290,CRL1e,2023.2.3,MacIntel,33.33333333,65dbad3905fde4fe1981dc61,65dcf14b71b3c7f5f10a3005,,,,,,,,,,,303.511,1.2,304.711,304.712,305.261,left,1,0.539,,305.261,306.26,5,2,42,5,1,total,2,images/Ex15.jpg,left,reversed,easy,7,,,,,
,,,,,59ae8d282a78fd00010b80e7,001,40,Male,British,Bachelors,2024-02-26_20h16.03.290,CRL1e,2023.2.3,MacIntel,33.33333333,65dbad3905fde4fe1981dc61,65dcf14b71b3c7f5f10a3005,,,,,,,,,,,306.26,0.9,307.16,307.16,307.678,right,1,0.508,,307.678,308.678,5,3,43,3,1,total,2,images/Ex14.jpg,right,reversed,easy,7,,,,,
,,,,,59ae8d282a78fd00010b80e7,001,40,Male,British,Bachelors,2024-02-26_20h16.03.290,CRL1e,2023.2.3,MacIntel,33.33333333,65dbad3905fde4fe1981dc61,65dcf14b71b3c7f5f10a3005,,,,,,,,,,,308.678,1.5,310.178,310.178,310.578,left,1,0.393,,310.578,311.577,5,4,44,6,1,total,2,images/Ex16.jpg,left,reversed,easy,7,,,,,
,,,,,59ae8d282a78fd00010b80e7,001,40,Male,British,Bachelors,2024-02-26_20h16.03.290,CRL1e,2023.2.3,MacIntel,33.33333333,65dbad3905fde4fe1981dc61,65dcf14b71b3c7f5f10a3005,,,,,,,,,,,311.578,1.4,312.978,312.978,313.362,left,1,0.374,,313.362,314.361,5,5,45,7,1,total,2,images/Ex16.jpg,left,reversed,easy,7,,,,,
,,,,,59ae8d282a78fd00010b80e7,001,40,Male,British,Bachelors,2024-02-26_20h16.03.290,CRL1e,2023.2.3,MacIntel,33.33333333,65dbad3905fde4fe1981dc61,65dcf14b71b3c7f5f10a3005,,,,,,,,,,,314.361,1,315.362,315.362,315.728,left,0,0.36,,315.728,316.728,5,6,46,1,1,total,2,images/Ex13.jpg,right,reversed,easy,7,,,,,
,,,,,59ae8d282a78fd00010b80e7,001,40,Male,British,Bachelors,2024-02-26_20h16.03.290,CRL1e,2023.2.3,MacIntel,33.33333333,65dbad3905fde4fe1981dc61,65dcf14b71b3c7f5f10a3005,,,,,,,,,,,316.729,1.3,318.028,318.029,318.545,left,1,0.514,,318.545,319.545,5,7,47,4,1,total,2,images/Ex15.jpg,left,reversed,easy,7,,,,,
,,,,,59ae8d282a78fd00010b80e7,001,40,Male,British,Bachelors,2024-02-26_20h16.03.290,CRL1e,2023.2.3,MacIntel,33.33333333,65dbad3905fde4fe1981dc61,65dcf14b71b3c7f5f10a3005,,,,,,319.545,369.882,space,50.327,,369.888,1.2,371.081,371.081,371.816,left,0,0.726,,371.816,372.816,0,0,0,6,1,partial,1,images/Ex12.jpg,right,training,easy,7,,,,,
,,,,,59ae8d282a78fd00010b80e7,001,40,Male,British,Bachelors,2024-02-26_20h16.03.290,CRL1e,2023.2.3,MacIntel,33.33333333,65dbad3905fde4fe1981dc61,65dcf14b71b3c7f5f10a3005,,,,,,,,,,,372.817,1.2,374.016,374.016,374.465,right,1,0.449,,374.465,375.466,0,1,1,7,1,partial,1,images/Ex12.jpg,right,training,easy,7,,,,,
,,,,,59ae8d282a78fd00010b80e7,001,40,Male,British,Bachelors,2024-02-26_20h16.03.290,CRL1e,2023.2.3,MacIntel,33.33333333,65dbad3905fde4fe1981dc61,65dcf14b71b3c7f5f10a3005,,,,,,,,,,,375.467,1.4,376.866,376.866,377.316,left,1,0.44,,377.316,378.315,0,2,2,0,1,partial,1,images/Ex9.jpg,left,training,easy,7,,,,,
,,,,,59ae8d282a78fd00010b80e7,001,40,Male,British,Bachelors,2024-02-26_20h16.03.290,CRL1e,2023.2.3,MacIntel,33.33333333,65dbad3905fde4fe1981dc61,65dcf14b71b3c7f5f10a3005,,,,,,,,,,,378.315,1.4,379.716,379.716,380.316,right,0,0.592,,380.316,381.316,0,3,3,2,1,partial,1,images/Ex10.jpg,left,training,easy,7,,,,,
,,,,,59ae8d282a78fd00010b80e7,001,40,Male,British,Bachelors,2024-02-26_20h16.03.290,CRL1e,2023.2.3,MacIntel,33.33333333,65dbad3905fde4fe1981dc61,65dcf14b71b3c7f5f10a3005,,,,,,,,,,,381.316,0.6,381.916,381.916,382.482,left,1,0.559,,382.482,383.483,0,4,4,3,1,partial,1,images/Ex10.jpg,left,training,easy,7,,,,,
,,,,,59ae8d282a78fd00010b80e7,001,40,Male,British,Bachelors,2024-02-26_20h16.03.290,CRL1e,2023.2.3,MacIntel,33.33333333,65dbad3905fde4fe1981dc61,65dcf14b71b3c7f5f10a3005,,,,,,,,,,,383.483,0.7,384.183,384.184,384.949,left,1,0.759,,384.95,385.95,0,5,5,1,1,partial,1,images/Ex9.jpg,left,training,easy,7,,,,,
,,,,,59ae8d282a78fd00010b80e7,001,40,Male,British,Bachelors,2024-02-26_20h16.03.290,CRL1e,2023.2.3,MacIntel,33.33333333,65dbad3905fde4fe1981dc61,65dcf14b71b3c7f5f10a3005,,,,,,,,,,,385.95,1,386.949,386.949,387.567,left,0,0.608,,387.567,388.566,0,6,6,5,1,partial,1,images/Ex11.jpg,right,training,easy,7,,,,,
,,,,,59ae8d282a78fd00010b80e7,001,40,Male,British,Bachelors,2024-02-26_20h16.03.290,CRL1e,2023.2.3,MacIntel,33.33333333,65dbad3905fde4fe1981dc61,65dcf14b71b3c7f5f10a3005,,,,,,,,,,,388.566,1.1,389.666,389.666,390.267,right,1,0.59,,390.268,391.267,0,7,7,4,1,partial,1,images/Ex11.jpg,right,training,easy,7,,,,,
,,,,,59ae8d282a78fd00010b80e7,001,40,Male,British,Bachelors,2024-02-26_20h16.03.290,CRL1e,2023.2.3,MacIntel,33.33333333,65dbad3905fde4fe1981dc61,65dcf14b71b3c7f5f10a3005,,,,,,,,,,,391.267,0.5,391.767,391.767,392.267,right,1,0.491,,392.267,393.267,1,0,8,5,1,partial,1,images/Ex11.jpg,right,training,easy,7,,,,,
,,,,,59ae8d282a78fd00010b80e7,001,40,Male,British,Bachelors,2024-02-26_20h16.03.290,CRL1e,2023.2.3,MacIntel,33.33333333,65dbad3905fde4fe1981dc61,65dcf14b71b3c7f5f10a3005,,,,,,,,,,,393.267,0.5,393.767,393.767,394.3,left,1,0.524,,394.3,395.3,1,1,9,3,1,partial,1,images/Ex10.jpg,left,training,easy,7,,,,,
,,,,,59ae8d282a78fd00010b80e7,001,40,Male,British,Bachelors,2024-02-26_20h16.03.290,CRL1e,2023.2.3,MacIntel,33.33333333,65dbad3905fde4fe1981dc61,65dcf14b71b3c7f5f10a3005,,,,,,,,,,,395.3,1.1,396.4,396.4,397.001,left,1,0.592,,397.001,398.001,1,2,10,2,1,partial,1,images/Ex10.jpg,left,training,easy,7,,,,,
,,,,,59ae8d282a78fd00010b80e7,001,40,Male,British,Bachelors,2024-02-26_20h16.03.290,CRL1e,2023.2.3,MacIntel,33.33333333,65dbad3905fde4fe1981dc61,65dcf14b71b3c7f5f10a3005,,,,,,,,,,,398.002,0.5,398.501,398.501,399.034,left,0,0.52,,399.034,400.034,1,3,11,6,1,partial,1,images/Ex12.jpg,right,training,easy,7,,,,,
,,,,,59ae8d282a78fd00010b80e7,001,40,Male,British,Bachelors,2024-02-26_20h16.03.290,CRL1e,2023.2.3,MacIntel,33.33333333,65dbad3905fde4fe1981dc61,65dcf14b71b3c7f5f10a3005,,,,,,,,,,,400.034,1.4,401.434,401.434,401.85,right,1,0.404,,401.851,402.85,1,4,12,7,1,partial,1,images/Ex12.jpg,right,training,easy,7,,,,,
,,,,,59ae8d282a78fd00010b80e7,001,40,Male,British,Bachelors,2024-02-26_20h16.03.290,CRL1e,2023.2.3,MacIntel,33.33333333,65dbad3905fde4fe1981dc61,65dcf14b71b3c7f5f10a3005,,,,,,,,,,,402.851,0.6,403.45,403.45,404.001,right,1,0.545,,404.001,405,1,5,13,4,1,partial,1,images/Ex11.jpg,right,training,easy,7,,,,,
,,,,,59ae8d282a78fd00010b80e7,001,40,Male,British,Bachelors,2024-02-26_20h16.03.290,CRL1e,2023.2.3,MacIntel,33.33333333,65dbad3905fde4fe1981dc61,65dcf14b71b3c7f5f10a3005,,,,,,,,,,,405,0.8,405.801,405.801,406.367,left,1,0.558,,406.367,407.368,1,6,14,0,1,partial,1,images/Ex9.jpg,left,training,easy,7,,,,,
,,,,,59ae8d282a78fd00010b80e7,001,40,Male,British,Bachelors,2024-02-26_20h16.03.290,CRL1e,2023.2.3,MacIntel,33.33333333,65dbad3905fde4fe1981dc61,65dcf14b71b3c7f5f10a3005,,,,,,,,,,,407.368,0.8,408.168,408.168,408.7,left,1,0.53,,408.7,409.702,1,7,15,1,1,partial,1,images/Ex9.jpg,left,training,easy,7,,,,,
,,,,,59ae8d282a78fd00010b80e7,001,40,Male,British,Bachelors,2024-02-26_20h16.03.290,CRL1e,2023.2.3,MacIntel,33.33333333,65dbad3905fde4fe1981dc61,65dcf14b71b3c7f5f10a3005,,,,,,,,,,,409.702,0.8,410.5,410.5,410.967,left,1,0.459,,410.967,411.968,2,0,16,0,1,partial,1,images/Ex9.jpg,left,training,easy,7,,,,,
,,,,,59ae8d282a78fd00010b80e7,001,40,Male,British,Bachelors,2024-02-26_20h16.03.290,CRL1e,2023.2.3,MacIntel,33.33333333,65dbad3905fde4fe1981dc61,65dcf14b71b3c7f5f10a3005,,,,,,,,,,,411.969,1,412.967,412.967,413.501,right,1,0.525,,413.501,414.502,2,1,17,4,1,partial,1,images/Ex11.jpg,right,training,easy,7,,,,,
,,,,,59ae8d282a78fd00010b80e7,001,40,Male,British,Bachelors,2024-02-26_20h16.03.290,CRL1e,2023.2.3,MacIntel,33.33333333,65dbad3905fde4fe1981dc61,65dcf14b71b3c7f5f10a3005,,,,,,,,,,,414.502,1.4,415.902,415.902,416.319,right,0,0.406,,416.319,417.32,2,2,18,1,1,partial,1,images/Ex9.jpg,left,training,easy,7,,,,,
,,,,,59ae8d282a78fd00010b80e7,001,40,Male,British,Bachelors,2024-02-26_20h16.03.290,CRL1e,2023.2.3,MacIntel,33.33333333,65dbad3905fde4fe1981dc61,65dcf14b71b3c7f5f10a3005,,,,,,,,,,,417.32,1.2,418.519,418.519,418.935,left,0,0.408,,418.935,419.935,2,3,19,5,1,partial,1,images/Ex11.jpg,right,training,easy,7,,,,,
,,,,,59ae8d282a78fd00010b80e7,001,40,Male,British,Bachelors,2024-02-26_20h16.03.290,CRL1e,2023.2.3,MacIntel,33.33333333,65dbad3905fde4fe1981dc61,65dcf14b71b3c7f5f10a3005,,,,,,,,,,,419.936,1.4,421.335,421.335,421.852,left,1,0.505,,421.852,422.852,2,4,20,2,1,partial,1,images/Ex10.jpg,left,training,easy,7,,,,,
,,,,,59ae8d282a78fd00010b80e7,001,40,Male,British,Bachelors,2024-02-26_20h16.03.290,CRL1e,2023.2.3,MacIntel,33.33333333,65dbad3905fde4fe1981dc61,65dcf14b71b3c7f5f10a3005,,,,,,,,,,,422.853,0.8,423.651,423.651,424.085,right,1,0.423,,424.085,425.085,2,5,21,6,1,partial,1,images/Ex12.jpg,right,training,easy,7,,,,,
,,,,,59ae8d282a78fd00010b80e7,001,40,Male,British,Bachelors,2024-02-26_20h16.03.290,CRL1e,2023.2.3,MacIntel,33.33333333,65dbad3905fde4fe1981dc61,65dcf14b71b3c7f5f10a3005,,,,,,,,,,,425.085,0.9,425.985,425.985,426.469,left,1,0.48,,426.469,427.468,2,6,22,3,1,partial,1,images/Ex10.jpg,left,training,easy,7,,,,,
,,,,,59ae8d282a78fd00010b80e7,001,40,Male,British,Bachelors,2024-02-26_20h16.03.290,CRL1e,2023.2.3,MacIntel,33.33333333,65dbad3905fde4fe1981dc61,65dcf14b71b3c7f5f10a3005,,,,,,,,,,,427.468,1.4,428.87,428.87,429.302,right,1,0.429,,429.302,430.303,2,7,23,7,1,partial,1,images/Ex12.jpg,right,training,easy,7,,,,,
,,,,,59ae8d282a78fd00010b80e7,001,40,Male,British,Bachelors,2024-02-26_20h16.03.290,CRL1e,2023.2.3,MacIntel,33.33333333,65dbad3905fde4fe1981dc61,65dcf14b71b3c7f5f10a3005,,,,,,,,,,,430.303,1.3,431.603,431.603,432.153,left,1,0.546,,432.153,433.153,3,0,24,0,1,partial,1,images/Ex9.jpg,left,training,easy,7,,,,,
,,,,,59ae8d282a78fd00010b80e7,001,40,Male,British,Bachelors,2024-02-26_20h16.03.290,CRL1e,2023.2.3,MacIntel,33.33333333,65dbad3905fde4fe1981dc61,65dcf14b71b3c7f5f10a3005,,,,,,,,,,,433.153,1.1,434.252,434.252,434.736,left,0,0.478,,434.736,435.737,3,1,25,5,1,partial,1,images/Ex11.jpg,right,training,easy,7,,,,,
,,,,,59ae8d282a78fd00010b80e7,001,40,Male,British,Bachelors,2024-02-26_20h16.03.290,CRL1e,2023.2.3,MacIntel,33.33333333,65dbad3905fde4fe1981dc61,65dcf14b71b3c7f5f10a3005,,,,,,,,,,,435.737,1.2,436.936,436.936,437.319,right,1,0.38,,437.319,438.32,3,2,26,4,1,partial,1,images/Ex11.jpg,right,training,easy,7,,,,,
,,,,,59ae8d282a78fd00010b80e7,001,40,Male,British,Bachelors,2024-02-26_20h16.03.290,CRL1e,2023.2.3,MacIntel,33.33333333,65dbad3905fde4fe1981dc61,65dcf14b71b3c7f5f10a3005,,,,,,,,,,,438.32,0.7,439.02,439.022,439.402,left,0,0.377,,439.402,440.404,3,3,27,7,1,partial,1,images/Ex12.jpg,right,training,easy,7,,,,,
,,,,,59ae8d282a78fd00010b80e7,001,40,Male,British,Bachelors,2024-02-26_20h16.03.290,CRL1e,2023.2.3,MacIntel,33.33333333,65dbad3905fde4fe1981dc61,65dcf14b71b3c7f5f10a3005,,,,,,,,,,,440.404,0.9,441.303,441.303,441.836,left,1,0.525,,441.836,442.837,3,4,28,1,1,partial,1,images/Ex9.jpg,left,training,easy,7,,,,,
,,,,,59ae8d282a78fd00010b80e7,001,40,Male,British,Bachelors,2024-02-26_20h16.03.290,CRL1e,2023.2.3,MacIntel,33.33333333,65dbad3905fde4fe1981dc61,65dcf14b71b3c7f5f10a3005,,,,,,,,,,,442.837,1.3,444.136,444.136,444.752,left,1,0.607,,444.753,445.753,3,5,29,2,1,partial,1,images/Ex10.jpg,left,training,easy,7,,,,,
,,,,,59ae8d282a78fd00010b80e7,001,40,Male,British,Bachelors,2024-02-26_20h16.03.290,CRL1e,2023.2.3,MacIntel,33.33333333,65dbad3905fde4fe1981dc61,65dcf14b71b3c7f5f10a3005,,,,,,,,,,,445.754,1,446.754,446.754,447.17,left,0,0.409,,447.17,448.171,3,6,30,6,1,partial,1,images/Ex12.jpg,right,training,easy,7,,,,,
,,,,,59ae8d282a78fd00010b80e7,001,40,Male,British,Bachelors,2024-02-26_20h16.03.290,CRL1e,2023.2.3,MacIntel,33.33333333,65dbad3905fde4fe1981dc61,65dcf14b71b3c7f5f10a3005,,,,,,,,,,,448.171,1.2,449.37,449.37,449.887,left,1,0.505,,449.887,450.886,3,7,31,3,1,partial,1,images/Ex10.jpg,left,training,easy,7,,,,,
,,,,,59ae8d282a78fd00010b80e7,001,40,Male,British,Bachelors,2024-02-26_20h16.03.290,CRL1e,2023.2.3,MacIntel,33.33333333,65dbad3905fde4fe1981dc61,65dcf14b71b3c7f5f10a3005,,,,,,,,,,,450.887,1.4,452.287,452.287,452.653,right,1,0.357,,452.653,453.654,4,0,32,7,1,partial,1,images/Ex12.jpg,right,training,easy,7,,,,,
,,,,,59ae8d282a78fd00010b80e7,001,40,Male,British,Bachelors,2024-02-26_20h16.03.290,CRL1e,2023.2.3,MacIntel,33.33333333,65dbad3905fde4fe1981dc61,65dcf14b71b3c7f5f10a3005,,,,,,,,,,,453.655,0.7,454.354,454.354,454.821,left,1,0.457,,454.821,455.821,4,1,33,3,1,partial,1,images/Ex10.jpg,left,training,easy,7,,,,,
,,,,,59ae8d282a78fd00010b80e7,001,40,Male,British,Bachelors,2024-02-26_20h16.03.290,CRL1e,2023.2.3,MacIntel,33.33333333,65dbad3905fde4fe1981dc61,65dcf14b71b3c7f5f10a3005,,,,,,,,,,,455.821,1.2,457.021,457.021,457.421,right,0,0.39,,457.422,458.42,4,2,34,1,1,partial,1,images/Ex9.jpg,left,training,easy,7,,,,,
,,,,,59ae8d282a78fd00010b80e7,001,40,Male,British,Bachelors,2024-02-26_20h16.03.290,CRL1e,2023.2.3,MacIntel,33.33333333,65dbad3905fde4fe1981dc61,65dcf14b71b3c7f5f10a3005,,,,,,,,,,,458.421,1.1,459.52,459.52,460.121,right,1,0.59,,460.121,461.12,4,3,35,4,1,partial,1,images/Ex11.jpg,right,training,easy,7,,,,,
,,,,,59ae8d282a78fd00010b80e7,001,40,Male,British,Bachelors,2024-02-26_20h16.03.290,CRL1e,2023.2.3,MacIntel,33.33333333,65dbad3905fde4fe1981dc61,65dcf14b71b3c7f5f10a3005,,,,,,,,,,,461.121,0.9,462.021,462.022,462.471,left,1,0.442,,462.471,463.471,4,4,36,2,1,partial,1,images/Ex10.jpg,left,training,easy,7,,,,,
,,,,,59ae8d282a78fd00010b80e7,001,40,Male,British,Bachelors,2024-02-26_20h16.03.290,CRL1e,2023.2.3,MacIntel,33.33333333,65dbad3905fde4fe1981dc61,65dcf14b71b3c7f5f10a3005,,,,,,,,,,,463.471,1,464.472,464.472,465.055,left,1,0.573,,465.055,466.055,4,5,37,0,1,partial,1,images/Ex9.jpg,left,training,easy,7,,,,,
,,,,,59ae8d282a78fd00010b80e7,001,40,Male,British,Bachelors,2024-02-26_20h16.03.290,CRL1e,2023.2.3,MacIntel,33.33333333,65dbad3905fde4fe1981dc61,65dcf14b71b3c7f5f10a3005,,,,,,,,,,,466.055,1.4,467.457,467.457,467.888,left,0,0.426,,467.888,468.889,4,6,38,6,1,partial,1,images/Ex12.jpg,right,training,easy,7,,,,,
,,,,,59ae8d282a78fd00010b80e7,001,40,Male,British,Bachelors,2024-02-26_20h16.03.290,CRL1e,2023.2.3,MacIntel,33.33333333,65dbad3905fde4fe1981dc61,65dcf14b71b3c7f5f10a3005,,,,,,,,,,,468.889,1,469.888,469.888,470.338,right,1,0.441,,470.338,471.338,4,7,39,5,1,partial,1,images/Ex11.jpg,right,training,easy,7,,,,,
,,,,,59ae8d282a78fd00010b80e7,001,40,Male,British,Bachelors,2024-02-26_20h16.03.290,CRL1e,2023.2.3,MacIntel,33.33333333,65dbad3905fde4fe1981dc61,65dcf14b71b3c7f5f10a3005,,,,,,,,,,,471.338,0.8,472.139,472.139,472.488,left,1,0.348,,472.488,473.489,5,0,40,1,1,partial,1,images/Ex9.jpg,left,training,easy,7,,,,,
,,,,,59ae8d282a78fd00010b80e7,001,40,Male,British,Bachelors,2024-02-26_20h16.03.290,CRL1e,2023.2.3,MacIntel,33.33333333,65dbad3905fde4fe1981dc61,65dcf14b71b3c7f5f10a3005,,,,,,,,,,,473.489,1,474.489,474.489,474.988,right,1,0.491,,474.988,475.989,5,1,41,7,1,partial,1,images/Ex12.jpg,right,training,easy,7,,,,,
,,,,,59ae8d282a78fd00010b80e7,001,40,Male,British,Bachelors,2024-02-26_20h16.03.290,CRL1e,2023.2.3,MacIntel,33.33333333,65dbad3905fde4fe1981dc61,65dcf14b71b3c7f5f10a3005,,,,,,,,,,,475.989,0.7,476.689,476.689,477.189,right,1,0.492,,477.189,478.189,5,2,42,5,1,partial,1,images/Ex11.jpg,right,training,easy,7,,,,,
,,,,,59ae8d282a78fd00010b80e7,001,40,Male,British,Bachelors,2024-02-26_20h16.03.290,CRL1e,2023.2.3,MacIntel,33.33333333,65dbad3905fde4fe1981dc61,65dcf14b71b3c7f5f10a3005,,,,,,,,,,,478.19,1.2,479.39,479.39,479.788,left,1,0.395,,479.788,480.79,5,3,43,3,1,partial,1,images/Ex10.jpg,left,training,easy,7,,,,,
,,,,,59ae8d282a78fd00010b80e7,001,40,Male,British,Bachelors,2024-02-26_20h16.03.290,CRL1e,2023.2.3,MacIntel,33.33333333,65dbad3905fde4fe1981dc61,65dcf14b71b3c7f5f10a3005,,,,,,,,,,,480.79,0.8,481.59,481.59,481.988,left,1,0.394,,481.989,482.99,5,4,44,2,1,partial,1,images/Ex10.jpg,left,training,easy,7,,,,,
,,,,,59ae8d282a78fd00010b80e7,001,40,Male,British,Bachelors,2024-02-26_20h16.03.290,CRL1e,2023.2.3,MacIntel,33.33333333,65dbad3905fde4fe1981dc61,65dcf14b71b3c7f5f10a3005,,,,,,,,,,,482.991,0.9,483.89,483.89,484.456,right,0,0.557,,484.456,485.456,5,5,45,0,1,partial,1,images/Ex9.jpg,left,training,easy,7,,,,,
,,,,,59ae8d282a78fd00010b80e7,001,40,Male,British,Bachelors,2024-02-26_20h16.03.290,CRL1e,2023.2.3,MacIntel,33.33333333,65dbad3905fde4fe1981dc61,65dcf14b71b3c7f5f10a3005,,,,,,,,,,,485.456,0.9,486.357,486.357,486.839,left,0,0.478,,486.839,487.84,5,6,46,6,1,partial,1,images/Ex12.jpg,right,training,easy,7,,,,,
,,,,,59ae8d282a78fd00010b80e7,001,40,Male,British,Bachelors,2024-02-26_20h16.03.290,CRL1e,2023.2.3,MacIntel,33.33333333,65dbad3905fde4fe1981dc61,65dcf14b71b3c7f5f10a3005,,,,,,,,,,,487.84,0.6,488.44,488.44,488.94,right,1,0.488,,488.94,489.94,5,7,47,4,1,partial,1,images/Ex11.jpg,right,training,easy,7,,,,,
,,,,,59ae8d282a78fd00010b80e7,001,40,Male,British,Bachelors,2024-02-26_20h16.03.290,CRL1e,2023.2.3,MacIntel,33.33333333,65dbad3905fde4fe1981dc61,65dcf14b71b3c7f5f10a3005,,,,,,,,,,,489.945,1,490.94,490.94,491.306,right,1,0.364,,491.306,492.307,0,0,0,5,1,partial,2,images/Ex11.jpg,right,nonreversed,easy,7,,,,,
,,,,,59ae8d282a78fd00010b80e7,001,40,Male,British,Bachelors,2024-02-26_20h16.03.290,CRL1e,2023.2.3,MacIntel,33.33333333,65dbad3905fde4fe1981dc61,65dcf14b71b3c7f5f10a3005,,,,,,,,,,,492.307,0.5,492.806,492.806,493.289,right,0,0.477,,493.289,494.289,0,1,1,7,1,partial,2,images/Ex12.jpg,left,reversed,easy,7,,,,,
,,,,,59ae8d282a78fd00010b80e7,001,40,Male,British,Bachelors,2024-02-26_20h16.03.290,CRL1e,2023.2.3,MacIntel,33.33333333,65dbad3905fde4fe1981dc61,65dcf14b71b3c7f5f10a3005,,,,,,,,,,,494.29,0.8,495.09,495.09,495.69,right,1,0.589,,495.691,496.69,0,2,2,3,1,partial,2,images/Ex10.jpg,right,reversed,easy,7,,,,,
,,,,,59ae8d282a78fd00010b80e7,001,40,Male,British,Bachelors,2024-02-26_20h16.03.290,CRL1e,2023.2.3,MacIntel,33.33333333,65dbad3905fde4fe1981dc61,65dcf14b71b3c7f5f10a3005,,,,,,,,,,,496.69,0.9,497.59,497.59,498.057,left,1,0.463,,498.057,499.058,0,3,3,6,1,partial,2,images/Ex12.jpg,left,reversed,easy,7,,,,,
,,,,,59ae8d282a78fd00010b80e7,001,40,Male,British,Bachelors,2024-02-26_20h16.03.290,CRL1e,2023.2.3,MacIntel,33.33333333,65dbad3905fde4fe1981dc61,65dcf14b71b3c7f5f10a3005,,,,,,,,,,,499.058,0.5,499.557,499.557,500.091,right,0,0.525,,500.091,501.09,0,4,4,0,1,partial,2,images/Ex9.jpg,left,nonreversed,easy,7,,,,,
,,,,,59ae8d282a78fd00010b80e7,001,40,Male,British,Bachelors,2024-02-26_20h16.03.290,CRL1e,2023.2.3,MacIntel,33.33333333,65dbad3905fde4fe1981dc61,65dcf14b71b3c7f5f10a3005,,,,,,,,,,,501.09,1.3,502.39,502.39,502.857,right,0,0.465,,502.857,503.858,0,5,5,1,1,partial,2,images/Ex9.jpg,left,nonreversed,easy,7,,,,,
,,,,,59ae8d282a78fd00010b80e7,001,40,Male,British,Bachelors,2024-02-26_20h16.03.290,CRL1e,2023.2.3,MacIntel,33.33333333,65dbad3905fde4fe1981dc61,65dcf14b71b3c7f5f10a3005,,,,,,,,,,,503.858,0.7,504.558,504.558,505.141,left,0,0.575,,505.141,506.141,0,6,6,4,1,partial,2,images/Ex11.jpg,right,nonreversed,easy,7,,,,,
,,,,,59ae8d282a78fd00010b80e7,001,40,Male,British,Bachelors,2024-02-26_20h16.03.290,CRL1e,2023.2.3,MacIntel,33.33333333,65dbad3905fde4fe1981dc61,65dcf14b71b3c7f5f10a3005,,,,,,,,,,,506.141,0.5,506.641,506.641,507.174,left,0,0.521,,507.174,508.174,0,7,7,2,1,partial,2,images/Ex10.jpg,right,reversed,easy,7,,,,,
,,,,,59ae8d282a78fd00010b80e7,001,40,Male,British,Bachelors,2024-02-26_20h16.03.290,CRL1e,2023.2.3,MacIntel,33.33333333,65dbad3905fde4fe1981dc61,65dcf14b71b3c7f5f10a3005,,,,,,,,,,,508.175,1.4,509.574,509.574,509.874,right,1,0.291,,509.874,510.874,1,0,8,5,1,partial,2,images/Ex11.jpg,right,nonreversed,easy,7,,,,,
,,,,,59ae8d282a78fd00010b80e7,001,40,Male,British,Bachelors,2024-02-26_20h16.03.290,CRL1e,2023.2.3,MacIntel,33.33333333,65dbad3905fde4fe1981dc61,65dcf14b71b3c7f5f10a3005,,,,,,,,,,,510.874,1.1,511.974,511.974,512.491,left,0,0.505,,512.491,513.492,1,1,9,2,1,partial,2,images/Ex10.jpg,right,reversed,easy,7,,,,,
,,,,,59ae8d282a78fd00010b80e7,001,40,Male,British,Bachelors,2024-02-26_20h16.03.290,CRL1e,2023.2.3,MacIntel,33.33333333,65dbad3905fde4fe1981dc61,65dcf14b71b3c7f5f10a3005,,,,,,,,,,,513.492,1.1,514.591,514.591,514.991,right,1,0.393,,514.991,515.991,1,2,10,3,1,partial,2,images/Ex10.jpg,right,reversed,easy,7,,,,,
,,,,,59ae8d282a78fd00010b80e7,001,40,Male,British,Bachelors,2024-02-26_20h16.03.290,CRL1e,2023.2.3,MacIntel,33.33333333,65dbad3905fde4fe1981dc61,65dcf14b71b3c7f5f10a3005,,,,,,,,,,,515.991,1.2,517.192,517.192,517.942,right,0,0.742,,517.942,518.942,1,3,11,0,1,partial,2,images/Ex9.jpg,left,nonreversed,easy,7,,,,,
,,,,,59ae8d282a78fd00010b80e7,001,40,Male,British,Bachelors,2024-02-26_20h16.03.290,CRL1e,2023.2.3,MacIntel,33.33333333,65dbad3905fde4fe1981dc61,65dcf14b71b3c7f5f10a3005,,,,,,,,,,,518.942,1.4,520.342,520.342,520.759,left,0,0.407,,520.759,521.759,1,4,12,4,1,partial,2,images/Ex11.jpg,right,nonreversed,easy,7,,,,,
,,,,,59ae8d282a78fd00010b80e7,001,40,Male,British,Bachelors,2024-02-26_20h16.03.290,CRL1e,2023.2.3,MacIntel,33.33333333,65dbad3905fde4fe1981dc61,65dcf14b71b3c7f5f10a3005,,,,,,,,,,,521.759,1.4,523.159,523.159,523.659,right,0,0.492,,523.659,524.658,1,5,13,6,1,partial,2,images/Ex12.jpg,left,reversed,easy,7,,,,,
,,,,,59ae8d282a78fd00010b80e7,001,40,Male,British,Bachelors,2024-02-26_20h16.03.290,CRL1e,2023.2.3,MacIntel,33.33333333,65dbad3905fde4fe1981dc61,65dcf14b71b3c7f5f10a3005,,,,,,,,,,,524.659,1.3,525.958,525.958,526.426,left,1,0.459,,526.426,527.426,1,6,14,7,1,partial,2,images/Ex12.jpg,left,reversed,easy,7,,,,,
,,,,,59ae8d282a78fd00010b80e7,001,40,Male,British,Bachelors,2024-02-26_20h16.03.290,CRL1e,2023.2.3,MacIntel,33.33333333,65dbad3905fde4fe1981dc61,65dcf14b71b3c7f5f10a3005,,,,,,,,,,,527.426,1.3,528.726,528.726,529.142,left,1,0.411,,529.143,530.148,1,7,15,1,1,partial,2,images/Ex9.jpg,left,nonreversed,easy,7,,,,,
,,,,,59ae8d282a78fd00010b80e7,001,40,Male,British,Bachelors,2024-02-26_20h16.03.290,CRL1e,2023.2.3,MacIntel,33.33333333,65dbad3905fde4fe1981dc61,65dcf14b71b3c7f5f10a3005,,,,,,,,,,,530.148,0.9,531.043,531.043,531.493,left,1,0.44,,531.493,532.492,2,0,16,1,1,partial,2,images/Ex9.jpg,left,nonreversed,easy,7,,,,,
,,,,,59ae8d282a78fd00010b80e7,001,40,Male,British,Bachelors,2024-02-26_20h16.03.290,CRL1e,2023.2.3,MacIntel,33.33333333,65dbad3905fde4fe1981dc61,65dcf14b71b3c7f5f10a3005,,,,,,,,,,,532.492,0.5,532.993,532.993,533.61,right,0,0.605,,533.61,534.61,2,1,17,7,1,partial,2,images/Ex12.jpg,left,reversed,easy,7,,,,,
,,,,,59ae8d282a78fd00010b80e7,001,40,Male,British,Bachelors,2024-02-26_20h16.03.290,CRL1e,2023.2.3,MacIntel,33.33333333,65dbad3905fde4fe1981dc61,65dcf14b71b3c7f5f10a3005,,,,,,,,,,,534.61,1.3,535.909,535.909,536.293,left,1,0.378,,536.293,537.293,2,2,18,0,1,partial,2,images/Ex9.jpg,left,nonreversed,easy,7,,,,,
,,,,,59ae8d282a78fd00010b80e7,001,40,Male,British,Bachelors,2024-02-26_20h16.03.290,CRL1e,2023.2.3,MacIntel,33.33333333,65dbad3905fde4fe1981dc61,65dcf14b71b3c7f5f10a3005,,,,,,,,,,,537.293,1.1,538.393,538.393,538.827,left,0,0.424,,538.827,539.827,2,3,19,4,1,partial,2,images/Ex11.jpg,right,nonreversed,easy,7,,,,,
,,,,,59ae8d282a78fd00010b80e7,001,40,Male,British,Bachelors,2024-02-26_20h16.03.290,CRL1e,2023.2.3,MacIntel,33.33333333,65dbad3905fde4fe1981dc61,65dcf14b71b3c7f5f10a3005,,,,,,,,,,,539.827,1.1,540.927,540.927,541.41,left,1,0.473,,541.41,542.41,2,4,20,6,1,partial,2,images/Ex12.jpg,left,reversed,easy,7,,,,,
,,,,,59ae8d282a78fd00010b80e7,001,40,Male,British,Bachelors,2024-02-26_20h16.03.290,CRL1e,2023.2.3,MacIntel,33.33333333,65dbad3905fde4fe1981dc61,65dcf14b71b3c7f5f10a3005,,,,,,,,,,,542.41,0.7,543.109,543.109,543.71,left,0,0.591,,543.71,544.71,2,5,21,2,1,partial,2,images/Ex10.jpg,right,reversed,easy,7,,,,,
,,,,,59ae8d282a78fd00010b80e7,001,40,Male,British,Bachelors,2024-02-26_20h16.03.290,CRL1e,2023.2.3,MacIntel,33.33333333,65dbad3905fde4fe1981dc61,65dcf14b71b3c7f5f10a3005,,,,,,,,,,,544.711,0.5,545.21,545.21,545.826,right,1,0.605,,545.826,546.827,2,6,22,3,1,partial,2,images/Ex10.jpg,right,reversed,easy,7,,,,,
,,,,,59ae8d282a78fd00010b80e7,001,40,Male,British,Bachelors,2024-02-26_20h16.03.290,CRL1e,2023.2.3,MacIntel,33.33333333,65dbad3905fde4fe1981dc61,65dcf14b71b3c7f5f10a3005,,,,,,,,,,,546.827,1.5,548.328,548.328,548.827,right,1,0.492,,548.827,549.827,2,7,23,5,1,partial,2,images/Ex11.jpg,right,nonreversed,easy,7,,,,,
,,,,,59ae8d282a78fd00010b80e7,001,40,Male,British,Bachelors,2024-02-26_20h16.03.290,CRL1e,2023.2.3,MacIntel,33.33333333,65dbad3905fde4fe1981dc61,65dcf14b71b3c7f5f10a3005,,,,,,,,,,,549.828,1.4,551.228,551.228,551.677,right,1,0.448,,551.677,552.676,3,0,24,5,1,partial,2,images/Ex11.jpg,right,nonreversed,easy,7,,,,,
,,,,,59ae8d282a78fd00010b80e7,001,40,Male,British,Bachelors,2024-02-26_20h16.03.290,CRL1e,2023.2.3,MacIntel,33.33333333,65dbad3905fde4fe1981dc61,65dcf14b71b3c7f5f10a3005,,,,,,,,,,,552.677,0.7,553.378,553.378,553.895,left,1,0.511,,553.895,554.893,3,1,25,0,1,partial,2,images/Ex9.jpg,left,nonreversed,easy,7,,,,,
,,,,,59ae8d282a78fd00010b80e7,001,40,Male,British,Bachelors,2024-02-26_20h16.03.290,CRL1e,2023.2.3,MacIntel,33.33333333,65dbad3905fde4fe1981dc61,65dcf14b71b3c7f5f10a3005,,,,,,,,,,,554.894,1.4,556.295,556.295,556.76,left,1,0.463,,556.76,557.761,3,2,26,1,1,partial,2,images/Ex9.jpg,left,nonreversed,easy,7,,,,,
,,,,,59ae8d282a78fd00010b80e7,001,40,Male,British,Bachelors,2024-02-26_20h16.03.290,CRL1e,2023.2.3,MacIntel,33.33333333,65dbad3905fde4fe1981dc61,65dcf14b71b3c7f5f10a3005,,,,,,,,,,,557.761,0.8,558.561,558.561,559.061,left,0,0.489,,559.061,560.061,3,3,27,2,1,partial,2,images/Ex10.jpg,right,reversed,easy,7,,,,,
,,,,,59ae8d282a78fd00010b80e7,001,40,Male,British,Bachelors,2024-02-26_20h16.03.290,CRL1e,2023.2.3,MacIntel,33.33333333,65dbad3905fde4fe1981dc61,65dcf14b71b3c7f5f10a3005,,,,,,,,,,,560.062,0.6,560.661,560.663,561.061,right,1,0.389,,561.061,562.062,3,4,28,3,1,partial,2,images/Ex10.jpg,right,reversed,easy,7,,,,,
,,,,,59ae8d282a78fd00010b80e7,001,40,Male,British,Bachelors,2024-02-26_20h16.03.290,CRL1e,2023.2.3,MacIntel,33.33333333,65dbad3905fde4fe1981dc61,65dcf14b71b3c7f5f10a3005,,,,,,,,,,,562.062,0.7,562.761,562.761,563.228,right,0,0.458,,563.228,564.228,3,5,29,7,1,partial,2,images/Ex12.jpg,left,reversed,easy,7,,,,,
,,,,,59ae8d282a78fd00010b80e7,001,40,Male,British,Bachelors,2024-02-26_20h16.03.290,CRL1e,2023.2.3,MacIntel,33.33333333,65dbad3905fde4fe1981dc61,65dcf14b71b3c7f5f10a3005,,,,,,,,,,,564.228,0.8,565.029,565.029,565.578,right,1,0.538,,565.578,566.579,3,6,30,4,1,partial,2,images/Ex11.jpg,right,nonreversed,easy,7,,,,,
,,,,,59ae8d282a78fd00010b80e7,001,40,Male,British,Bachelors,2024-02-26_20h16.03.290,CRL1e,2023.2.3,MacIntel,33.33333333,65dbad3905fde4fe1981dc61,65dcf14b71b3c7f5f10a3005,,,,,,,,,,,566.579,0.8,567.378,567.379,567.978,left,1,0.591,,567.978,568.978,3,7,31,6,1,partial,2,images/Ex12.jpg,left,reversed,easy,7,,,,,
,,,,,59ae8d282a78fd00010b80e7,001,40,Male,British,Bachelors,2024-02-26_20h16.03.290,CRL1e,2023.2.3,MacIntel,33.33333333,65dbad3905fde4fe1981dc61,65dcf14b71b3c7f5f10a3005,,,,,,,,,,,568.978,1.3,570.279,570.279,570.761,left,0,0.475,,570.761,571.762,4,0,32,3,1,partial,2,images/Ex10.jpg,right,reversed,easy,7,,,,,
,,,,,59ae8d282a78fd00010b80e7,001,40,Male,British,Bachelors,2024-02-26_20h16.03.290,CRL1e,2023.2.3,MacIntel,33.33333333,65dbad3905fde4fe1981dc61,65dcf14b71b3c7f5f10a3005,,,,,,,,,,,571.763,0.6,572.362,572.362,572.879,left,1,0.515,,572.879,573.879,4,1,33,1,1,partial,2,images/Ex9.jpg,left,nonreversed,easy,7,,,,,
,,,,,59ae8d282a78fd00010b80e7,001,40,Male,British,Bachelors,2024-02-26_20h16.03.290,CRL1e,2023.2.3,MacIntel,33.33333333,65dbad3905fde4fe1981dc61,65dcf14b71b3c7f5f10a3005,,,,,,,,,,,573.879,1.1,574.979,574.979,575.629,right,0,0.643,,575.629,576.629,4,2,34,7,1,partial,2,images/Ex12.jpg,left,reversed,easy,7,,,,,
,,,,,59ae8d282a78fd00010b80e7,001,40,Male,British,Bachelors,2024-02-26_20h16.03.290,CRL1e,2023.2.3,MacIntel,33.33333333,65dbad3905fde4fe1981dc61,65dcf14b71b3c7f5f10a3005,,,,,,,,,,,576.63,0.5,577.129,577.129,577.662,right,1,0.526,,577.663,578.662,4,3,35,5,1,partial,2,images/Ex11.jpg,right,nonreversed,easy,7,,,,,
,,,,,59ae8d282a78fd00010b80e7,001,40,Male,British,Bachelors,2024-02-26_20h16.03.290,CRL1e,2023.2.3,MacIntel,33.33333333,65dbad3905fde4fe1981dc61,65dcf14b71b3c7f5f10a3005,,,,,,,,,,,578.662,0.8,579.463,579.463,580.078,right,1,0.607,,580.078,581.08,4,4,36,4,1,partial,2,images/Ex11.jpg,right,nonreversed,easy,7,,,,,
,,,,,59ae8d282a78fd00010b80e7,001,40,Male,British,Bachelors,2024-02-26_20h16.03.290,CRL1e,2023.2.3,MacIntel,33.33333333,65dbad3905fde4fe1981dc61,65dcf14b71b3c7f5f10a3005,,,,,,,,,,,581.08,0.9,581.979,581.979,582.479,right,0,0.492,,582.479,583.48,4,5,37,6,1,partial,2,images/Ex12.jpg,left,reversed,easy,7,,,,,
,,,,,59ae8d282a78fd00010b80e7,001,40,Male,British,Bachelors,2024-02-26_20h16.03.290,CRL1e,2023.2.3,MacIntel,33.33333333,65dbad3905fde4fe1981dc61,65dcf14b71b3c7f5f10a3005,,,,,,,,,,,583.48,0.9,584.38,584.38,585.03,right,1,0.64,,585.03,586.03,4,6,38,2,1,partial,2,images/Ex10.jpg,right,reversed,easy,7,,,,,
,,,,,59ae8d282a78fd00010b80e7,001,40,Male,British,Bachelors,2024-02-26_20h16.03.290,CRL1e,2023.2.3,MacIntel,33.33333333,65dbad3905fde4fe1981dc61,65dcf14b71b3c7f5f10a3005,,,,,,,,,,,586.03,0.7,586.73,586.73,587.279,left,1,0.548,,587.279,588.28,4,7,39,0,1,partial,2,images/Ex9.jpg,left,nonreversed,easy,7,,,,,
,,,,,59ae8d282a78fd00010b80e7,001,40,Male,British,Bachelors,2024-02-26_20h16.03.290,CRL1e,2023.2.3,MacIntel,33.33333333,65dbad3905fde4fe1981dc61,65dcf14b71b3c7f5f10a3005,,,,,,,,,,,588.28,0.9,589.179,589.179,589.63,left,1,0.446,,589.63,590.63,5,0,40,0,1,partial,2,images/Ex9.jpg,left,nonreversed,easy,7,,,,,
,,,,,59ae8d282a78fd00010b80e7,001,40,Male,British,Bachelors,2024-02-26_20h16.03.290,CRL1e,2023.2.3,MacIntel,33.33333333,65dbad3905fde4fe1981dc61,65dcf14b71b3c7f5f10a3005,,,,,,,,,,,590.631,0.6,591.23,591.23,591.713,right,1,0.483,,591.713,592.713,5,1,41,4,1,partial,2,images/Ex11.jpg,right,nonreversed,easy,7,,,,,
,,,,,59ae8d282a78fd00010b80e7,001,40,Male,British,Bachelors,2024-02-26_20h16.03.290,CRL1e,2023.2.3,MacIntel,33.33333333,65dbad3905fde4fe1981dc61,65dcf14b71b3c7f5f10a3005,,,,,,,,,,,592.713,1,593.714,593.714,594.231,right,0,0.505,,594.231,595.229,5,2,42,6,1,partial,2,images/Ex12.jpg,left,reversed,easy,7,,,,,
,,,,,59ae8d282a78fd00010b80e7,001,40,Male,British,Bachelors,2024-02-26_20h16.03.290,CRL1e,2023.2.3,MacIntel,33.33333333,65dbad3905fde4fe1981dc61,65dcf14b71b3c7f5f10a3005,,,,,,,,,,,595.23,0.9,596.131,596.131,596.564,left,0,0.425,,596.564,597.563,5,3,43,5,1,partial,2,images/Ex11.jpg,right,nonreversed,easy,7,,,,,
,,,,,59ae8d282a78fd00010b80e7,001,40,Male,British,Bachelors,2024-02-26_20h16.03.290,CRL1e,2023.2.3,MacIntel,33.33333333,65dbad3905fde4fe1981dc61,65dcf14b71b3c7f5f10a3005,,,,,,,,,,,597.564,0.8,598.364,598.364,598.831,right,1,0.461,,598.831,599.83,5,4,44,2,1,partial,2,images/Ex10.jpg,right,reversed,easy,7,,,,,
,,,,,59ae8d282a78fd00010b80e7,001,40,Male,British,Bachelors,2024-02-26_20h16.03.290,CRL1e,2023.2.3,MacIntel,33.33333333,65dbad3905fde4fe1981dc61,65dcf14b71b3c7f5f10a3005,,,,,,,,,,,599.83,0.9,600.731,600.731,601.347,left,1,0.607,,601.347,602.348,5,5,45,1,1,partial,2,images/Ex9.jpg,left,nonreversed,easy,7,,,,,
,,,,,59ae8d282a78fd00010b80e7,001,40,Male,British,Bachelors,2024-02-26_20h16.03.290,CRL1e,2023.2.3,MacIntel,33.33333333,65dbad3905fde4fe1981dc61,65dcf14b71b3c7f5f10a3005,,,,,,,,,,,602.348,1.3,603.648,603.648,604.148,left,0,0.491,,604.148,605.147,5,6,46,3,1,partial,2,images/Ex10.jpg,right,reversed,easy,7,,,,,
,,,,,59ae8d282a78fd00010b80e7,001,40,Male,British,Bachelors,2024-02-26_20h16.03.290,CRL1e,2023.2.3,MacIntel,33.33333333,65dbad3905fde4fe1981dc61,65dcf14b71b3c7f5f10a3005,,,,,,,,,,,605.148,0.7,605.847,605.847,606.281,right,0,0.423,,606.281,607.28,5,7,47,7,1,partial,2,images/Ex12.jpg,left,reversed,easy,7,,,,,
,,,,,59ae8d282a78fd00010b80e7,001,40,Male,British,Bachelors,2024-02-26_20h16.03.290,CRL1e,2023.2.3,MacIntel,33.33333333,65dbad3905fde4fe1981dc61,65dcf14b71b3c7f5f10a3005,,,,,,,,,,,,,,,,,,,,,,,,,,,,,,,,,,607.281,645.768,space,38.456,