infCons.started,infCons.stopped,resp_consent.keys,resp_consent.rt,resp_consent.duration,participant,session,Age?,Gender?,Nationality?,Highest Educational Degree?,date,expName,psychopyVersion,OS,frameRate,STUDY_ID,SESSION_ID,instructions.started,instructions.stopped,resp_instructions.keys,resp_instructions.rt,resp_instructions.duration,nextTask.started,nextTask.stopped,ready_task.keys,ready_task.rt,ready_task.duration,fixation.started,ITI,fixation.stopped,stim.started,stim.stopped,response.keys,response.corr,response.rt,response.duration,feedback.started,feedback.stopped,trials.thisRepN,trials.thisTrialN,trials.thisN,trials.thisIndex,trials.ran,task,phase,Exemplars,r_correct,condition,difficulty,set,end.started,end.stopped,resp_end.keys,resp_end.rt,resp_end.duration
0,11.53,space,11.524,,59ccd702faf42e00012b68f5,001,28,Male,British,College,2024-02-26_16h20.08.399,CRL1e,2023.2.3,Win32,240.3846154,65dbad3905fde4fe1981dc61,65dcba48ca4804590ad253d3,,,,,,,,,,,,,,,,,,,,,,,,,,,,,,,,,,,,,,
,,,,,59ccd702faf42e00012b68f5,001,28,Male,British,College,2024-02-26_16h20.08.399,CRL1e,2023.2.3,Win32,240.3846154,65dbad3905fde4fe1981dc61,65dcba48ca4804590ad253d3,11.531,42.583,space,31.047,,,,,,,,,,,,,,,,,,,,,,,,,,,,,,,,,,
,,,,,59ccd702faf42e00012b68f5,001,28,Male,British,College,2024-02-26_16h20.08.399,CRL1e,2023.2.3,Win32,240.3846154,65dbad3905fde4fe1981dc61,65dcba48ca4804590ad253d3,,,,,,42.585,44.745,space,2.159,,44.749,0.8,45.55,45.55,48.008,right,0,2.451,,48.008,49.009,0,0,0,3,1,partial,1,images/Ex2.jpg,left,training,easy,3,,,,,
,,,,,59ccd702faf42e00012b68f5,001,28,Male,British,College,2024-02-26_16h20.08.399,CRL1e,2023.2.3,Win32,240.3846154,65dbad3905fde4fe1981dc61,65dcba48ca4804590ad253d3,,,,,,,,,,,49.009,1.5,50.508,50.508,52.042,left,1,1.532,,52.042,53.042,0,1,1,1,1,partial,1,images/Ex1.jpg,left,training,easy,3,,,,,
,,,,,59ccd702faf42e00012b68f5,001,28,Male,British,College,2024-02-26_16h20.08.399,CRL1e,2023.2.3,Win32,240.3846154,65dbad3905fde4fe1981dc61,65dcba48ca4804590ad253d3,,,,,,,,,,,53.042,0.8,53.842,53.842,54.567,right,1,0.721,,54.567,55.567,0,2,2,5,1,partial,1,images/Ex3.jpg,right,training,easy,3,,,,,
,,,,,59ccd702faf42e00012b68f5,001,28,Male,British,College,2024-02-26_16h20.08.399,CRL1e,2023.2.3,Win32,240.3846154,65dbad3905fde4fe1981dc61,65dcba48ca4804590ad253d3,,,,,,,,,,,55.568,1,56.568,56.568,58.001,left,0,1.429,,58.001,59.001,0,3,3,7,1,partial,1,images/Ex4.jpg,right,training,easy,3,,,,,
,,,,,59ccd702faf42e00012b68f5,001,28,Male,British,College,2024-02-26_16h20.08.399,CRL1e,2023.2.3,Win32,240.3846154,65dbad3905fde4fe1981dc61,65dcba48ca4804590ad253d3,,,,,,,,,,,59.001,1.4,60.402,60.402,61.58,right,1,1.175,,61.58,62.577,0,4,4,4,1,partial,1,images/Ex3.jpg,right,training,easy,3,,,,,
,,,,,59ccd702faf42e00012b68f5,001,28,Male,British,College,2024-02-26_16h20.08.399,CRL1e,2023.2.3,Win32,240.3846154,65dbad3905fde4fe1981dc61,65dcba48ca4804590ad253d3,,,,,,,,,,,62.577,1.3,63.876,63.876,65.047,right,1,1.167,,65.047,66.048,0,5,5,6,1,partial,1,images/Ex4.jpg,right,training,easy,3,,,,,
,,,,,59ccd702faf42e00012b68f5,001,28,Male,British,College,2024-02-26_16h20.08.399,CRL1e,2023.2.3,Win32,240.3846154,65dbad3905fde4fe1981dc61,65dcba48ca4804590ad253d3,,,,,,,,,,,66.048,0.9,66.947,66.948,68.315,right,0,1.364,,68.315,69.315,0,6,6,0,1,partial,1,images/Ex1.jpg,left,training,easy,3,,,,,
,,,,,59ccd702faf42e00012b68f5,001,28,Male,British,College,2024-02-26_16h20.08.399,CRL1e,2023.2.3,Win32,240.3846154,65dbad3905fde4fe1981dc61,65dcba48ca4804590ad253d3,,,,,,,,,,,69.315,1.3,70.614,70.614,72.273,left,1,1.654,,72.273,73.273,0,7,7,2,1,partial,1,images/Ex2.jpg,left,training,easy,3,,,,,
,,,,,59ccd702faf42e00012b68f5,001,28,Male,British,College,2024-02-26_16h20.08.399,CRL1e,2023.2.3,Win32,240.3846154,65dbad3905fde4fe1981dc61,65dcba48ca4804590ad253d3,,,,,,,,,,,73.274,1.2,74.474,74.474,75.294,right,1,0.817,,75.294,76.295,1,0,8,5,1,partial,1,images/Ex3.jpg,right,training,easy,3,,,,,
,,,,,59ccd702faf42e00012b68f5,001,28,Male,British,College,2024-02-26_16h20.08.399,CRL1e,2023.2.3,Win32,240.3846154,65dbad3905fde4fe1981dc61,65dcba48ca4804590ad253d3,,,,,,,,,,,76.295,1.3,77.594,77.594,78.753,left,1,1.156,,78.753,79.753,1,1,9,2,1,partial,1,images/Ex2.jpg,left,training,easy,3,,,,,
,,,,,59ccd702faf42e00012b68f5,001,28,Male,British,College,2024-02-26_16h20.08.399,CRL1e,2023.2.3,Win32,240.3846154,65dbad3905fde4fe1981dc61,65dcba48ca4804590ad253d3,,,,,,,,,,,79.753,1.2,80.953,80.953,81.703,left,1,0.745,,81.703,82.703,1,2,10,0,1,partial,1,images/Ex1.jpg,left,training,easy,3,,,,,
,,,,,59ccd702faf42e00012b68f5,001,28,Male,British,College,2024-02-26_16h20.08.399,CRL1e,2023.2.3,Win32,240.3846154,65dbad3905fde4fe1981dc61,65dcba48ca4804590ad253d3,,,,,,,,,,,82.704,0.8,83.504,83.504,84.104,right,1,0.599,,84.104,85.104,1,3,11,4,1,partial,1,images/Ex3.jpg,right,training,easy,3,,,,,
,,,,,59ccd702faf42e00012b68f5,001,28,Male,British,College,2024-02-26_16h20.08.399,CRL1e,2023.2.3,Win32,240.3846154,65dbad3905fde4fe1981dc61,65dcba48ca4804590ad253d3,,,,,,,,,,,85.104,0.9,86.003,86.003,86.578,right,1,0.571,,86.578,87.579,1,4,12,7,1,partial,1,images/Ex4.jpg,right,training,easy,3,,,,,
,,,,,59ccd702faf42e00012b68f5,001,28,Male,British,College,2024-02-26_16h20.08.399,CRL1e,2023.2.3,Win32,240.3846154,65dbad3905fde4fe1981dc61,65dcba48ca4804590ad253d3,,,,,,,,,,,87.579,1.2,88.778,88.778,89.612,left,1,0.832,,89.612,90.612,1,5,13,3,1,partial,1,images/Ex2.jpg,left,training,easy,3,,,,,
,,,,,59ccd702faf42e00012b68f5,001,28,Male,British,College,2024-02-26_16h20.08.399,CRL1e,2023.2.3,Win32,240.3846154,65dbad3905fde4fe1981dc61,65dcba48ca4804590ad253d3,,,,,,,,,,,90.612,1.1,91.712,91.712,93.596,right,1,1.881,,93.596,94.595,1,6,14,6,1,partial,1,images/Ex4.jpg,right,training,easy,3,,,,,
,,,,,59ccd702faf42e00012b68f5,001,28,Male,British,College,2024-02-26_16h20.08.399,CRL1e,2023.2.3,Win32,240.3846154,65dbad3905fde4fe1981dc61,65dcba48ca4804590ad253d3,,,,,,,,,,,94.596,1.5,96.096,96.096,96.717,left,1,0.62,,96.717,97.717,1,7,15,1,1,partial,1,images/Ex1.jpg,left,training,easy,3,,,,,
,,,,,59ccd702faf42e00012b68f5,001,28,Male,British,College,2024-02-26_16h20.08.399,CRL1e,2023.2.3,Win32,240.3846154,65dbad3905fde4fe1981dc61,65dcba48ca4804590ad253d3,,,,,,,,,,,97.717,1.4,99.117,99.117,99.764,right,1,0.644,,99.764,100.763,2,0,16,5,1,partial,1,images/Ex3.jpg,right,training,easy,3,,,,,
,,,,,59ccd702faf42e00012b68f5,001,28,Male,British,College,2024-02-26_16h20.08.399,CRL1e,2023.2.3,Win32,240.3846154,65dbad3905fde4fe1981dc61,65dcba48ca4804590ad253d3,,,,,,,,,,,100.765,1.4,102.163,102.163,103.076,left,1,0.909,,103.076,104.076,2,1,17,3,1,partial,1,images/Ex2.jpg,left,training,easy,3,,,,,
,,,,,59ccd702faf42e00012b68f5,001,28,Male,British,College,2024-02-26_16h20.08.399,CRL1e,2023.2.3,Win32,240.3846154,65dbad3905fde4fe1981dc61,65dcba48ca4804590ad253d3,,,,,,,,,,,104.076,0.8,104.876,104.877,105.405,left,1,0.527,,105.405,106.406,2,2,18,1,1,partial,1,images/Ex1.jpg,left,training,easy,3,,,,,
,,,,,59ccd702faf42e00012b68f5,001,28,Male,British,College,2024-02-26_16h20.08.399,CRL1e,2023.2.3,Win32,240.3846154,65dbad3905fde4fe1981dc61,65dcba48ca4804590ad253d3,,,,,,,,,,,106.406,0.9,107.305,107.305,107.939,right,1,0.629,,107.939,108.939,2,3,19,6,1,partial,1,images/Ex4.jpg,right,training,easy,3,,,,,
,,,,,59ccd702faf42e00012b68f5,001,28,Male,British,College,2024-02-26_16h20.08.399,CRL1e,2023.2.3,Win32,240.3846154,65dbad3905fde4fe1981dc61,65dcba48ca4804590ad253d3,,,,,,,,,,,108.94,1.3,110.239,110.239,110.889,right,1,0.649,,110.889,111.889,2,4,20,4,1,partial,1,images/Ex3.jpg,right,training,easy,3,,,,,
,,,,,59ccd702faf42e00012b68f5,001,28,Male,British,College,2024-02-26_16h20.08.399,CRL1e,2023.2.3,Win32,240.3846154,65dbad3905fde4fe1981dc61,65dcba48ca4804590ad253d3,,,,,,,,,,,111.889,0.6,112.489,112.489,112.998,right,1,0.505,,112.998,113.998,2,5,21,7,1,partial,1,images/Ex4.jpg,right,training,easy,3,,,,,
,,,,,59ccd702faf42e00012b68f5,001,28,Male,British,College,2024-02-26_16h20.08.399,CRL1e,2023.2.3,Win32,240.3846154,65dbad3905fde4fe1981dc61,65dcba48ca4804590ad253d3,,,,,,,,,,,113.999,1.2,115.198,115.198,115.753,left,1,0.554,,115.753,116.752,2,6,22,0,1,partial,1,images/Ex1.jpg,left,training,easy,3,,,,,
,,,,,59ccd702faf42e00012b68f5,001,28,Male,British,College,2024-02-26_16h20.08.399,CRL1e,2023.2.3,Win32,240.3846154,65dbad3905fde4fe1981dc61,65dcba48ca4804590ad253d3,,,,,,,,,,,116.752,0.9,117.653,117.653,118.294,left,1,0.637,,118.294,119.294,2,7,23,2,1,partial,1,images/Ex2.jpg,left,training,easy,3,,,,,
,,,,,59ccd702faf42e00012b68f5,001,28,Male,British,College,2024-02-26_16h20.08.399,CRL1e,2023.2.3,Win32,240.3846154,65dbad3905fde4fe1981dc61,65dcba48ca4804590ad253d3,,,,,,,,,,,119.294,0.7,119.994,119.994,120.544,right,1,0.547,,120.545,121.544,3,0,24,4,1,partial,1,images/Ex3.jpg,right,training,easy,3,,,,,
,,,,,59ccd702faf42e00012b68f5,001,28,Male,British,College,2024-02-26_16h20.08.399,CRL1e,2023.2.3,Win32,240.3846154,65dbad3905fde4fe1981dc61,65dcba48ca4804590ad253d3,,,,,,,,,,,121.545,0.9,122.444,122.444,123.024,left,1,0.575,,123.024,124.023,3,1,25,3,1,partial,1,images/Ex2.jpg,left,training,easy,3,,,,,
,,,,,59ccd702faf42e00012b68f5,001,28,Male,British,College,2024-02-26_16h20.08.399,CRL1e,2023.2.3,Win32,240.3846154,65dbad3905fde4fe1981dc61,65dcba48ca4804590ad253d3,,,,,,,,,,,124.024,0.9,124.924,124.924,125.383,right,1,0.454,,125.383,126.382,3,2,26,7,1,partial,1,images/Ex4.jpg,right,training,easy,3,,,,,
,,,,,59ccd702faf42e00012b68f5,001,28,Male,British,College,2024-02-26_16h20.08.399,CRL1e,2023.2.3,Win32,240.3846154,65dbad3905fde4fe1981dc61,65dcba48ca4804590ad253d3,,,,,,,,,,,126.382,0.5,126.882,126.882,127.37,right,1,0.484,,127.37,128.37,3,3,27,5,1,partial,1,images/Ex3.jpg,right,training,easy,3,,,,,
,,,,,59ccd702faf42e00012b68f5,001,28,Male,British,College,2024-02-26_16h20.08.399,CRL1e,2023.2.3,Win32,240.3846154,65dbad3905fde4fe1981dc61,65dcba48ca4804590ad253d3,,,,,,,,,,,128.371,0.7,129.07,129.07,129.578,left,1,0.507,,129.578,130.579,3,4,28,0,1,partial,1,images/Ex1.jpg,left,training,easy,3,,,,,
,,,,,59ccd702faf42e00012b68f5,001,28,Male,British,College,2024-02-26_16h20.08.399,CRL1e,2023.2.3,Win32,240.3846154,65dbad3905fde4fe1981dc61,65dcba48ca4804590ad253d3,,,,,,,,,,,130.579,0.7,131.279,131.279,131.741,right,1,0.459,,131.741,132.742,3,5,29,6,1,partial,1,images/Ex4.jpg,right,training,easy,3,,,,,
,,,,,59ccd702faf42e00012b68f5,001,28,Male,British,College,2024-02-26_16h20.08.399,CRL1e,2023.2.3,Win32,240.3846154,65dbad3905fde4fe1981dc61,65dcba48ca4804590ad253d3,,,,,,,,,,,132.742,1.2,133.942,133.942,134.446,left,1,0.501,,134.446,135.446,3,6,30,2,1,partial,1,images/Ex2.jpg,left,training,easy,3,,,,,
,,,,,59ccd702faf42e00012b68f5,001,28,Male,British,College,2024-02-26_16h20.08.399,CRL1e,2023.2.3,Win32,240.3846154,65dbad3905fde4fe1981dc61,65dcba48ca4804590ad253d3,,,,,,,,,,,135.447,0.8,136.245,136.245,136.712,left,1,0.464,,136.712,137.709,3,7,31,1,1,partial,1,images/Ex1.jpg,left,training,easy,3,,,,,
,,,,,59ccd702faf42e00012b68f5,001,28,Male,British,College,2024-02-26_16h20.08.399,CRL1e,2023.2.3,Win32,240.3846154,65dbad3905fde4fe1981dc61,65dcba48ca4804590ad253d3,,,,,,,,,,,137.709,1,138.709,138.709,139.176,right,1,0.463,,139.176,140.175,4,0,32,7,1,partial,1,images/Ex4.jpg,right,training,easy,3,,,,,
,,,,,59ccd702faf42e00012b68f5,001,28,Male,British,College,2024-02-26_16h20.08.399,CRL1e,2023.2.3,Win32,240.3846154,65dbad3905fde4fe1981dc61,65dcba48ca4804590ad253d3,,,,,,,,,,,140.175,1.2,141.372,141.372,141.955,right,0,0.581,,141.955,142.955,4,1,33,3,1,partial,1,images/Ex2.jpg,left,training,easy,3,,,,,
,,,,,59ccd702faf42e00012b68f5,001,28,Male,British,College,2024-02-26_16h20.08.399,CRL1e,2023.2.3,Win32,240.3846154,65dbad3905fde4fe1981dc61,65dcba48ca4804590ad253d3,,,,,,,,,,,142.955,0.8,143.755,143.755,144.367,right,1,0.611,,144.367,145.367,4,2,34,5,1,partial,1,images/Ex3.jpg,right,training,easy,3,,,,,
,,,,,59ccd702faf42e00012b68f5,001,28,Male,British,College,2024-02-26_16h20.08.399,CRL1e,2023.2.3,Win32,240.3846154,65dbad3905fde4fe1981dc61,65dcba48ca4804590ad253d3,,,,,,,,,,,145.368,1.3,146.668,146.668,147.213,right,1,0.544,,147.213,148.213,4,3,35,4,1,partial,1,images/Ex3.jpg,right,training,easy,3,,,,,
,,,,,59ccd702faf42e00012b68f5,001,28,Male,British,College,2024-02-26_16h20.08.399,CRL1e,2023.2.3,Win32,240.3846154,65dbad3905fde4fe1981dc61,65dcba48ca4804590ad253d3,,,,,,,,,,,148.214,1.5,149.714,149.714,150.476,left,1,0.759,,150.476,151.473,4,4,36,1,1,partial,1,images/Ex1.jpg,left,training,easy,3,,,,,
,,,,,59ccd702faf42e00012b68f5,001,28,Male,British,College,2024-02-26_16h20.08.399,CRL1e,2023.2.3,Win32,240.3846154,65dbad3905fde4fe1981dc61,65dcba48ca4804590ad253d3,,,,,,,,,,,151.473,0.6,152.073,152.073,152.71,left,1,0.633,,152.71,153.71,4,5,37,2,1,partial,1,images/Ex2.jpg,left,training,easy,3,,,,,
,,,,,59ccd702faf42e00012b68f5,001,28,Male,British,College,2024-02-26_16h20.08.399,CRL1e,2023.2.3,Win32,240.3846154,65dbad3905fde4fe1981dc61,65dcba48ca4804590ad253d3,,,,,,,,,,,153.71,1.3,155.01,155.01,155.569,right,1,0.557,,155.569,156.568,4,6,38,6,1,partial,1,images/Ex4.jpg,right,training,easy,3,,,,,
,,,,,59ccd702faf42e00012b68f5,001,28,Male,British,College,2024-02-26_16h20.08.399,CRL1e,2023.2.3,Win32,240.3846154,65dbad3905fde4fe1981dc61,65dcba48ca4804590ad253d3,,,,,,,,,,,156.568,1,157.569,157.569,158.102,left,1,0.528,,158.102,159.102,4,7,39,0,1,partial,1,images/Ex1.jpg,left,training,easy,3,,,,,
,,,,,59ccd702faf42e00012b68f5,001,28,Male,British,College,2024-02-26_16h20.08.399,CRL1e,2023.2.3,Win32,240.3846154,65dbad3905fde4fe1981dc61,65dcba48ca4804590ad253d3,,,,,,,,,,,159.102,1.5,160.602,160.602,161.173,right,1,0.566,,161.173,162.173,5,0,40,4,1,partial,1,images/Ex3.jpg,right,training,easy,3,,,,,
,,,,,59ccd702faf42e00012b68f5,001,28,Male,British,College,2024-02-26_16h20.08.399,CRL1e,2023.2.3,Win32,240.3846154,65dbad3905fde4fe1981dc61,65dcba48ca4804590ad253d3,,,,,,,,,,,162.174,0.6,162.773,162.773,163.327,left,1,0.552,,163.327,164.327,5,1,41,2,1,partial,1,images/Ex2.jpg,left,training,easy,3,,,,,
,,,,,59ccd702faf42e00012b68f5,001,28,Male,British,College,2024-02-26_16h20.08.399,CRL1e,2023.2.3,Win32,240.3846154,65dbad3905fde4fe1981dc61,65dcba48ca4804590ad253d3,,,,,,,,,,,164.328,0.8,165.128,165.128,165.991,left,1,0.858,,165.991,166.991,5,2,42,1,1,partial,1,images/Ex1.jpg,left,training,easy,3,,,,,
,,,,,59ccd702faf42e00012b68f5,001,28,Male,British,College,2024-02-26_16h20.08.399,CRL1e,2023.2.3,Win32,240.3846154,65dbad3905fde4fe1981dc61,65dcba48ca4804590ad253d3,,,,,,,,,,,166.992,0.5,167.49,167.49,167.995,right,1,0.502,,167.995,168.995,5,3,43,7,1,partial,1,images/Ex4.jpg,right,training,easy,3,,,,,
,,,,,59ccd702faf42e00012b68f5,001,28,Male,British,College,2024-02-26_16h20.08.399,CRL1e,2023.2.3,Win32,240.3846154,65dbad3905fde4fe1981dc61,65dcba48ca4804590ad253d3,,,,,,,,,,,168.996,1.5,170.495,170.495,171.536,left,1,1.04,,171.537,172.537,5,4,44,0,1,partial,1,images/Ex1.jpg,left,training,easy,3,,,,,
,,,,,59ccd702faf42e00012b68f5,001,28,Male,British,College,2024-02-26_16h20.08.399,CRL1e,2023.2.3,Win32,240.3846154,65dbad3905fde4fe1981dc61,65dcba48ca4804590ad253d3,,,,,,,,,,,172.537,0.7,173.237,173.237,173.737,right,0,0.495,,173.737,174.737,5,5,45,3,1,partial,1,images/Ex2.jpg,left,training,easy,3,,,,,
,,,,,59ccd702faf42e00012b68f5,001,28,Male,British,College,2024-02-26_16h20.08.399,CRL1e,2023.2.3,Win32,240.3846154,65dbad3905fde4fe1981dc61,65dcba48ca4804590ad253d3,,,,,,,,,,,174.737,0.8,175.537,175.537,176.029,right,1,0.491,,176.029,177.029,5,6,46,6,1,partial,1,images/Ex4.jpg,right,training,easy,3,,,,,
,,,,,59ccd702faf42e00012b68f5,001,28,Male,British,College,2024-02-26_16h20.08.399,CRL1e,2023.2.3,Win32,240.3846154,65dbad3905fde4fe1981dc61,65dcba48ca4804590ad253d3,,,,,,,,,,,177.029,1,178.029,178.029,178.5,right,1,0.471,,178.5,179.5,5,7,47,5,1,partial,1,images/Ex3.jpg,right,training,easy,3,,,,,
,,,,,59ccd702faf42e00012b68f5,001,28,Male,British,College,2024-02-26_16h20.08.399,CRL1e,2023.2.3,Win32,240.3846154,65dbad3905fde4fe1981dc61,65dcba48ca4804590ad253d3,,,,,,,,,,,179.503,1.4,180.901,180.901,181.379,right,0,0.476,,181.38,182.379,0,0,0,6,1,partial,2,images/Ex4.jpg,left,reversed,easy,3,,,,,
,,,,,59ccd702faf42e00012b68f5,001,28,Male,British,College,2024-02-26_16h20.08.399,CRL1e,2023.2.3,Win32,240.3846154,65dbad3905fde4fe1981dc61,65dcba48ca4804590ad253d3,,,,,,,,,,,182.379,0.7,183.079,183.079,183.942,right,1,0.858,,183.942,184.942,0,1,1,5,1,partial,2,images/Ex3.jpg,right,nonreversed,easy,3,,,,,
,,,,,59ccd702faf42e00012b68f5,001,28,Male,British,College,2024-02-26_16h20.08.399,CRL1e,2023.2.3,Win32,240.3846154,65dbad3905fde4fe1981dc61,65dcba48ca4804590ad253d3,,,,,,,,,,,184.942,0.9,185.842,185.842,186.396,left,1,0.553,,186.396,187.396,0,2,2,0,1,partial,2,images/Ex1.jpg,left,nonreversed,easy,3,,,,,
,,,,,59ccd702faf42e00012b68f5,001,28,Male,British,College,2024-02-26_16h20.08.399,CRL1e,2023.2.3,Win32,240.3846154,65dbad3905fde4fe1981dc61,65dcba48ca4804590ad253d3,,,,,,,,,,,187.397,1.1,188.497,188.497,189.014,left,1,0.516,,189.014,190.013,0,3,3,1,1,partial,2,images/Ex1.jpg,left,nonreversed,easy,3,,,,,
,,,,,59ccd702faf42e00012b68f5,001,28,Male,British,College,2024-02-26_16h20.08.399,CRL1e,2023.2.3,Win32,240.3846154,65dbad3905fde4fe1981dc61,65dcba48ca4804590ad253d3,,,,,,,,,,,190.014,1.2,191.213,191.213,191.768,left,0,0.552,,191.768,192.768,0,4,4,3,1,partial,2,images/Ex2.jpg,right,reversed,easy,3,,,,,
,,,,,59ccd702faf42e00012b68f5,001,28,Male,British,College,2024-02-26_16h20.08.399,CRL1e,2023.2.3,Win32,240.3846154,65dbad3905fde4fe1981dc61,65dcba48ca4804590ad253d3,,,,,,,,,,,192.768,1.5,194.268,194.268,194.797,left,0,0.527,,194.797,195.798,0,5,5,2,1,partial,2,images/Ex2.jpg,right,reversed,easy,3,,,,,
,,,,,59ccd702faf42e00012b68f5,001,28,Male,British,College,2024-02-26_16h20.08.399,CRL1e,2023.2.3,Win32,240.3846154,65dbad3905fde4fe1981dc61,65dcba48ca4804590ad253d3,,,,,,,,,,,195.798,1.1,196.897,196.897,197.481,right,0,0.579,,197.481,198.481,0,6,6,7,1,partial,2,images/Ex4.jpg,left,reversed,easy,3,,,,,
,,,,,59ccd702faf42e00012b68f5,001,28,Male,British,College,2024-02-26_16h20.08.399,CRL1e,2023.2.3,Win32,240.3846154,65dbad3905fde4fe1981dc61,65dcba48ca4804590ad253d3,,,,,,,,,,,198.482,1.3,199.781,199.781,200.473,right,1,0.688,,200.473,201.473,0,7,7,4,1,partial,2,images/Ex3.jpg,right,nonreversed,easy,3,,,,,
,,,,,59ccd702faf42e00012b68f5,001,28,Male,British,College,2024-02-26_16h20.08.399,CRL1e,2023.2.3,Win32,240.3846154,65dbad3905fde4fe1981dc61,65dcba48ca4804590ad253d3,,,,,,,,,,,201.474,1.3,202.773,202.773,203.415,left,1,0.639,,203.415,204.415,1,0,8,0,1,partial,2,images/Ex1.jpg,left,nonreversed,easy,3,,,,,
,,,,,59ccd702faf42e00012b68f5,001,28,Male,British,College,2024-02-26_16h20.08.399,CRL1e,2023.2.3,Win32,240.3846154,65dbad3905fde4fe1981dc61,65dcba48ca4804590ad253d3,,,,,,,,,,,204.416,1.5,205.915,205.915,207.103,left,1,1.184,,207.103,208.102,1,1,9,7,1,partial,2,images/Ex4.jpg,left,reversed,easy,3,,,,,
,,,,,59ccd702faf42e00012b68f5,001,28,Male,British,College,2024-02-26_16h20.08.399,CRL1e,2023.2.3,Win32,240.3846154,65dbad3905fde4fe1981dc61,65dcba48ca4804590ad253d3,,,,,,,,,,,208.103,1,209.103,209.103,209.699,left,1,0.593,,209.699,210.699,1,2,10,1,1,partial,2,images/Ex1.jpg,left,nonreversed,easy,3,,,,,
,,,,,59ccd702faf42e00012b68f5,001,28,Male,British,College,2024-02-26_16h20.08.399,CRL1e,2023.2.3,Win32,240.3846154,65dbad3905fde4fe1981dc61,65dcba48ca4804590ad253d3,,,,,,,,,,,210.699,1.4,212.099,212.099,212.774,right,1,0.673,,212.774,213.774,1,3,11,2,1,partial,2,images/Ex2.jpg,right,reversed,easy,3,,,,,
,,,,,59ccd702faf42e00012b68f5,001,28,Male,British,College,2024-02-26_16h20.08.399,CRL1e,2023.2.3,Win32,240.3846154,65dbad3905fde4fe1981dc61,65dcba48ca4804590ad253d3,,,,,,,,,,,213.775,0.6,214.374,214.374,214.907,right,1,0.53,,214.907,215.908,1,4,12,5,1,partial,2,images/Ex3.jpg,right,nonreversed,easy,3,,,,,
,,,,,59ccd702faf42e00012b68f5,001,28,Male,British,College,2024-02-26_16h20.08.399,CRL1e,2023.2.3,Win32,240.3846154,65dbad3905fde4fe1981dc61,65dcba48ca4804590ad253d3,,,,,,,,,,,215.908,0.6,216.508,216.508,216.95,right,1,0.442,,216.95,217.949,1,5,13,4,1,partial,2,images/Ex3.jpg,right,nonreversed,easy,3,,,,,
,,,,,59ccd702faf42e00012b68f5,001,28,Male,British,College,2024-02-26_16h20.08.399,CRL1e,2023.2.3,Win32,240.3846154,65dbad3905fde4fe1981dc61,65dcba48ca4804590ad253d3,,,,,,,,,,,217.95,0.9,218.849,218.849,219.291,right,1,0.44,,219.291,220.292,1,6,14,3,1,partial,2,images/Ex2.jpg,right,reversed,easy,3,,,,,
,,,,,59ccd702faf42e00012b68f5,001,28,Male,British,College,2024-02-26_16h20.08.399,CRL1e,2023.2.3,Win32,240.3846154,65dbad3905fde4fe1981dc61,65dcba48ca4804590ad253d3,,,,,,,,,,,220.292,1.4,221.692,221.692,222.112,left,1,0.42,,222.112,223.112,1,7,15,6,1,partial,2,images/Ex4.jpg,left,reversed,easy,3,,,,,
,,,,,59ccd702faf42e00012b68f5,001,28,Male,British,College,2024-02-26_16h20.08.399,CRL1e,2023.2.3,Win32,240.3846154,65dbad3905fde4fe1981dc61,65dcba48ca4804590ad253d3,,,,,,,,,,,223.112,1,224.113,224.113,224.6,right,1,0.486,,224.6,225.6,2,0,16,5,1,partial,2,images/Ex3.jpg,right,nonreversed,easy,3,,,,,
,,,,,59ccd702faf42e00012b68f5,001,28,Male,British,College,2024-02-26_16h20.08.399,CRL1e,2023.2.3,Win32,240.3846154,65dbad3905fde4fe1981dc61,65dcba48ca4804590ad253d3,,,,,,,,,,,225.6,1,226.6,226.6,227.083,right,1,0.481,,227.083,228.08,2,1,17,4,1,partial,2,images/Ex3.jpg,right,nonreversed,easy,3,,,,,
,,,,,59ccd702faf42e00012b68f5,001,28,Male,British,College,2024-02-26_16h20.08.399,CRL1e,2023.2.3,Win32,240.3846154,65dbad3905fde4fe1981dc61,65dcba48ca4804590ad253d3,,,,,,,,,,,228.08,0.6,228.68,228.68,229.196,left,1,0.516,,229.196,230.196,2,2,18,1,1,partial,2,images/Ex1.jpg,left,nonreversed,easy,3,,,,,
,,,,,59ccd702faf42e00012b68f5,001,28,Male,British,College,2024-02-26_16h20.08.399,CRL1e,2023.2.3,Win32,240.3846154,65dbad3905fde4fe1981dc61,65dcba48ca4804590ad253d3,,,,,,,,,,,230.197,1.1,231.296,231.296,232.001,right,1,0.704,,232.001,233.001,2,3,19,2,1,partial,2,images/Ex2.jpg,right,reversed,easy,3,,,,,
,,,,,59ccd702faf42e00012b68f5,001,28,Male,British,College,2024-02-26_16h20.08.399,CRL1e,2023.2.3,Win32,240.3846154,65dbad3905fde4fe1981dc61,65dcba48ca4804590ad253d3,,,,,,,,,,,233.003,0.8,233.801,233.801,234.118,left,1,0.314,,234.118,235.118,2,4,20,6,1,partial,2,images/Ex4.jpg,left,reversed,easy,3,,,,,
,,,,,59ccd702faf42e00012b68f5,001,28,Male,British,College,2024-02-26_16h20.08.399,CRL1e,2023.2.3,Win32,240.3846154,65dbad3905fde4fe1981dc61,65dcba48ca4804590ad253d3,,,,,,,,,,,235.118,1.4,236.518,236.518,236.997,left,1,0.478,,236.997,237.997,2,5,21,0,1,partial,2,images/Ex1.jpg,left,nonreversed,easy,3,,,,,
,,,,,59ccd702faf42e00012b68f5,001,28,Male,British,College,2024-02-26_16h20.08.399,CRL1e,2023.2.3,Win32,240.3846154,65dbad3905fde4fe1981dc61,65dcba48ca4804590ad253d3,,,,,,,,,,,237.997,0.9,238.897,238.897,239.514,left,1,0.614,,239.514,240.514,2,6,22,7,1,partial,2,images/Ex4.jpg,left,reversed,easy,3,,,,,
,,,,,59ccd702faf42e00012b68f5,001,28,Male,British,College,2024-02-26_16h20.08.399,CRL1e,2023.2.3,Win32,240.3846154,65dbad3905fde4fe1981dc61,65dcba48ca4804590ad253d3,,,,,,,,,,,240.515,0.7,241.214,241.214,241.839,right,1,0.62,,241.839,242.839,2,7,23,3,1,partial,2,images/Ex2.jpg,right,reversed,easy,3,,,,,
,,,,,59ccd702faf42e00012b68f5,001,28,Male,British,College,2024-02-26_16h20.08.399,CRL1e,2023.2.3,Win32,240.3846154,65dbad3905fde4fe1981dc61,65dcba48ca4804590ad253d3,,,,,,,,,,,242.84,0.8,243.639,243.639,244.177,left,1,0.534,,244.177,245.177,3,0,24,0,1,partial,2,images/Ex1.jpg,left,nonreversed,easy,3,,,,,
,,,,,59ccd702faf42e00012b68f5,001,28,Male,British,College,2024-02-26_16h20.08.399,CRL1e,2023.2.3,Win32,240.3846154,65dbad3905fde4fe1981dc61,65dcba48ca4804590ad253d3,,,,,,,,,,,245.178,1.5,246.678,246.678,247.214,right,1,0.534,,247.214,248.215,3,1,25,5,1,partial,2,images/Ex3.jpg,right,nonreversed,easy,3,,,,,
,,,,,59ccd702faf42e00012b68f5,001,28,Male,British,College,2024-02-26_16h20.08.399,CRL1e,2023.2.3,Win32,240.3846154,65dbad3905fde4fe1981dc61,65dcba48ca4804590ad253d3,,,,,,,,,,,248.215,1.1,249.314,249.314,250.01,right,1,0.693,,250.01,251.007,3,2,26,3,1,partial,2,images/Ex2.jpg,right,reversed,easy,3,,,,,
,,,,,59ccd702faf42e00012b68f5,001,28,Male,British,College,2024-02-26_16h20.08.399,CRL1e,2023.2.3,Win32,240.3846154,65dbad3905fde4fe1981dc61,65dcba48ca4804590ad253d3,,,,,,,,,,,251.007,1.2,252.206,252.206,252.723,left,1,0.514,,252.724,253.724,3,3,27,7,1,partial,2,images/Ex4.jpg,left,reversed,easy,3,,,,,
,,,,,59ccd702faf42e00012b68f5,001,28,Male,British,College,2024-02-26_16h20.08.399,CRL1e,2023.2.3,Win32,240.3846154,65dbad3905fde4fe1981dc61,65dcba48ca4804590ad253d3,,,,,,,,,,,253.724,0.9,254.623,254.623,255.053,left,1,0.427,,255.053,256.053,3,4,28,6,1,partial,2,images/Ex4.jpg,left,reversed,easy,3,,,,,
,,,,,59ccd702faf42e00012b68f5,001,28,Male,British,College,2024-02-26_16h20.08.399,CRL1e,2023.2.3,Win32,240.3846154,65dbad3905fde4fe1981dc61,65dcba48ca4804590ad253d3,,,,,,,,,,,256.053,1.3,257.353,257.353,258.108,right,1,0.754,,258.108,259.108,3,5,29,2,1,partial,2,images/Ex2.jpg,right,reversed,easy,3,,,,,
,,,,,59ccd702faf42e00012b68f5,001,28,Male,British,College,2024-02-26_16h20.08.399,CRL1e,2023.2.3,Win32,240.3846154,65dbad3905fde4fe1981dc61,65dcba48ca4804590ad253d3,,,,,,,,,,,259.108,1.1,260.208,260.208,260.691,left,1,0.48,,260.691,261.691,3,6,30,1,1,partial,2,images/Ex1.jpg,left,nonreversed,easy,3,,,,,
,,,,,59ccd702faf42e00012b68f5,001,28,Male,British,College,2024-02-26_16h20.08.399,CRL1e,2023.2.3,Win32,240.3846154,65dbad3905fde4fe1981dc61,65dcba48ca4804590ad253d3,,,,,,,,,,,261.691,0.9,262.591,262.591,263.037,right,1,0.444,,263.037,264.037,3,7,31,4,1,partial,2,images/Ex3.jpg,right,nonreversed,easy,3,,,,,
,,,,,59ccd702faf42e00012b68f5,001,28,Male,British,College,2024-02-26_16h20.08.399,CRL1e,2023.2.3,Win32,240.3846154,65dbad3905fde4fe1981dc61,65dcba48ca4804590ad253d3,,,,,,,,,,,264.037,0.6,264.637,264.637,265.195,left,1,0.557,,265.195,266.196,4,0,32,7,1,partial,2,images/Ex4.jpg,left,reversed,easy,3,,,,,
,,,,,59ccd702faf42e00012b68f5,001,28,Male,British,College,2024-02-26_16h20.08.399,CRL1e,2023.2.3,Win32,240.3846154,65dbad3905fde4fe1981dc61,65dcba48ca4804590ad253d3,,,,,,,,,,,266.198,1.4,267.596,267.596,268.013,right,1,0.415,,268.013,269.012,4,1,33,3,1,partial,2,images/Ex2.jpg,right,reversed,easy,3,,,,,
,,,,,59ccd702faf42e00012b68f5,001,28,Male,British,College,2024-02-26_16h20.08.399,CRL1e,2023.2.3,Win32,240.3846154,65dbad3905fde4fe1981dc61,65dcba48ca4804590ad253d3,,,,,,,,,,,269.013,1.3,270.313,270.313,270.767,right,1,0.451,,270.767,271.767,4,2,34,4,1,partial,2,images/Ex3.jpg,right,nonreversed,easy,3,,,,,
,,,,,59ccd702faf42e00012b68f5,001,28,Male,British,College,2024-02-26_16h20.08.399,CRL1e,2023.2.3,Win32,240.3846154,65dbad3905fde4fe1981dc61,65dcba48ca4804590ad253d3,,,,,,,,,,,271.767,1,272.767,272.767,273.309,right,1,0.54,,273.309,274.309,4,3,35,5,1,partial,2,images/Ex3.jpg,right,nonreversed,easy,3,,,,,
,,,,,59ccd702faf42e00012b68f5,001,28,Male,British,College,2024-02-26_16h20.08.399,CRL1e,2023.2.3,Win32,240.3846154,65dbad3905fde4fe1981dc61,65dcba48ca4804590ad253d3,,,,,,,,,,,274.31,1.1,275.409,275.409,275.93,left,0,0.517,,275.93,276.93,4,4,36,2,1,partial,2,images/Ex2.jpg,right,reversed,easy,3,,,,,
,,,,,59ccd702faf42e00012b68f5,001,28,Male,British,College,2024-02-26_16h20.08.399,CRL1e,2023.2.3,Win32,240.3846154,65dbad3905fde4fe1981dc61,65dcba48ca4804590ad253d3,,,,,,,,,,,276.931,0.9,277.83,277.83,278.364,left,1,0.528,,278.364,279.363,4,5,37,0,1,partial,2,images/Ex1.jpg,left,nonreversed,easy,3,,,,,
,,,,,59ccd702faf42e00012b68f5,001,28,Male,British,College,2024-02-26_16h20.08.399,CRL1e,2023.2.3,Win32,240.3846154,65dbad3905fde4fe1981dc61,65dcba48ca4804590ad253d3,,,,,,,,,,,279.364,1,280.363,280.363,280.939,left,1,0.574,,280.939,281.939,4,6,38,1,1,partial,2,images/Ex1.jpg,left,nonreversed,easy,3,,,,,
,,,,,59ccd702faf42e00012b68f5,001,28,Male,British,College,2024-02-26_16h20.08.399,CRL1e,2023.2.3,Win32,240.3846154,65dbad3905fde4fe1981dc61,65dcba48ca4804590ad253d3,,,,,,,,,,,281.94,1.4,283.339,283.339,284.089,left,1,0.746,,284.089,285.089,4,7,39,6,1,partial,2,images/Ex4.jpg,left,reversed,easy,3,,,,,
,,,,,59ccd702faf42e00012b68f5,001,28,Male,British,College,2024-02-26_16h20.08.399,CRL1e,2023.2.3,Win32,240.3846154,65dbad3905fde4fe1981dc61,65dcba48ca4804590ad253d3,,,,,,,,,,,285.09,0.7,285.789,285.789,286.285,right,1,0.495,,286.286,287.285,5,0,40,5,1,partial,2,images/Ex3.jpg,right,nonreversed,easy,3,,,,,
,,,,,59ccd702faf42e00012b68f5,001,28,Male,British,College,2024-02-26_16h20.08.399,CRL1e,2023.2.3,Win32,240.3846154,65dbad3905fde4fe1981dc61,65dcba48ca4804590ad253d3,,,,,,,,,,,287.286,1.4,288.686,288.686,289.098,left,1,0.41,,289.098,290.098,5,1,41,7,1,partial,2,images/Ex4.jpg,left,reversed,easy,3,,,,,
,,,,,59ccd702faf42e00012b68f5,001,28,Male,British,College,2024-02-26_16h20.08.399,CRL1e,2023.2.3,Win32,240.3846154,65dbad3905fde4fe1981dc61,65dcba48ca4804590ad253d3,,,,,,,,,,,290.098,0.6,290.698,290.698,291.228,right,1,0.528,,291.228,292.228,5,2,42,2,1,partial,2,images/Ex2.jpg,right,reversed,easy,3,,,,,
,,,,,59ccd702faf42e00012b68f5,001,28,Male,British,College,2024-02-26_16h20.08.399,CRL1e,2023.2.3,Win32,240.3846154,65dbad3905fde4fe1981dc61,65dcba48ca4804590ad253d3,,,,,,,,,,,292.228,1.3,293.527,293.527,294.061,left,1,0.531,,294.061,295.061,5,3,43,1,1,partial,2,images/Ex1.jpg,left,nonreversed,easy,3,,,,,
,,,,,59ccd702faf42e00012b68f5,001,28,Male,British,College,2024-02-26_16h20.08.399,CRL1e,2023.2.3,Win32,240.3846154,65dbad3905fde4fe1981dc61,65dcba48ca4804590ad253d3,,,,,,,,,,,295.061,1,296.061,296.061,296.599,right,1,0.535,,296.599,297.599,5,4,44,4,1,partial,2,images/Ex3.jpg,right,nonreversed,easy,3,,,,,
,,,,,59ccd702faf42e00012b68f5,001,28,Male,British,College,2024-02-26_16h20.08.399,CRL1e,2023.2.3,Win32,240.3846154,65dbad3905fde4fe1981dc61,65dcba48ca4804590ad253d3,,,,,,,,,,,297.599,1.4,298.999,298.999,299.503,left,1,0.499,,299.503,300.503,5,5,45,0,1,partial,2,images/Ex1.jpg,left,nonreversed,easy,3,,,,,
,,,,,59ccd702faf42e00012b68f5,001,28,Male,British,College,2024-02-26_16h20.08.399,CRL1e,2023.2.3,Win32,240.3846154,65dbad3905fde4fe1981dc61,65dcba48ca4804590ad253d3,,,,,,,,,,,300.504,0.7,301.203,301.203,301.636,left,1,0.43,,301.636,302.637,5,6,46,6,1,partial,2,images/Ex4.jpg,left,reversed,easy,3,,,,,
,,,,,59ccd702faf42e00012b68f5,001,28,Male,British,College,2024-02-26_16h20.08.399,CRL1e,2023.2.3,Win32,240.3846154,65dbad3905fde4fe1981dc61,65dcba48ca4804590ad253d3,,,,,,,,,,,302.637,0.9,303.537,303.537,304.129,right,1,0.589,,304.129,305.129,5,7,47,3,1,partial,2,images/Ex2.jpg,right,reversed,easy,3,,,,,
,,,,,59ccd702faf42e00012b68f5,001,28,Male,British,College,2024-02-26_16h20.08.399,CRL1e,2023.2.3,Win32,240.3846154,65dbad3905fde4fe1981dc61,65dcba48ca4804590ad253d3,,,,,,305.129,499.305,space,194.173,,499.309,1,500.31,500.31,501.364,right,0,1.053,,501.364,502.364,0,0,0,2,1,total,1,images/Ex6.jpg,left,training,easy,3,,,,,
,,,,,59ccd702faf42e00012b68f5,001,28,Male,British,College,2024-02-26_16h20.08.399,CRL1e,2023.2.3,Win32,240.3846154,65dbad3905fde4fe1981dc61,65dcba48ca4804590ad253d3,,,,,,,,,,,502.365,0.7,503.064,503.064,504.602,right,1,1.532,,504.602,505.601,0,1,1,7,1,total,1,images/Ex8.jpg,right,training,easy,3,,,,,
,,,,,59ccd702faf42e00012b68f5,001,28,Male,British,College,2024-02-26_16h20.08.399,CRL1e,2023.2.3,Win32,240.3846154,65dbad3905fde4fe1981dc61,65dcba48ca4804590ad253d3,,,,,,,,,,,505.602,0.9,506.502,506.502,507.152,left,1,0.646,,507.152,508.152,0,2,2,0,1,total,1,images/Ex5.jpg,left,training,easy,3,,,,,
,,,,,59ccd702faf42e00012b68f5,001,28,Male,British,College,2024-02-26_16h20.08.399,CRL1e,2023.2.3,Win32,240.3846154,65dbad3905fde4fe1981dc61,65dcba48ca4804590ad253d3,,,,,,,,,,,508.152,1,509.152,509.152,510.09,right,1,0.936,,510.09,511.089,0,3,3,6,1,total,1,images/Ex8.jpg,right,training,easy,3,,,,,
,,,,,59ccd702faf42e00012b68f5,001,28,Male,British,College,2024-02-26_16h20.08.399,CRL1e,2023.2.3,Win32,240.3846154,65dbad3905fde4fe1981dc61,65dcba48ca4804590ad253d3,,,,,,,,,,,511.09,1.1,512.19,512.19,513.248,left,0,1.058,,513.248,514.248,0,4,4,4,1,total,1,images/Ex7.jpg,right,training,easy,3,,,,,
,,,,,59ccd702faf42e00012b68f5,001,28,Male,British,College,2024-02-26_16h20.08.399,CRL1e,2023.2.3,Win32,240.3846154,65dbad3905fde4fe1981dc61,65dcba48ca4804590ad253d3,,,,,,,,,,,514.249,1.1,515.348,515.348,516.607,right,0,1.256,,516.607,517.607,0,5,5,1,1,total,1,images/Ex5.jpg,left,training,easy,3,,,,,
,,,,,59ccd702faf42e00012b68f5,001,28,Male,British,College,2024-02-26_16h20.08.399,CRL1e,2023.2.3,Win32,240.3846154,65dbad3905fde4fe1981dc61,65dcba48ca4804590ad253d3,,,,,,,,,,,517.607,1,518.607,518.607,519.903,right,1,1.295,,519.903,520.903,0,6,6,5,1,total,1,images/Ex7.jpg,right,training,easy,3,,,,,
,,,,,59ccd702faf42e00012b68f5,001,28,Male,British,College,2024-02-26_16h20.08.399,CRL1e,2023.2.3,Win32,240.3846154,65dbad3905fde4fe1981dc61,65dcba48ca4804590ad253d3,,,,,,,,,,,520.903,0.9,521.803,521.803,523.429,left,1,1.621,,523.429,524.429,0,7,7,3,1,total,1,images/Ex6.jpg,left,training,easy,3,,,,,
,,,,,59ccd702faf42e00012b68f5,001,28,Male,British,College,2024-02-26_16h20.08.399,CRL1e,2023.2.3,Win32,240.3846154,65dbad3905fde4fe1981dc61,65dcba48ca4804590ad253d3,,,,,,,,,,,524.429,1.3,525.728,525.728,526.578,right,1,0.846,,526.578,527.575,1,0,8,5,1,total,1,images/Ex7.jpg,right,training,easy,3,,,,,
,,,,,59ccd702faf42e00012b68f5,001,28,Male,British,College,2024-02-26_16h20.08.399,CRL1e,2023.2.3,Win32,240.3846154,65dbad3905fde4fe1981dc61,65dcba48ca4804590ad253d3,,,,,,,,,,,527.575,0.7,528.274,528.274,529.287,right,1,1.008,,529.287,530.287,1,1,9,7,1,total,1,images/Ex8.jpg,right,training,easy,3,,,,,
,,,,,59ccd702faf42e00012b68f5,001,28,Male,British,College,2024-02-26_16h20.08.399,CRL1e,2023.2.3,Win32,240.3846154,65dbad3905fde4fe1981dc61,65dcba48ca4804590ad253d3,,,,,,,,,,,530.289,1.2,531.488,531.488,531.841,left,1,0.351,,531.841,532.841,1,2,10,1,1,total,1,images/Ex5.jpg,left,training,easy,3,,,,,
,,,,,59ccd702faf42e00012b68f5,001,28,Male,British,College,2024-02-26_16h20.08.399,CRL1e,2023.2.3,Win32,240.3846154,65dbad3905fde4fe1981dc61,65dcba48ca4804590ad253d3,,,,,,,,,,,532.842,0.9,533.742,533.742,534.267,left,1,0.522,,534.267,535.267,1,3,11,0,1,total,1,images/Ex5.jpg,left,training,easy,3,,,,,
,,,,,59ccd702faf42e00012b68f5,001,28,Male,British,College,2024-02-26_16h20.08.399,CRL1e,2023.2.3,Win32,240.3846154,65dbad3905fde4fe1981dc61,65dcba48ca4804590ad253d3,,,,,,,,,,,535.268,1.3,536.567,536.567,537.167,right,1,0.596,,537.168,538.168,1,4,12,6,1,total,1,images/Ex8.jpg,right,training,easy,3,,,,,
,,,,,59ccd702faf42e00012b68f5,001,28,Male,British,College,2024-02-26_16h20.08.399,CRL1e,2023.2.3,Win32,240.3846154,65dbad3905fde4fe1981dc61,65dcba48ca4804590ad253d3,,,,,,,,,,,538.168,0.5,538.667,538.667,539.259,right,1,0.587,,539.26,540.26,1,5,13,4,1,total,1,images/Ex7.jpg,right,training,easy,3,,,,,
,,,,,59ccd702faf42e00012b68f5,001,28,Male,British,College,2024-02-26_16h20.08.399,CRL1e,2023.2.3,Win32,240.3846154,65dbad3905fde4fe1981dc61,65dcba48ca4804590ad253d3,,,,,,,,,,,540.26,0.7,540.959,540.959,541.426,left,1,0.465,,541.426,542.426,1,6,14,3,1,total,1,images/Ex6.jpg,left,training,easy,3,,,,,
,,,,,59ccd702faf42e00012b68f5,001,28,Male,British,College,2024-02-26_16h20.08.399,CRL1e,2023.2.3,Win32,240.3846154,65dbad3905fde4fe1981dc61,65dcba48ca4804590ad253d3,,,,,,,,,,,542.427,1.1,543.526,543.526,543.889,left,1,0.362,,543.889,544.889,1,7,15,2,1,total,1,images/Ex6.jpg,left,training,easy,3,,,,,
,,,,,59ccd702faf42e00012b68f5,001,28,Male,British,College,2024-02-26_16h20.08.399,CRL1e,2023.2.3,Win32,240.3846154,65dbad3905fde4fe1981dc61,65dcba48ca4804590ad253d3,,,,,,,,,,,544.889,1.3,546.189,546.189,546.718,left,1,0.526,,546.718,547.718,2,0,16,1,1,total,1,images/Ex5.jpg,left,training,easy,3,,,,,
,,,,,59ccd702faf42e00012b68f5,001,28,Male,British,College,2024-02-26_16h20.08.399,CRL1e,2023.2.3,Win32,240.3846154,65dbad3905fde4fe1981dc61,65dcba48ca4804590ad253d3,,,,,,,,,,,547.719,0.8,548.518,548.518,549.01,left,1,0.488,,549.011,550.01,2,1,17,2,1,total,1,images/Ex6.jpg,left,training,easy,3,,,,,
,,,,,59ccd702faf42e00012b68f5,001,28,Male,British,College,2024-02-26_16h20.08.399,CRL1e,2023.2.3,Win32,240.3846154,65dbad3905fde4fe1981dc61,65dcba48ca4804590ad253d3,,,,,,,,,,,550.01,0.7,550.71,550.71,551.239,right,1,0.526,,551.239,552.239,2,2,18,5,1,total,1,images/Ex7.jpg,right,training,easy,3,,,,,
,,,,,59ccd702faf42e00012b68f5,001,28,Male,British,College,2024-02-26_16h20.08.399,CRL1e,2023.2.3,Win32,240.3846154,65dbad3905fde4fe1981dc61,65dcba48ca4804590ad253d3,,,,,,,,,,,552.24,1.2,553.439,553.439,554.019,right,1,0.575,,554.019,555.018,2,3,19,6,1,total,1,images/Ex8.jpg,right,training,easy,3,,,,,
,,,,,59ccd702faf42e00012b68f5,001,28,Male,British,College,2024-02-26_16h20.08.399,CRL1e,2023.2.3,Win32,240.3846154,65dbad3905fde4fe1981dc61,65dcba48ca4804590ad253d3,,,,,,,,,,,555.02,1.1,556.119,556.119,556.606,right,1,0.484,,556.606,557.607,2,4,20,4,1,total,1,images/Ex7.jpg,right,training,easy,3,,,,,
,,,,,59ccd702faf42e00012b68f5,001,28,Male,British,College,2024-02-26_16h20.08.399,CRL1e,2023.2.3,Win32,240.3846154,65dbad3905fde4fe1981dc61,65dcba48ca4804590ad253d3,,,,,,,,,,,557.607,1.3,558.907,558.907,559.461,left,1,0.552,,559.461,560.461,2,5,21,0,1,total,1,images/Ex5.jpg,left,training,easy,3,,,,,
,,,,,59ccd702faf42e00012b68f5,001,28,Male,British,College,2024-02-26_16h20.08.399,CRL1e,2023.2.3,Win32,240.3846154,65dbad3905fde4fe1981dc61,65dcba48ca4804590ad253d3,,,,,,,,,,,560.462,0.9,561.361,561.361,561.916,right,1,0.553,,561.916,562.915,2,6,22,7,1,total,1,images/Ex8.jpg,right,training,easy,3,,,,,
,,,,,59ccd702faf42e00012b68f5,001,28,Male,British,College,2024-02-26_16h20.08.399,CRL1e,2023.2.3,Win32,240.3846154,65dbad3905fde4fe1981dc61,65dcba48ca4804590ad253d3,,,,,,,,,,,562.916,1.1,564.016,564.017,564.461,left,1,0.44,,564.461,565.458,2,7,23,3,1,total,1,images/Ex6.jpg,left,training,easy,3,,,,,
,,,,,59ccd702faf42e00012b68f5,001,28,Male,British,College,2024-02-26_16h20.08.399,CRL1e,2023.2.3,Win32,240.3846154,65dbad3905fde4fe1981dc61,65dcba48ca4804590ad253d3,,,,,,,,,,,565.459,1.3,566.757,566.757,567.279,right,1,0.517,,567.279,568.278,3,0,24,6,1,total,1,images/Ex8.jpg,right,training,easy,3,,,,,
,,,,,59ccd702faf42e00012b68f5,001,28,Male,British,College,2024-02-26_16h20.08.399,CRL1e,2023.2.3,Win32,240.3846154,65dbad3905fde4fe1981dc61,65dcba48ca4804590ad253d3,,,,,,,,,,,568.279,1.2,569.478,569.478,569.945,left,1,0.463,,569.945,570.946,3,1,25,3,1,total,1,images/Ex6.jpg,left,training,easy,3,,,,,
,,,,,59ccd702faf42e00012b68f5,001,28,Male,British,College,2024-02-26_16h20.08.399,CRL1e,2023.2.3,Win32,240.3846154,65dbad3905fde4fe1981dc61,65dcba48ca4804590ad253d3,,,,,,,,,,,570.946,1.3,572.245,572.245,572.712,left,1,0.464,,572.712,573.709,3,2,26,1,1,total,1,images/Ex5.jpg,left,training,easy,3,,,,,
,,,,,59ccd702faf42e00012b68f5,001,28,Male,British,College,2024-02-26_16h20.08.399,CRL1e,2023.2.3,Win32,240.3846154,65dbad3905fde4fe1981dc61,65dcba48ca4804590ad253d3,,,,,,,,,,,573.709,1.5,575.208,575.208,575.626,left,1,0.414,,575.626,576.625,3,3,27,0,1,total,1,images/Ex5.jpg,left,training,easy,3,,,,,
,,,,,59ccd702faf42e00012b68f5,001,28,Male,British,College,2024-02-26_16h20.08.399,CRL1e,2023.2.3,Win32,240.3846154,65dbad3905fde4fe1981dc61,65dcba48ca4804590ad253d3,,,,,,,,,,,576.626,1.3,577.925,577.925,578.367,right,0,0.438,,578.367,579.367,3,4,28,2,1,total,1,images/Ex6.jpg,left,training,easy,3,,,,,
,,,,,59ccd702faf42e00012b68f5,001,28,Male,British,College,2024-02-26_16h20.08.399,CRL1e,2023.2.3,Win32,240.3846154,65dbad3905fde4fe1981dc61,65dcba48ca4804590ad253d3,,,,,,,,,,,579.367,1.5,580.867,580.867,581.18,right,1,0.311,,581.18,582.18,3,5,29,7,1,total,1,images/Ex8.jpg,right,training,easy,3,,,,,
,,,,,59ccd702faf42e00012b68f5,001,28,Male,British,College,2024-02-26_16h20.08.399,CRL1e,2023.2.3,Win32,240.3846154,65dbad3905fde4fe1981dc61,65dcba48ca4804590ad253d3,,,,,,,,,,,582.18,0.9,583.08,583.08,583.563,right,1,0.48,,583.563,584.564,3,6,30,5,1,total,1,images/Ex7.jpg,right,training,easy,3,,,,,
,,,,,59ccd702faf42e00012b68f5,001,28,Male,British,College,2024-02-26_16h20.08.399,CRL1e,2023.2.3,Win32,240.3846154,65dbad3905fde4fe1981dc61,65dcba48ca4804590ad253d3,,,,,,,,,,,584.564,0.7,585.263,585.263,585.584,left,0,0.318,,585.584,586.585,3,7,31,4,1,total,1,images/Ex7.jpg,right,training,easy,3,,,,,
,,,,,59ccd702faf42e00012b68f5,001,28,Male,British,College,2024-02-26_16h20.08.399,CRL1e,2023.2.3,Win32,240.3846154,65dbad3905fde4fe1981dc61,65dcba48ca4804590ad253d3,,,,,,,,,,,586.585,1,587.585,587.585,588.138,right,1,0.553,,588.138,589.135,4,0,32,7,1,total,1,images/Ex8.jpg,right,training,easy,3,,,,,
,,,,,59ccd702faf42e00012b68f5,001,28,Male,British,College,2024-02-26_16h20.08.399,CRL1e,2023.2.3,Win32,240.3846154,65dbad3905fde4fe1981dc61,65dcba48ca4804590ad253d3,,,,,,,,,,,589.135,0.7,589.835,589.835,590.38,right,1,0.544,,590.38,591.377,4,1,33,6,1,total,1,images/Ex8.jpg,right,training,easy,3,,,,,
,,,,,59ccd702faf42e00012b68f5,001,28,Male,British,College,2024-02-26_16h20.08.399,CRL1e,2023.2.3,Win32,240.3846154,65dbad3905fde4fe1981dc61,65dcba48ca4804590ad253d3,,,,,,,,,,,591.377,1.3,592.677,592.677,592.997,right,1,0.319,,592.997,593.997,4,2,34,5,1,total,1,images/Ex7.jpg,right,training,easy,3,,,,,
,,,,,59ccd702faf42e00012b68f5,001,28,Male,British,College,2024-02-26_16h20.08.399,CRL1e,2023.2.3,Win32,240.3846154,65dbad3905fde4fe1981dc61,65dcba48ca4804590ad253d3,,,,,,,,,,,593.998,1.4,595.398,595.398,595.86,left,1,0.462,,595.86,596.861,4,3,35,0,1,total,1,images/Ex5.jpg,left,training,easy,3,,,,,
,,,,,59ccd702faf42e00012b68f5,001,28,Male,British,College,2024-02-26_16h20.08.399,CRL1e,2023.2.3,Win32,240.3846154,65dbad3905fde4fe1981dc61,65dcba48ca4804590ad253d3,,,,,,,,,,,596.863,0.6,597.46,597.46,597.965,left,1,0.503,,597.965,598.965,4,4,36,3,1,total,1,images/Ex6.jpg,left,training,easy,3,,,,,
,,,,,59ccd702faf42e00012b68f5,001,28,Male,British,College,2024-02-26_16h20.08.399,CRL1e,2023.2.3,Win32,240.3846154,65dbad3905fde4fe1981dc61,65dcba48ca4804590ad253d3,,,,,,,,,,,598.965,0.7,599.665,599.665,600.007,left,1,0.34,,600.007,601.007,4,5,37,2,1,total,1,images/Ex6.jpg,left,training,easy,3,,,,,
,,,,,59ccd702faf42e00012b68f5,001,28,Male,British,College,2024-02-26_16h20.08.399,CRL1e,2023.2.3,Win32,240.3846154,65dbad3905fde4fe1981dc61,65dcba48ca4804590ad253d3,,,,,,,,,,,601.007,0.6,601.606,601.606,602.174,left,1,0.563,,602.174,603.174,4,6,38,1,1,total,1,images/Ex5.jpg,left,training,easy,3,,,,,
,,,,,59ccd702faf42e00012b68f5,001,28,Male,British,College,2024-02-26_16h20.08.399,CRL1e,2023.2.3,Win32,240.3846154,65dbad3905fde4fe1981dc61,65dcba48ca4804590ad253d3,,,,,,,,,,,603.174,1,604.174,604.174,604.607,right,1,0.431,,604.607,605.607,4,7,39,4,1,total,1,images/Ex7.jpg,right,training,easy,3,,,,,
,,,,,59ccd702faf42e00012b68f5,001,28,Male,British,College,2024-02-26_16h20.08.399,CRL1e,2023.2.3,Win32,240.3846154,65dbad3905fde4fe1981dc61,65dcba48ca4804590ad253d3,,,,,,,,,,,605.607,0.5,606.107,606.107,606.644,right,1,0.534,,606.645,607.645,5,0,40,6,1,total,1,images/Ex8.jpg,right,training,easy,3,,,,,
,,,,,59ccd702faf42e00012b68f5,001,28,Male,British,College,2024-02-26_16h20.08.399,CRL1e,2023.2.3,Win32,240.3846154,65dbad3905fde4fe1981dc61,65dcba48ca4804590ad253d3,,,,,,,,,,,607.645,0.8,608.445,608.445,608.895,left,1,0.45,,608.895,609.895,5,1,41,3,1,total,1,images/Ex6.jpg,left,training,easy,3,,,,,
,,,,,59ccd702faf42e00012b68f5,001,28,Male,British,College,2024-02-26_16h20.08.399,CRL1e,2023.2.3,Win32,240.3846154,65dbad3905fde4fe1981dc61,65dcba48ca4804590ad253d3,,,,,,,,,,,609.895,0.7,610.595,610.595,611.1,left,1,0.501,,611.1,612.099,5,2,42,0,1,total,1,images/Ex5.jpg,left,training,easy,3,,,,,
,,,,,59ccd702faf42e00012b68f5,001,28,Male,British,College,2024-02-26_16h20.08.399,CRL1e,2023.2.3,Win32,240.3846154,65dbad3905fde4fe1981dc61,65dcba48ca4804590ad253d3,,,,,,,,,,,612.1,0.8,612.899,612.899,613.345,right,1,0.444,,613.345,614.346,5,3,43,5,1,total,1,images/Ex7.jpg,right,training,easy,3,,,,,
,,,,,59ccd702faf42e00012b68f5,001,28,Male,British,College,2024-02-26_16h20.08.399,CRL1e,2023.2.3,Win32,240.3846154,65dbad3905fde4fe1981dc61,65dcba48ca4804590ad253d3,,,,,,,,,,,614.346,0.6,614.946,614.946,615.262,right,1,0.313,,615.262,616.262,5,4,44,4,1,total,1,images/Ex7.jpg,right,training,easy,3,,,,,
,,,,,59ccd702faf42e00012b68f5,001,28,Male,British,College,2024-02-26_16h20.08.399,CRL1e,2023.2.3,Win32,240.3846154,65dbad3905fde4fe1981dc61,65dcba48ca4804590ad253d3,,,,,,,,,,,616.262,0.7,616.962,616.962,617.404,left,1,0.44,,617.404,618.404,5,5,45,1,1,total,1,images/Ex5.jpg,left,training,easy,3,,,,,
,,,,,59ccd702faf42e00012b68f5,001,28,Male,British,College,2024-02-26_16h20.08.399,CRL1e,2023.2.3,Win32,240.3846154,65dbad3905fde4fe1981dc61,65dcba48ca4804590ad253d3,,,,,,,,,,,618.405,0.6,619.004,619.004,619.446,left,1,0.439,,619.446,620.446,5,6,46,2,1,total,1,images/Ex6.jpg,left,training,easy,3,,,,,
,,,,,59ccd702faf42e00012b68f5,001,28,Male,British,College,2024-02-26_16h20.08.399,CRL1e,2023.2.3,Win32,240.3846154,65dbad3905fde4fe1981dc61,65dcba48ca4804590ad253d3,,,,,,,,,,,620.446,1,621.446,621.446,621.892,right,1,0.444,,621.892,622.892,5,7,47,7,1,total,1,images/Ex8.jpg,right,training,easy,3,,,,,
,,,,,59ccd702faf42e00012b68f5,001,28,Male,British,College,2024-02-26_16h20.08.399,CRL1e,2023.2.3,Win32,240.3846154,65dbad3905fde4fe1981dc61,65dcba48ca4804590ad253d3,,,,,,,,,,,622.895,1.2,624.093,624.093,624.563,right,0,0.466,,624.563,625.563,0,0,0,5,1,total,2,images/Ex7.jpg,left,reversed,easy,3,,,,,
,,,,,59ccd702faf42e00012b68f5,001,28,Male,British,College,2024-02-26_16h20.08.399,CRL1e,2023.2.3,Win32,240.3846154,65dbad3905fde4fe1981dc61,65dcba48ca4804590ad253d3,,,,,,,,,,,625.563,0.6,626.164,626.164,626.743,right,0,0.575,,626.743,627.743,0,1,1,7,1,total,2,images/Ex8.jpg,left,reversed,easy,3,,,,,
,,,,,59ccd702faf42e00012b68f5,001,28,Male,British,College,2024-02-26_16h20.08.399,CRL1e,2023.2.3,Win32,240.3846154,65dbad3905fde4fe1981dc61,65dcba48ca4804590ad253d3,,,,,,,,,,,627.743,1.3,629.042,629.042,629.793,left,0,0.749,,629.793,630.793,0,2,2,3,1,total,2,images/Ex6.jpg,right,reversed,easy,3,,,,,
,,,,,59ccd702faf42e00012b68f5,001,28,Male,British,College,2024-02-26_16h20.08.399,CRL1e,2023.2.3,Win32,240.3846154,65dbad3905fde4fe1981dc61,65dcba48ca4804590ad253d3,,,,,,,,,,,630.794,1.4,632.193,632.193,632.818,right,1,0.622,,632.818,633.818,0,3,3,2,1,total,2,images/Ex6.jpg,right,reversed,easy,3,,,,,
,,,,,59ccd702faf42e00012b68f5,001,28,Male,British,College,2024-02-26_16h20.08.399,CRL1e,2023.2.3,Win32,240.3846154,65dbad3905fde4fe1981dc61,65dcba48ca4804590ad253d3,,,,,,,,,,,633.818,1,634.819,634.819,635.622,left,1,0.8,,635.622,636.622,0,4,4,4,1,total,2,images/Ex7.jpg,left,reversed,easy,3,,,,,
,,,,,59ccd702faf42e00012b68f5,001,28,Male,British,College,2024-02-26_16h20.08.399,CRL1e,2023.2.3,Win32,240.3846154,65dbad3905fde4fe1981dc61,65dcba48ca4804590ad253d3,,,,,,,,,,,636.623,0.7,637.322,637.322,638.135,left,0,0.81,,638.135,639.135,0,5,5,1,1,total,2,images/Ex5.jpg,right,reversed,easy,3,,,,,
,,,,,59ccd702faf42e00012b68f5,001,28,Male,British,College,2024-02-26_16h20.08.399,CRL1e,2023.2.3,Win32,240.3846154,65dbad3905fde4fe1981dc61,65dcba48ca4804590ad253d3,,,,,,,,,,,639.136,1.4,640.535,640.535,641.231,left,1,0.695,,641.231,642.228,0,6,6,6,1,total,2,images/Ex8.jpg,left,reversed,easy,3,,,,,
,,,,,59ccd702faf42e00012b68f5,001,28,Male,British,College,2024-02-26_16h20.08.399,CRL1e,2023.2.3,Win32,240.3846154,65dbad3905fde4fe1981dc61,65dcba48ca4804590ad253d3,,,,,,,,,,,642.228,0.6,642.828,642.828,643.461,right,1,0.632,,643.461,644.461,0,7,7,0,1,total,2,images/Ex5.jpg,right,reversed,easy,3,,,,,
,,,,,59ccd702faf42e00012b68f5,001,28,Male,British,College,2024-02-26_16h20.08.399,CRL1e,2023.2.3,Win32,240.3846154,65dbad3905fde4fe1981dc61,65dcba48ca4804590ad253d3,,,,,,,,,,,644.461,1.3,645.761,645.761,646.39,right,1,0.626,,646.39,647.39,1,0,8,3,1,total,2,images/Ex6.jpg,right,reversed,easy,3,,,,,
,,,,,59ccd702faf42e00012b68f5,001,28,Male,British,College,2024-02-26_16h20.08.399,CRL1e,2023.2.3,Win32,240.3846154,65dbad3905fde4fe1981dc61,65dcba48ca4804590ad253d3,,,,,,,,,,,647.391,1,648.39,648.39,648.907,left,1,0.514,,648.907,649.907,1,1,9,5,1,total,2,images/Ex7.jpg,left,reversed,easy,3,,,,,
,,,,,59ccd702faf42e00012b68f5,001,28,Male,British,College,2024-02-26_16h20.08.399,CRL1e,2023.2.3,Win32,240.3846154,65dbad3905fde4fe1981dc61,65dcba48ca4804590ad253d3,,,,,,,,,,,649.907,1.5,651.407,651.408,652.057,left,1,0.647,,652.058,653.057,1,2,10,7,1,total,2,images/Ex8.jpg,left,reversed,easy,3,,,,,
,,,,,59ccd702faf42e00012b68f5,001,28,Male,British,College,2024-02-26_16h20.08.399,CRL1e,2023.2.3,Win32,240.3846154,65dbad3905fde4fe1981dc61,65dcba48ca4804590ad253d3,,,,,,,,,,,653.058,0.6,653.657,653.657,654.236,right,1,0.578,,654.236,655.237,1,3,11,0,1,total,2,images/Ex5.jpg,right,reversed,easy,3,,,,,
,,,,,59ccd702faf42e00012b68f5,001,28,Male,British,College,2024-02-26_16h20.08.399,CRL1e,2023.2.3,Win32,240.3846154,65dbad3905fde4fe1981dc61,65dcba48ca4804590ad253d3,,,,,,,,,,,655.237,1.1,656.337,656.337,656.932,right,1,0.592,,656.932,657.929,1,4,12,2,1,total,2,images/Ex6.jpg,right,reversed,easy,3,,,,,
,,,,,59ccd702faf42e00012b68f5,001,28,Male,British,College,2024-02-26_16h20.08.399,CRL1e,2023.2.3,Win32,240.3846154,65dbad3905fde4fe1981dc61,65dcba48ca4804590ad253d3,,,,,,,,,,,657.929,1,658.929,658.929,659.5,left,1,0.569,,659.5,660.499,1,5,13,4,1,total,2,images/Ex7.jpg,left,reversed,easy,3,,,,,
,,,,,59ccd702faf42e00012b68f5,001,28,Male,British,College,2024-02-26_16h20.08.399,CRL1e,2023.2.3,Win32,240.3846154,65dbad3905fde4fe1981dc61,65dcba48ca4804590ad253d3,,,,,,,,,,,660.5,0.6,661.1,661.1,661.621,left,1,0.517,,661.621,662.621,1,6,14,6,1,total,2,images/Ex8.jpg,left,reversed,easy,3,,,,,
,,,,,59ccd702faf42e00012b68f5,001,28,Male,British,College,2024-02-26_16h20.08.399,CRL1e,2023.2.3,Win32,240.3846154,65dbad3905fde4fe1981dc61,65dcba48ca4804590ad253d3,,,,,,,,,,,662.622,0.8,663.421,663.422,663.98,right,1,0.555,,663.98,664.98,1,7,15,1,1,total,2,images/Ex5.jpg,right,reversed,easy,3,,,,,
,,,,,59ccd702faf42e00012b68f5,001,28,Male,British,College,2024-02-26_16h20.08.399,CRL1e,2023.2.3,Win32,240.3846154,65dbad3905fde4fe1981dc61,65dcba48ca4804590ad253d3,,,,,,,,,,,664.98,1.3,666.279,666.279,666.963,left,1,0.682,,666.963,667.963,2,0,16,7,1,total,2,images/Ex8.jpg,left,reversed,easy,3,,,,,
,,,,,59ccd702faf42e00012b68f5,001,28,Male,British,College,2024-02-26_16h20.08.399,CRL1e,2023.2.3,Win32,240.3846154,65dbad3905fde4fe1981dc61,65dcba48ca4804590ad253d3,,,,,,,,,,,667.964,1.1,669.063,669.063,669.496,left,1,0.432,,669.496,670.497,2,1,17,6,1,total,2,images/Ex8.jpg,left,reversed,easy,3,,,,,
,,,,,59ccd702faf42e00012b68f5,001,28,Male,British,College,2024-02-26_16h20.08.399,CRL1e,2023.2.3,Win32,240.3846154,65dbad3905fde4fe1981dc61,65dcba48ca4804590ad253d3,,,,,,,,,,,670.497,1.3,671.797,671.797,672.401,right,1,0.601,,672.401,673.401,2,2,18,1,1,total,2,images/Ex5.jpg,right,reversed,easy,3,,,,,
,,,,,59ccd702faf42e00012b68f5,001,28,Male,British,College,2024-02-26_16h20.08.399,CRL1e,2023.2.3,Win32,240.3846154,65dbad3905fde4fe1981dc61,65dcba48ca4804590ad253d3,,,,,,,,,,,673.402,0.7,674.101,674.102,674.551,left,1,0.448,,674.551,675.551,2,3,19,4,1,total,2,images/Ex7.jpg,left,reversed,easy,3,,,,,
,,,,,59ccd702faf42e00012b68f5,001,28,Male,British,College,2024-02-26_16h20.08.399,CRL1e,2023.2.3,Win32,240.3846154,65dbad3905fde4fe1981dc61,65dcba48ca4804590ad253d3,,,,,,,,,,,675.552,1.2,676.751,676.751,677.205,left,0,0.451,,677.205,678.206,2,4,20,0,1,total,2,images/Ex5.jpg,right,reversed,easy,3,,,,,
,,,,,59ccd702faf42e00012b68f5,001,28,Male,British,College,2024-02-26_16h20.08.399,CRL1e,2023.2.3,Win32,240.3846154,65dbad3905fde4fe1981dc61,65dcba48ca4804590ad253d3,,,,,,,,,,,678.206,0.9,679.106,679.106,679.743,right,1,0.636,,679.743,680.74,2,5,21,2,1,total,2,images/Ex6.jpg,right,reversed,easy,3,,,,,
,,,,,59ccd702faf42e00012b68f5,001,28,Male,British,College,2024-02-26_16h20.08.399,CRL1e,2023.2.3,Win32,240.3846154,65dbad3905fde4fe1981dc61,65dcba48ca4804590ad253d3,,,,,,,,,,,680.74,0.8,681.537,681.537,682.043,right,1,0.503,,682.043,683.044,2,6,22,3,1,total,2,images/Ex6.jpg,right,reversed,easy,3,,,,,
,,,,,59ccd702faf42e00012b68f5,001,28,Male,British,College,2024-02-26_16h20.08.399,CRL1e,2023.2.3,Win32,240.3846154,65dbad3905fde4fe1981dc61,65dcba48ca4804590ad253d3,,,,,,,,,,,683.044,1.3,684.344,684.344,684.889,left,1,0.543,,684.889,685.886,2,7,23,5,1,total,2,images/Ex7.jpg,left,reversed,easy,3,,,,,
,,,,,59ccd702faf42e00012b68f5,001,28,Male,British,College,2024-02-26_16h20.08.399,CRL1e,2023.2.3,Win32,240.3846154,65dbad3905fde4fe1981dc61,65dcba48ca4804590ad253d3,,,,,,,,,,,685.886,0.9,686.785,686.785,687.319,right,0,0.531,,687.319,688.319,3,0,24,6,1,total,2,images/Ex8.jpg,left,reversed,easy,3,,,,,
,,,,,59ccd702faf42e00012b68f5,001,28,Male,British,College,2024-02-26_16h20.08.399,CRL1e,2023.2.3,Win32,240.3846154,65dbad3905fde4fe1981dc61,65dcba48ca4804590ad253d3,,,,,,,,,,,688.32,1.5,689.819,689.819,690.411,left,1,0.589,,690.411,691.412,3,1,25,4,1,total,2,images/Ex7.jpg,left,reversed,easy,3,,,,,
,,,,,59ccd702faf42e00012b68f5,001,28,Male,British,College,2024-02-26_16h20.08.399,CRL1e,2023.2.3,Win32,240.3846154,65dbad3905fde4fe1981dc61,65dcba48ca4804590ad253d3,,,,,,,,,,,691.412,0.6,692.011,692.011,692.478,left,0,0.466,,692.478,693.478,3,2,26,1,1,total,2,images/Ex5.jpg,right,reversed,easy,3,,,,,
,,,,,59ccd702faf42e00012b68f5,001,28,Male,British,College,2024-02-26_16h20.08.399,CRL1e,2023.2.3,Win32,240.3846154,65dbad3905fde4fe1981dc61,65dcba48ca4804590ad253d3,,,,,,,,,,,693.478,1.4,694.878,694.878,695.537,left,1,0.656,,695.537,696.537,3,3,27,7,1,total,2,images/Ex8.jpg,left,reversed,easy,3,,,,,
,,,,,59ccd702faf42e00012b68f5,001,28,Male,British,College,2024-02-26_16h20.08.399,CRL1e,2023.2.3,Win32,240.3846154,65dbad3905fde4fe1981dc61,65dcba48ca4804590ad253d3,,,,,,,,,,,696.539,1.2,697.736,697.736,698.278,left,1,0.537,,698.278,699.279,3,4,28,5,1,total,2,images/Ex7.jpg,left,reversed,easy,3,,,,,
,,,,,59ccd702faf42e00012b68f5,001,28,Male,British,College,2024-02-26_16h20.08.399,CRL1e,2023.2.3,Win32,240.3846154,65dbad3905fde4fe1981dc61,65dcba48ca4804590ad253d3,,,,,,,,,,,699.279,0.5,699.779,699.779,700.32,right,1,0.54,,700.32,701.317,3,5,29,3,1,total,2,images/Ex6.jpg,right,reversed,easy,3,,,,,
,,,,,59ccd702faf42e00012b68f5,001,28,Male,British,College,2024-02-26_16h20.08.399,CRL1e,2023.2.3,Win32,240.3846154,65dbad3905fde4fe1981dc61,65dcba48ca4804590ad253d3,,,,,,,,,,,701.318,0.7,702.016,702.016,702.546,right,1,0.528,,702.546,703.546,3,6,30,2,1,total,2,images/Ex6.jpg,right,reversed,easy,3,,,,,
,,,,,59ccd702faf42e00012b68f5,001,28,Male,British,College,2024-02-26_16h20.08.399,CRL1e,2023.2.3,Win32,240.3846154,65dbad3905fde4fe1981dc61,65dcba48ca4804590ad253d3,,,,,,,,,,,703.546,1.2,704.746,704.746,705.287,right,1,0.541,,705.287,706.288,3,7,31,0,1,total,2,images/Ex5.jpg,right,reversed,easy,3,,,,,
,,,,,59ccd702faf42e00012b68f5,001,28,Male,British,College,2024-02-26_16h20.08.399,CRL1e,2023.2.3,Win32,240.3846154,65dbad3905fde4fe1981dc61,65dcba48ca4804590ad253d3,,,,,,,,,,,706.288,1.3,707.588,707.588,708.1,right,1,0.51,,708.1,709.1,4,0,32,3,1,total,2,images/Ex6.jpg,right,reversed,easy,3,,,,,
,,,,,59ccd702faf42e00012b68f5,001,28,Male,British,College,2024-02-26_16h20.08.399,CRL1e,2023.2.3,Win32,240.3846154,65dbad3905fde4fe1981dc61,65dcba48ca4804590ad253d3,,,,,,,,,,,709.1,0.9,710,710,710.538,left,1,0.534,,710.538,711.538,4,1,33,5,1,total,2,images/Ex7.jpg,left,reversed,easy,3,,,,,
,,,,,59ccd702faf42e00012b68f5,001,28,Male,British,College,2024-02-26_16h20.08.399,CRL1e,2023.2.3,Win32,240.3846154,65dbad3905fde4fe1981dc61,65dcba48ca4804590ad253d3,,,,,,,,,,,711.538,0.6,712.138,712.138,712.638,right,1,0.497,,712.638,713.638,4,2,34,0,1,total,2,images/Ex5.jpg,right,reversed,easy,3,,,,,
,,,,,59ccd702faf42e00012b68f5,001,28,Male,British,College,2024-02-26_16h20.08.399,CRL1e,2023.2.3,Win32,240.3846154,65dbad3905fde4fe1981dc61,65dcba48ca4804590ad253d3,,,,,,,,,,,713.638,0.9,714.538,714.538,715.067,right,0,0.526,,715.067,716.064,4,3,35,6,1,total,2,images/Ex8.jpg,left,reversed,easy,3,,,,,
,,,,,59ccd702faf42e00012b68f5,001,28,Male,British,College,2024-02-26_16h20.08.399,CRL1e,2023.2.3,Win32,240.3846154,65dbad3905fde4fe1981dc61,65dcba48ca4804590ad253d3,,,,,,,,,,,716.064,0.9,716.963,716.963,717.409,left,1,0.442,,717.409,718.406,4,4,36,7,1,total,2,images/Ex8.jpg,left,reversed,easy,3,,,,,
,,,,,59ccd702faf42e00012b68f5,001,28,Male,British,College,2024-02-26_16h20.08.399,CRL1e,2023.2.3,Win32,240.3846154,65dbad3905fde4fe1981dc61,65dcba48ca4804590ad253d3,,,,,,,,,,,718.406,1.5,719.906,719.906,720.452,left,1,0.543,,720.452,721.452,4,5,37,4,1,total,2,images/Ex7.jpg,left,reversed,easy,3,,,,,
,,,,,59ccd702faf42e00012b68f5,001,28,Male,British,College,2024-02-26_16h20.08.399,CRL1e,2023.2.3,Win32,240.3846154,65dbad3905fde4fe1981dc61,65dcba48ca4804590ad253d3,,,,,,,,,,,721.452,1.1,722.552,722.552,723.185,right,1,0.632,,723.185,724.185,4,6,38,1,1,total,2,images/Ex5.jpg,right,reversed,easy,3,,,,,
,,,,,59ccd702faf42e00012b68f5,001,28,Male,British,College,2024-02-26_16h20.08.399,CRL1e,2023.2.3,Win32,240.3846154,65dbad3905fde4fe1981dc61,65dcba48ca4804590ad253d3,,,,,,,,,,,724.185,0.7,724.885,724.885,725.568,right,1,0.682,,725.568,726.565,4,7,39,2,1,total,2,images/Ex6.jpg,right,reversed,easy,3,,,,,
,,,,,59ccd702faf42e00012b68f5,001,28,Male,British,College,2024-02-26_16h20.08.399,CRL1e,2023.2.3,Win32,240.3846154,65dbad3905fde4fe1981dc61,65dcba48ca4804590ad253d3,,,,,,,,,,,726.565,0.6,727.165,727.165,727.798,left,1,0.632,,727.798,728.798,5,0,40,7,1,total,2,images/Ex8.jpg,left,reversed,easy,3,,,,,
,,,,,59ccd702faf42e00012b68f5,001,28,Male,British,College,2024-02-26_16h20.08.399,CRL1e,2023.2.3,Win32,240.3846154,65dbad3905fde4fe1981dc61,65dcba48ca4804590ad253d3,,,,,,,,,,,728.798,0.8,729.598,729.599,730.578,left,1,0.977,,730.578,731.577,5,1,41,5,1,total,2,images/Ex7.jpg,left,reversed,easy,3,,,,,
,,,,,59ccd702faf42e00012b68f5,001,28,Male,British,College,2024-02-26_16h20.08.399,CRL1e,2023.2.3,Win32,240.3846154,65dbad3905fde4fe1981dc61,65dcba48ca4804590ad253d3,,,,,,,,,,,731.578,1,732.577,732.577,733.152,left,1,0.571,,733.152,734.149,5,2,42,6,1,total,2,images/Ex8.jpg,left,reversed,easy,3,,,,,
,,,,,59ccd702faf42e00012b68f5,001,28,Male,British,College,2024-02-26_16h20.08.399,CRL1e,2023.2.3,Win32,240.3846154,65dbad3905fde4fe1981dc61,65dcba48ca4804590ad253d3,,,,,,,,,,,734.149,1,735.148,735.148,735.824,left,1,0.672,,735.824,736.824,5,3,43,4,1,total,2,images/Ex7.jpg,left,reversed,easy,3,,,,,
,,,,,59ccd702faf42e00012b68f5,001,28,Male,British,College,2024-02-26_16h20.08.399,CRL1e,2023.2.3,Win32,240.3846154,65dbad3905fde4fe1981dc61,65dcba48ca4804590ad253d3,,,,,,,,,,,736.825,0.5,737.324,737.324,737.844,left,0,0.518,,737.844,738.844,5,4,44,1,1,total,2,images/Ex5.jpg,right,reversed,easy,3,,,,,
,,,,,59ccd702faf42e00012b68f5,001,28,Male,British,College,2024-02-26_16h20.08.399,CRL1e,2023.2.3,Win32,240.3846154,65dbad3905fde4fe1981dc61,65dcba48ca4804590ad253d3,,,,,,,,,,,738.845,0.9,739.745,739.745,740.461,right,1,0.714,,740.461,741.458,5,5,45,3,1,total,2,images/Ex6.jpg,right,reversed,easy,3,,,,,
,,,,,59ccd702faf42e00012b68f5,001,28,Male,British,College,2024-02-26_16h20.08.399,CRL1e,2023.2.3,Win32,240.3846154,65dbad3905fde4fe1981dc61,65dcba48ca4804590ad253d3,,,,,,,,,,,741.458,1,742.458,742.458,743.032,right,1,0.574,,743.032,744.033,5,6,46,2,1,total,2,images/Ex6.jpg,right,reversed,easy,3,,,,,
,,,,,59ccd702faf42e00012b68f5,001,28,Male,British,College,2024-02-26_16h20.08.399,CRL1e,2023.2.3,Win32,240.3846154,65dbad3905fde4fe1981dc61,65dcba48ca4804590ad253d3,,,,,,,,,,,744.033,1.1,745.133,745.133,745.808,right,1,0.673,,745.808,746.808,5,7,47,0,1,total,2,images/Ex5.jpg,right,reversed,easy,3,,,,,
,,,,,59ccd702faf42e00012b68f5,001,28,Male,British,College,2024-02-26_16h20.08.399,CRL1e,2023.2.3,Win32,240.3846154,65dbad3905fde4fe1981dc61,65dcba48ca4804590ad253d3,,,,,,,,,,,,,,,,,,,,,,,,,,,,,,,,,,746.809,773.824,space,27.004,