infCons.started,infCons.stopped,resp_consent.keys,resp_consent.rt,resp_consent.duration,participant,session,Age?,Gender?,Nationality?,Highest Educational Degree?,date,expName,psychopyVersion,OS,frameRate,STUDY_ID,SESSION_ID,instructions.started,instructions.stopped,resp_instructions.keys,resp_instructions.rt,resp_instructions.duration,nextTask.started,nextTask.stopped,ready_task.keys,ready_task.rt,ready_task.duration,fixation.started,ITI,fixation.stopped,stim.started,stim.stopped,response.keys,response.corr,response.rt,response.duration,feedback.started,feedback.stopped,trials.thisRepN,trials.thisTrialN,trials.thisN,trials.thisIndex,trials.ran,task,phase,Exemplars,r_correct,condition,difficulty,set,end.started,end.stopped,resp_end.keys,resp_end.rt,resp_end.duration
0.0002,3.1811,space,3.1538,,5c3d5129a9bfb4000168e299,001,24,Male,British,BSC,2024-02-25_21h21.14.159,CRL1e,2023.2.3,Win32,59.88023952,65dbad3905fde4fe1981dc61,65dbaebb1e20f3e24a5992f4,,,,,,,,,,,,,,,,,,,,,,,,,,,,,,,,,,,,,,
,,,,,5c3d5129a9bfb4000168e299,001,24,Male,British,BSC,2024-02-25_21h21.14.159,CRL1e,2023.2.3,Win32,59.88023952,65dbad3905fde4fe1981dc61,65dbaebb1e20f3e24a5992f4,3.1812,5.4191,space,2.2227,,,,,,,,,,,,,,,,,,,,,,,,,,,,,,,,,,
,,,,,5c3d5129a9bfb4000168e299,001,24,Male,British,BSC,2024-02-25_21h21.14.159,CRL1e,2023.2.3,Win32,59.88023952,65dbad3905fde4fe1981dc61,65dbaebb1e20f3e24a5992f4,,,,,,5.4225,7.9081,space,2.463,,7.9124,0.9,8.8102,8.8106,17.4958,left,0,8.6724,,17.496,18.4979,0,0,0,5,1,total,1,images/Ex3.jpg,right,training,easy,1,,,,,
,,,,,5c3d5129a9bfb4000168e299,001,24,Male,British,BSC,2024-02-25_21h21.14.159,CRL1e,2023.2.3,Win32,59.88023952,65dbad3905fde4fe1981dc61,65dbaebb1e20f3e24a5992f4,,,,,,,,,,,18.4986,1.3,19.8006,19.8006,20.5691,right,0,0.7617,,20.5691,21.5715,0,1,1,0,1,total,1,images/Ex1.jpg,left,training,easy,1,,,,,
,,,,,5c3d5129a9bfb4000168e299,001,24,Male,British,BSC,2024-02-25_21h21.14.159,CRL1e,2023.2.3,Win32,59.88023952,65dbad3905fde4fe1981dc61,65dbaebb1e20f3e24a5992f4,,,,,,,,,,,21.5719,1.1,22.6734,22.6734,23.7761,left,0,1.0992,,23.7761,24.7781,0,2,2,7,1,total,1,images/Ex4.jpg,right,training,easy,1,,,,,
,,,,,5c3d5129a9bfb4000168e299,001,24,Male,British,BSC,2024-02-25_21h21.14.159,CRL1e,2023.2.3,Win32,59.88023952,65dbad3905fde4fe1981dc61,65dbaebb1e20f3e24a5992f4,,,,,,,,,,,24.7784,0.7,25.4796,25.4797,26.9832,right,0,1.4952,,26.9832,27.9857,0,3,3,2,1,total,1,images/Ex2.jpg,left,training,easy,1,,,,,
,,,,,5c3d5129a9bfb4000168e299,001,24,Male,British,BSC,2024-02-25_21h21.14.159,CRL1e,2023.2.3,Win32,59.88023952,65dbad3905fde4fe1981dc61,65dbaebb1e20f3e24a5992f4,,,,,,,,,,,27.9863,1.3,29.2881,29.2881,30.1235,right,1,0.8231,,30.1236,31.1253,0,4,4,6,1,total,1,images/Ex4.jpg,right,training,easy,1,,,,,
,,,,,5c3d5129a9bfb4000168e299,001,24,Male,British,BSC,2024-02-25_21h21.14.159,CRL1e,2023.2.3,Win32,59.88023952,65dbad3905fde4fe1981dc61,65dbaebb1e20f3e24a5992f4,,,,,,,,,,,31.1256,1.2,32.3131,32.3131,32.8806,left,0,0.5532,,32.8807,33.8817,0,5,5,4,1,total,1,images/Ex3.jpg,right,training,easy,1,,,,,
,,,,,5c3d5129a9bfb4000168e299,001,24,Male,British,BSC,2024-02-25_21h21.14.159,CRL1e,2023.2.3,Win32,59.88023952,65dbad3905fde4fe1981dc61,65dbaebb1e20f3e24a5992f4,,,,,,,,,,,33.8819,1.2,35.0839,35.084,36.0863,left,1,0.9975,,36.0863,37.0884,0,6,6,3,1,total,1,images/Ex2.jpg,left,training,easy,1,,,,,
,,,,,5c3d5129a9bfb4000168e299,001,24,Male,British,BSC,2024-02-25_21h21.14.159,CRL1e,2023.2.3,Win32,59.88023952,65dbad3905fde4fe1981dc61,65dbaebb1e20f3e24a5992f4,,,,,,,,,,,37.0888,1.2,38.2911,38.2912,39.043,right,0,0.7432,,39.0431,40.0448,0,7,7,1,1,total,1,images/Ex1.jpg,left,training,easy,1,,,,,
,,,,,5c3d5129a9bfb4000168e299,001,24,Male,British,BSC,2024-02-25_21h21.14.159,CRL1e,2023.2.3,Win32,59.88023952,65dbad3905fde4fe1981dc61,65dbaebb1e20f3e24a5992f4,,,,,,,,,,,40.0452,1.3,41.3479,41.3479,42.1664,left,1,0.8159,,42.1664,43.1565,1,0,8,2,1,total,1,images/Ex2.jpg,left,training,easy,1,,,,,
,,,,,5c3d5129a9bfb4000168e299,001,24,Male,British,BSC,2024-02-25_21h21.14.159,CRL1e,2023.2.3,Win32,59.88023952,65dbad3905fde4fe1981dc61,65dbaebb1e20f3e24a5992f4,,,,,,,,,,,43.1569,1.4,44.5547,44.5547,45.0393,left,1,0.4833,,45.0393,46.0414,1,1,9,1,1,total,1,images/Ex1.jpg,left,training,easy,1,,,,,
,,,,,5c3d5129a9bfb4000168e299,001,24,Male,British,BSC,2024-02-25_21h21.14.159,CRL1e,2023.2.3,Win32,59.88023952,65dbad3905fde4fe1981dc61,65dbaebb1e20f3e24a5992f4,,,,,,,,,,,46.0417,0.5,46.5424,46.5424,47.1606,right,1,0.6081,,47.1606,48.1627,1,2,10,7,1,total,1,images/Ex4.jpg,right,training,easy,1,,,,,
,,,,,5c3d5129a9bfb4000168e299,001,24,Male,British,BSC,2024-02-25_21h21.14.159,CRL1e,2023.2.3,Win32,59.88023952,65dbad3905fde4fe1981dc61,65dbaebb1e20f3e24a5992f4,,,,,,,,,,,48.163,1.1,49.2652,49.2652,49.7832,right,1,0.5105,,49.7832,50.7852,1,3,11,6,1,total,1,images/Ex4.jpg,right,training,easy,1,,,,,
,,,,,5c3d5129a9bfb4000168e299,001,24,Male,British,BSC,2024-02-25_21h21.14.159,CRL1e,2023.2.3,Win32,59.88023952,65dbad3905fde4fe1981dc61,65dbaebb1e20f3e24a5992f4,,,,,,,,,,,50.7854,0.5,51.2866,51.2866,51.7876,left,0,0.4916,,51.7876,52.7894,1,4,12,4,1,total,1,images/Ex3.jpg,right,training,easy,1,,,,,
,,,,,5c3d5129a9bfb4000168e299,001,24,Male,British,BSC,2024-02-25_21h21.14.159,CRL1e,2023.2.3,Win32,59.88023952,65dbad3905fde4fe1981dc61,65dbaebb1e20f3e24a5992f4,,,,,,,,,,,52.7898,0.9,53.6914,53.6914,54.1926,left,1,0.4942,,54.1927,55.1948,1,5,13,0,1,total,1,images/Ex1.jpg,left,training,easy,1,,,,,
,,,,,5c3d5129a9bfb4000168e299,001,24,Male,British,BSC,2024-02-25_21h21.14.159,CRL1e,2023.2.3,Win32,59.88023952,65dbad3905fde4fe1981dc61,65dbaebb1e20f3e24a5992f4,,,,,,,,,,,55.195,0.9,56.0967,56.0968,56.4142,left,0,0.3087,,56.4142,57.4163,1,6,14,5,1,total,1,images/Ex3.jpg,right,training,easy,1,,,,,
,,,,,5c3d5129a9bfb4000168e299,001,24,Male,British,BSC,2024-02-25_21h21.14.159,CRL1e,2023.2.3,Win32,59.88023952,65dbad3905fde4fe1981dc61,65dbaebb1e20f3e24a5992f4,,,,,,,,,,,57.4166,0.9,58.3182,58.3182,58.7026,left,1,0.3754,,58.7026,59.7046,1,7,15,3,1,total,1,images/Ex2.jpg,left,training,easy,1,,,,,
,,,,,5c3d5129a9bfb4000168e299,001,24,Male,British,BSC,2024-02-25_21h21.14.159,CRL1e,2023.2.3,Win32,59.88023952,65dbad3905fde4fe1981dc61,65dbaebb1e20f3e24a5992f4,,,,,,,,,,,59.705,1.3,61.0075,61.0075,61.6089,left,0,0.5961,,61.609,62.6109,2,0,16,7,1,total,1,images/Ex4.jpg,right,training,easy,1,,,,,
,,,,,5c3d5129a9bfb4000168e299,001,24,Male,British,BSC,2024-02-25_21h21.14.159,CRL1e,2023.2.3,Win32,59.88023952,65dbad3905fde4fe1981dc61,65dbaebb1e20f3e24a5992f4,,,,,,,,,,,62.6114,0.8,63.4127,63.4128,63.8138,left,0,0.388,,63.8138,64.8163,2,1,17,6,1,total,1,images/Ex4.jpg,right,training,easy,1,,,,,
,,,,,5c3d5129a9bfb4000168e299,001,24,Male,British,BSC,2024-02-25_21h21.14.159,CRL1e,2023.2.3,Win32,59.88023952,65dbad3905fde4fe1981dc61,65dbaebb1e20f3e24a5992f4,,,,,,,,,,,64.8166,1.5,66.3192,66.3192,66.8705,left,1,0.537,,66.8706,67.8731,2,2,18,3,1,total,1,images/Ex2.jpg,left,training,easy,1,,,,,
,,,,,5c3d5129a9bfb4000168e299,001,24,Male,British,BSC,2024-02-25_21h21.14.159,CRL1e,2023.2.3,Win32,59.88023952,65dbad3905fde4fe1981dc61,65dbaebb1e20f3e24a5992f4,,,,,,,,,,,67.8733,0.6,68.4739,68.4739,69.2256,right,1,0.7417,,69.2256,70.2277,2,3,19,5,1,total,1,images/Ex3.jpg,right,training,easy,1,,,,,
,,,,,5c3d5129a9bfb4000168e299,001,24,Male,British,BSC,2024-02-25_21h21.14.159,CRL1e,2023.2.3,Win32,59.88023952,65dbad3905fde4fe1981dc61,65dbaebb1e20f3e24a5992f4,,,,,,,,,,,70.2279,0.5,70.7288,70.7288,71.3639,left,1,0.625,,71.364,72.3657,2,4,20,1,1,total,1,images/Ex1.jpg,left,training,easy,1,,,,,
,,,,,5c3d5129a9bfb4000168e299,001,24,Male,British,BSC,2024-02-25_21h21.14.159,CRL1e,2023.2.3,Win32,59.88023952,65dbad3905fde4fe1981dc61,65dbaebb1e20f3e24a5992f4,,,,,,,,,,,72.366,0.5,72.8667,72.8668,73.602,right,1,0.7217,,73.602,74.604,2,5,21,4,1,total,1,images/Ex3.jpg,right,training,easy,1,,,,,
,,,,,5c3d5129a9bfb4000168e299,001,24,Male,British,BSC,2024-02-25_21h21.14.159,CRL1e,2023.2.3,Win32,59.88023952,65dbad3905fde4fe1981dc61,65dbaebb1e20f3e24a5992f4,,,,,,,,,,,74.6043,1.3,75.9069,75.9069,76.5588,left,1,0.6387,,76.5588,77.5611,2,6,22,2,1,total,1,images/Ex2.jpg,left,training,easy,1,,,,,
,,,,,5c3d5129a9bfb4000168e299,001,24,Male,British,BSC,2024-02-25_21h21.14.159,CRL1e,2023.2.3,Win32,59.88023952,65dbad3905fde4fe1981dc61,65dbaebb1e20f3e24a5992f4,,,,,,,,,,,77.5614,1.5,79.0637,79.0638,79.6317,right,0,0.5634,,79.6318,80.6339,2,7,23,0,1,total,1,images/Ex1.jpg,left,training,easy,1,,,,,
,,,,,5c3d5129a9bfb4000168e299,001,24,Male,British,BSC,2024-02-25_21h21.14.159,CRL1e,2023.2.3,Win32,59.88023952,65dbad3905fde4fe1981dc61,65dbaebb1e20f3e24a5992f4,,,,,,,,,,,80.6341,1.3,81.9367,81.9367,82.5215,left,1,0.5769,,82.5216,83.5237,3,0,24,3,1,total,1,images/Ex2.jpg,left,training,easy,1,,,,,
,,,,,5c3d5129a9bfb4000168e299,001,24,Male,British,BSC,2024-02-25_21h21.14.159,CRL1e,2023.2.3,Win32,59.88023952,65dbad3905fde4fe1981dc61,65dbaebb1e20f3e24a5992f4,,,,,,,,,,,83.5239,0.7,84.2251,84.2251,84.8098,right,1,0.5836,,84.8098,85.8119,3,1,25,5,1,total,1,images/Ex3.jpg,right,training,easy,1,,,,,
,,,,,5c3d5129a9bfb4000168e299,001,24,Male,British,BSC,2024-02-25_21h21.14.159,CRL1e,2023.2.3,Win32,59.88023952,65dbad3905fde4fe1981dc61,65dbaebb1e20f3e24a5992f4,,,,,,,,,,,85.8125,1.4,87.2151,87.2151,87.8165,right,1,0.5933,,87.8165,88.8185,3,2,26,4,1,total,1,images/Ex3.jpg,right,training,easy,1,,,,,
,,,,,5c3d5129a9bfb4000168e299,001,24,Male,British,BSC,2024-02-25_21h21.14.159,CRL1e,2023.2.3,Win32,59.88023952,65dbad3905fde4fe1981dc61,65dbaebb1e20f3e24a5992f4,,,,,,,,,,,88.8188,1.1,89.9209,89.9209,90.3051,left,1,0.3707,,90.3052,91.3072,3,3,27,1,1,total,1,images/Ex1.jpg,left,training,easy,1,,,,,
,,,,,5c3d5129a9bfb4000168e299,001,24,Male,British,BSC,2024-02-25_21h21.14.159,CRL1e,2023.2.3,Win32,59.88023952,65dbad3905fde4fe1981dc61,65dbaebb1e20f3e24a5992f4,,,,,,,,,,,91.3075,0.7,92.0088,92.0088,92.4432,right,1,0.4278,,92.4433,93.4453,3,4,28,6,1,total,1,images/Ex4.jpg,right,training,easy,1,,,,,
,,,,,5c3d5129a9bfb4000168e299,001,24,Male,British,BSC,2024-02-25_21h21.14.159,CRL1e,2023.2.3,Win32,59.88023952,65dbad3905fde4fe1981dc61,65dbaebb1e20f3e24a5992f4,,,,,,,,,,,93.4455,0.7,94.1469,94.1469,94.7985,right,0,0.6447,,94.7985,95.8007,3,5,29,2,1,total,1,images/Ex2.jpg,left,training,easy,1,,,,,
,,,,,5c3d5129a9bfb4000168e299,001,24,Male,British,BSC,2024-02-25_21h21.14.159,CRL1e,2023.2.3,Win32,59.88023952,65dbad3905fde4fe1981dc61,65dbaebb1e20f3e24a5992f4,,,,,,,,,,,95.8012,0.5,96.3015,96.3015,96.8862,left,1,0.5829,,96.8862,97.8885,3,6,30,0,1,total,1,images/Ex1.jpg,left,training,easy,1,,,,,
,,,,,5c3d5129a9bfb4000168e299,001,24,Male,British,BSC,2024-02-25_21h21.14.159,CRL1e,2023.2.3,Win32,59.88023952,65dbad3905fde4fe1981dc61,65dbaebb1e20f3e24a5992f4,,,,,,,,,,,97.8888,0.6,98.4897,98.4898,99.4085,right,1,0.9146,,99.4085,100.4107,3,7,31,7,1,total,1,images/Ex4.jpg,right,training,easy,1,,,,,
,,,,,5c3d5129a9bfb4000168e299,001,24,Male,British,BSC,2024-02-25_21h21.14.159,CRL1e,2023.2.3,Win32,59.88023952,65dbad3905fde4fe1981dc61,65dbaebb1e20f3e24a5992f4,,,,,,,,,,,100.411,0.9,101.3126,101.3126,101.8972,left,1,0.5743,,101.8973,102.8994,4,0,32,0,1,total,1,images/Ex1.jpg,left,training,easy,1,,,,,
,,,,,5c3d5129a9bfb4000168e299,001,24,Male,British,BSC,2024-02-25_21h21.14.159,CRL1e,2023.2.3,Win32,59.88023952,65dbad3905fde4fe1981dc61,65dbaebb1e20f3e24a5992f4,,,,,,,,,,,102.8996,0.5,103.4004,103.4004,104.2858,right,1,0.8791,,104.2858,105.2879,4,1,33,7,1,total,1,images/Ex4.jpg,right,training,easy,1,,,,,
,,,,,5c3d5129a9bfb4000168e299,001,24,Male,British,BSC,2024-02-25_21h21.14.159,CRL1e,2023.2.3,Win32,59.88023952,65dbad3905fde4fe1981dc61,65dbaebb1e20f3e24a5992f4,,,,,,,,,,,105.2882,1.4,106.691,106.691,107.3926,left,1,0.6936,,107.3927,108.3947,4,2,34,2,1,total,1,images/Ex2.jpg,left,training,easy,1,,,,,
,,,,,5c3d5129a9bfb4000168e299,001,24,Male,British,BSC,2024-02-25_21h21.14.159,CRL1e,2023.2.3,Win32,59.88023952,65dbad3905fde4fe1981dc61,65dbaebb1e20f3e24a5992f4,,,,,,,,,,,108.395,1.4,109.7983,109.7983,110.4161,left,0,0.616,,110.4162,111.4195,4,3,35,6,1,total,1,images/Ex4.jpg,right,training,easy,1,,,,,
,,,,,5c3d5129a9bfb4000168e299,001,24,Male,British,BSC,2024-02-25_21h21.14.159,CRL1e,2023.2.3,Win32,59.88023952,65dbad3905fde4fe1981dc61,65dbaebb1e20f3e24a5992f4,,,,,,,,,,,111.4198,0.6,112.0194,112.0194,112.6377,left,1,0.6156,,112.6377,113.6399,4,4,36,1,1,total,1,images/Ex1.jpg,left,training,easy,1,,,,,
,,,,,5c3d5129a9bfb4000168e299,001,24,Male,British,BSC,2024-02-25_21h21.14.159,CRL1e,2023.2.3,Win32,59.88023952,65dbad3905fde4fe1981dc61,65dbaebb1e20f3e24a5992f4,,,,,,,,,,,113.6404,1.2,114.8422,114.8422,116.0451,left,0,1.1904,,116.0451,117.0471,4,5,37,4,1,total,1,images/Ex3.jpg,right,training,easy,1,,,,,
,,,,,5c3d5129a9bfb4000168e299,001,24,Male,British,BSC,2024-02-25_21h21.14.159,CRL1e,2023.2.3,Win32,59.88023952,65dbad3905fde4fe1981dc61,65dbaebb1e20f3e24a5992f4,,,,,,,,,,,117.0473,0.9,117.949,117.9491,125.0648,left,0,7.1073,,125.0649,126.0669,4,6,38,5,1,total,1,images/Ex3.jpg,right,training,easy,1,,,,,
,,,,,5c3d5129a9bfb4000168e299,001,24,Male,British,BSC,2024-02-25_21h21.14.159,CRL1e,2023.2.3,Win32,59.88023952,65dbad3905fde4fe1981dc61,65dbaebb1e20f3e24a5992f4,,,,,,,,,,,126.0743,1,127.0694,127.0695,128.0547,left,1,0.971,,128.0547,129.0567,4,7,39,3,1,total,1,images/Ex2.jpg,left,training,easy,1,,,,,
,,,,,5c3d5129a9bfb4000168e299,001,24,Male,British,BSC,2024-02-25_21h21.14.159,CRL1e,2023.2.3,Win32,59.88023952,65dbad3905fde4fe1981dc61,65dbaebb1e20f3e24a5992f4,,,,,,,,,,,129.0569,1.5,130.5599,130.56,131.4453,right,1,0.8718,,131.4454,132.4474,5,0,40,5,1,total,1,images/Ex3.jpg,right,training,easy,1,,,,,
,,,,,5c3d5129a9bfb4000168e299,001,24,Male,British,BSC,2024-02-25_21h21.14.159,CRL1e,2023.2.3,Win32,59.88023952,65dbad3905fde4fe1981dc61,65dbaebb1e20f3e24a5992f4,,,,,,,,,,,132.4476,1.4,133.8507,133.8508,134.3687,left,1,0.5048,,134.3687,135.3705,5,1,41,2,1,total,1,images/Ex2.jpg,left,training,easy,1,,,,,
,,,,,5c3d5129a9bfb4000168e299,001,24,Male,British,BSC,2024-02-25_21h21.14.159,CRL1e,2023.2.3,Win32,59.88023952,65dbad3905fde4fe1981dc61,65dbaebb1e20f3e24a5992f4,,,,,,,,,,,135.3709,0.5,135.8716,135.8717,136.4563,right,1,0.5767,,136.4563,137.4584,5,2,42,4,1,total,1,images/Ex3.jpg,right,training,easy,1,,,,,
,,,,,5c3d5129a9bfb4000168e299,001,24,Male,British,BSC,2024-02-25_21h21.14.159,CRL1e,2023.2.3,Win32,59.88023952,65dbad3905fde4fe1981dc61,65dbaebb1e20f3e24a5992f4,,,,,,,,,,,137.4587,1.1,138.5608,138.5608,139.2124,left,0,0.6396,,139.2124,140.2145,5,3,43,7,1,total,1,images/Ex4.jpg,right,training,easy,1,,,,,
,,,,,5c3d5129a9bfb4000168e299,001,24,Male,British,BSC,2024-02-25_21h21.14.159,CRL1e,2023.2.3,Win32,59.88023952,65dbad3905fde4fe1981dc61,65dbaebb1e20f3e24a5992f4,,,,,,,,,,,140.2148,0.9,141.1165,141.1165,141.768,left,1,0.6412,,141.7681,142.7701,5,4,44,3,1,total,1,images/Ex2.jpg,left,training,easy,1,,,,,
,,,,,5c3d5129a9bfb4000168e299,001,24,Male,British,BSC,2024-02-25_21h21.14.159,CRL1e,2023.2.3,Win32,59.88023952,65dbad3905fde4fe1981dc61,65dbaebb1e20f3e24a5992f4,,,,,,,,,,,142.7703,1.2,143.9728,143.9728,144.5408,left,1,0.5552,,144.5408,145.543,5,5,45,1,1,total,1,images/Ex1.jpg,left,training,easy,1,,,,,
,,,,,5c3d5129a9bfb4000168e299,001,24,Male,British,BSC,2024-02-25_21h21.14.159,CRL1e,2023.2.3,Win32,59.88023952,65dbad3905fde4fe1981dc61,65dbaebb1e20f3e24a5992f4,,,,,,,,,,,145.5433,1,146.5453,146.5453,147.2133,left,1,0.654,,147.2133,148.2154,5,6,46,0,1,total,1,images/Ex1.jpg,left,training,easy,1,,,,,
,,,,,5c3d5129a9bfb4000168e299,001,24,Male,British,BSC,2024-02-25_21h21.14.159,CRL1e,2023.2.3,Win32,59.88023952,65dbad3905fde4fe1981dc61,65dbaebb1e20f3e24a5992f4,,,,,,,,,,,148.2157,0.6,148.8166,148.8167,149.585,left,0,0.7638,,149.5851,150.5876,5,7,47,6,1,total,1,images/Ex4.jpg,right,training,easy,1,,,,,
,,,,,5c3d5129a9bfb4000168e299,001,24,Male,British,BSC,2024-02-25_21h21.14.159,CRL1e,2023.2.3,Win32,59.88023952,65dbad3905fde4fe1981dc61,65dbaebb1e20f3e24a5992f4,,,,,,,,,,,150.5906,0.9,151.4892,151.4893,152.9424,right,0,1.4515,,152.9424,153.9447,0,0,0,5,1,total,2,images/Ex3.jpg,left,reversed,easy,1,,,,,
,,,,,5c3d5129a9bfb4000168e299,001,24,Male,British,BSC,2024-02-25_21h21.14.159,CRL1e,2023.2.3,Win32,59.88023952,65dbad3905fde4fe1981dc61,65dbaebb1e20f3e24a5992f4,,,,,,,,,,,153.9449,1.2,155.1479,155.148,155.7656,left,0,0.6057,,155.7656,156.7675,0,1,1,1,1,total,2,images/Ex1.jpg,right,reversed,easy,1,,,,,
,,,,,5c3d5129a9bfb4000168e299,001,24,Male,British,BSC,2024-02-25_21h21.14.159,CRL1e,2023.2.3,Win32,59.88023952,65dbad3905fde4fe1981dc61,65dbaebb1e20f3e24a5992f4,,,,,,,,,,,156.7678,0.5,157.2685,157.2688,158.0036,left,1,0.7219,,158.0037,159.0057,0,2,2,6,1,total,2,images/Ex4.jpg,left,reversed,easy,1,,,,,
,,,,,5c3d5129a9bfb4000168e299,001,24,Male,British,BSC,2024-02-25_21h21.14.159,CRL1e,2023.2.3,Win32,59.88023952,65dbad3905fde4fe1981dc61,65dbaebb1e20f3e24a5992f4,,,,,,,,,,,159.0059,1.4,160.409,160.409,161.1272,right,0,0.7149,,161.1272,162.1292,0,3,3,4,1,total,2,images/Ex3.jpg,left,reversed,easy,1,,,,,
,,,,,5c3d5129a9bfb4000168e299,001,24,Male,British,BSC,2024-02-25_21h21.14.159,CRL1e,2023.2.3,Win32,59.88023952,65dbad3905fde4fe1981dc61,65dbaebb1e20f3e24a5992f4,,,,,,,,,,,162.1294,0.5,162.6304,162.6304,163.1652,left,0,0.5205,,163.1652,164.1669,0,4,4,0,1,total,2,images/Ex1.jpg,right,reversed,easy,1,,,,,
,,,,,5c3d5129a9bfb4000168e299,001,24,Male,British,BSC,2024-02-25_21h21.14.159,CRL1e,2023.2.3,Win32,59.88023952,65dbad3905fde4fe1981dc61,65dbaebb1e20f3e24a5992f4,,,,,,,,,,,164.1672,1.2,165.3697,165.3697,166.1047,left,0,0.7339,,166.1047,167.1068,0,5,5,3,1,total,2,images/Ex2.jpg,right,reversed,easy,1,,,,,
,,,,,5c3d5129a9bfb4000168e299,001,24,Male,British,BSC,2024-02-25_21h21.14.159,CRL1e,2023.2.3,Win32,59.88023952,65dbad3905fde4fe1981dc61,65dbaebb1e20f3e24a5992f4,,,,,,,,,,,167.107,1,168.109,168.1091,168.7607,right,1,0.6428,,168.7607,169.7626,0,6,6,2,1,total,2,images/Ex2.jpg,right,reversed,easy,1,,,,,
,,,,,5c3d5129a9bfb4000168e299,001,24,Male,British,BSC,2024-02-25_21h21.14.159,CRL1e,2023.2.3,Win32,59.88023952,65dbad3905fde4fe1981dc61,65dbaebb1e20f3e24a5992f4,,,,,,,,,,,169.7629,1.3,171.0655,171.0655,172.8027,right,0,1.7291,,172.8027,173.8048,0,7,7,7,1,total,2,images/Ex4.jpg,left,reversed,easy,1,,,,,
,,,,,5c3d5129a9bfb4000168e299,001,24,Male,British,BSC,2024-02-25_21h21.14.159,CRL1e,2023.2.3,Win32,59.88023952,65dbad3905fde4fe1981dc61,65dbaebb1e20f3e24a5992f4,,,,,,,,,,,173.8052,0.5,174.3059,174.3059,174.8072,left,1,0.4849,,174.8072,175.8092,1,0,8,6,1,total,2,images/Ex4.jpg,left,reversed,easy,1,,,,,
,,,,,5c3d5129a9bfb4000168e299,001,24,Male,British,BSC,2024-02-25_21h21.14.159,CRL1e,2023.2.3,Win32,59.88023952,65dbad3905fde4fe1981dc61,65dbaebb1e20f3e24a5992f4,,,,,,,,,,,175.8095,1.3,177.1121,177.1121,178.1143,right,1,0.9926,,178.1143,179.1164,1,1,9,3,1,total,2,images/Ex2.jpg,right,reversed,easy,1,,,,,
,,,,,5c3d5129a9bfb4000168e299,001,24,Male,British,BSC,2024-02-25_21h21.14.159,CRL1e,2023.2.3,Win32,59.88023952,65dbad3905fde4fe1981dc61,65dbaebb1e20f3e24a5992f4,,,,,,,,,,,179.1166,1.2,180.3191,180.3191,180.7535,left,1,0.4193,,180.7535,181.7556,1,2,10,5,1,total,2,images/Ex3.jpg,left,reversed,easy,1,,,,,
,,,,,5c3d5129a9bfb4000168e299,001,24,Male,British,BSC,2024-02-25_21h21.14.159,CRL1e,2023.2.3,Win32,59.88023952,65dbad3905fde4fe1981dc61,65dbaebb1e20f3e24a5992f4,,,,,,,,,,,181.7558,0.8,182.5573,182.5573,182.9417,right,0,0.3706,,182.9417,183.9437,1,3,11,7,1,total,2,images/Ex4.jpg,left,reversed,easy,1,,,,,
,,,,,5c3d5129a9bfb4000168e299,001,24,Male,British,BSC,2024-02-25_21h21.14.159,CRL1e,2023.2.3,Win32,59.88023952,65dbad3905fde4fe1981dc61,65dbaebb1e20f3e24a5992f4,,,,,,,,,,,183.9439,0.6,184.5449,184.545,184.8125,left,0,0.2515,,184.8125,185.8144,1,4,12,0,1,total,2,images/Ex1.jpg,right,reversed,easy,1,,,,,
,,,,,5c3d5129a9bfb4000168e299,001,24,Male,British,BSC,2024-02-25_21h21.14.159,CRL1e,2023.2.3,Win32,59.88023952,65dbad3905fde4fe1981dc61,65dbaebb1e20f3e24a5992f4,,,,,,,,,,,185.8146,1,186.8166,186.8166,187.368,right,0,0.5363,,187.368,188.3701,1,5,13,4,1,total,2,images/Ex3.jpg,left,reversed,easy,1,,,,,
,,,,,5c3d5129a9bfb4000168e299,001,24,Male,British,BSC,2024-02-25_21h21.14.159,CRL1e,2023.2.3,Win32,59.88023952,65dbad3905fde4fe1981dc61,65dbaebb1e20f3e24a5992f4,,,,,,,,,,,188.3704,0.8,189.1718,189.1718,189.4391,right,1,0.2669,,189.4392,190.4413,1,6,14,1,1,total,2,images/Ex1.jpg,right,reversed,easy,1,,,,,
,,,,,5c3d5129a9bfb4000168e299,001,24,Male,British,BSC,2024-02-25_21h21.14.159,CRL1e,2023.2.3,Win32,59.88023952,65dbad3905fde4fe1981dc61,65dbaebb1e20f3e24a5992f4,,,,,,,,,,,190.4415,0.8,191.2431,191.2431,191.8611,left,0,0.6031,,191.8612,192.8632,1,7,15,2,1,total,2,images/Ex2.jpg,right,reversed,easy,1,,,,,
,,,,,5c3d5129a9bfb4000168e299,001,24,Male,British,BSC,2024-02-25_21h21.14.159,CRL1e,2023.2.3,Win32,59.88023952,65dbad3905fde4fe1981dc61,65dbaebb1e20f3e24a5992f4,,,,,,,,,,,192.8636,1.1,193.9658,193.9658,194.6673,left,1,0.6854,,194.6674,195.6695,2,0,16,4,1,total,2,images/Ex3.jpg,left,reversed,easy,1,,,,,
,,,,,5c3d5129a9bfb4000168e299,001,24,Male,British,BSC,2024-02-25_21h21.14.159,CRL1e,2023.2.3,Win32,59.88023952,65dbad3905fde4fe1981dc61,65dbaebb1e20f3e24a5992f4,,,,,,,,,,,195.6696,0.9,196.5714,196.5715,197.2229,left,1,0.6365,,197.2229,198.2252,2,1,17,5,1,total,2,images/Ex3.jpg,left,reversed,easy,1,,,,,
,,,,,5c3d5129a9bfb4000168e299,001,24,Male,British,BSC,2024-02-25_21h21.14.159,CRL1e,2023.2.3,Win32,59.88023952,65dbad3905fde4fe1981dc61,65dbaebb1e20f3e24a5992f4,,,,,,,,,,,198.2253,1.3,199.5279,199.5279,199.8954,right,1,0.3653,,199.8954,200.8975,2,2,18,2,1,total,2,images/Ex2.jpg,right,reversed,easy,1,,,,,
,,,,,5c3d5129a9bfb4000168e299,001,24,Male,British,BSC,2024-02-25_21h21.14.159,CRL1e,2023.2.3,Win32,59.88023952,65dbad3905fde4fe1981dc61,65dbaebb1e20f3e24a5992f4,,,,,,,,,,,200.8977,1.4,202.3007,202.3007,202.7183,right,1,0.4131,,202.7183,203.7204,2,3,19,3,1,total,2,images/Ex2.jpg,right,reversed,easy,1,,,,,
,,,,,5c3d5129a9bfb4000168e299,001,24,Male,British,BSC,2024-02-25_21h21.14.159,CRL1e,2023.2.3,Win32,59.88023952,65dbad3905fde4fe1981dc61,65dbaebb1e20f3e24a5992f4,,,,,,,,,,,203.7206,1.2,204.9231,204.9231,205.491,left,0,0.5575,,205.491,206.4932,2,4,20,1,1,total,2,images/Ex1.jpg,right,reversed,easy,1,,,,,
,,,,,5c3d5129a9bfb4000168e299,001,24,Male,British,BSC,2024-02-25_21h21.14.159,CRL1e,2023.2.3,Win32,59.88023952,65dbad3905fde4fe1981dc61,65dbaebb1e20f3e24a5992f4,,,,,,,,,,,206.4934,1.1,207.5955,207.5955,208.2637,left,1,0.6675,,208.2637,209.2658,2,5,21,6,1,total,2,images/Ex4.jpg,left,reversed,easy,1,,,,,
,,,,,5c3d5129a9bfb4000168e299,001,24,Male,British,BSC,2024-02-25_21h21.14.159,CRL1e,2023.2.3,Win32,59.88023952,65dbad3905fde4fe1981dc61,65dbaebb1e20f3e24a5992f4,,,,,,,,,,,209.266,0.5,209.7669,209.7669,210.3015,right,1,0.522,,210.3015,211.3036,2,6,22,0,1,total,2,images/Ex1.jpg,right,reversed,easy,1,,,,,
,,,,,5c3d5129a9bfb4000168e299,001,24,Male,British,BSC,2024-02-25_21h21.14.159,CRL1e,2023.2.3,Win32,59.88023952,65dbad3905fde4fe1981dc61,65dbaebb1e20f3e24a5992f4,,,,,,,,,,,211.3039,0.9,212.2058,212.2058,212.6734,right,0,0.46,,212.6734,213.6756,2,7,23,7,1,total,2,images/Ex4.jpg,left,reversed,easy,1,,,,,
,,,,,5c3d5129a9bfb4000168e299,001,24,Male,British,BSC,2024-02-25_21h21.14.159,CRL1e,2023.2.3,Win32,59.88023952,65dbad3905fde4fe1981dc61,65dbaebb1e20f3e24a5992f4,,,,,,,,,,,213.6758,1.2,214.8781,214.8781,215.3626,left,1,0.4817,,215.3627,216.3714,3,0,24,6,1,total,2,images/Ex4.jpg,left,reversed,easy,1,,,,,
,,,,,5c3d5129a9bfb4000168e299,001,24,Male,British,BSC,2024-02-25_21h21.14.159,CRL1e,2023.2.3,Win32,59.88023952,65dbad3905fde4fe1981dc61,65dbaebb1e20f3e24a5992f4,,,,,,,,,,,216.3716,1.3,217.6677,217.6677,218.4193,right,1,0.7428,,218.4193,219.4216,3,1,25,0,1,total,2,images/Ex1.jpg,right,reversed,easy,1,,,,,
,,,,,5c3d5129a9bfb4000168e299,001,24,Male,British,BSC,2024-02-25_21h21.14.159,CRL1e,2023.2.3,Win32,59.88023952,65dbad3905fde4fe1981dc61,65dbaebb1e20f3e24a5992f4,,,,,,,,,,,219.4218,1,220.4236,220.4236,220.8413,right,1,0.4103,,220.8413,221.8434,3,2,26,3,1,total,2,images/Ex2.jpg,right,reversed,easy,1,,,,,
,,,,,5c3d5129a9bfb4000168e299,001,24,Male,British,BSC,2024-02-25_21h21.14.159,CRL1e,2023.2.3,Win32,59.88023952,65dbad3905fde4fe1981dc61,65dbaebb1e20f3e24a5992f4,,,,,,,,,,,221.8437,0.7,222.545,222.5451,223.0471,right,1,0.4982,,223.0472,224.0484,3,3,27,2,1,total,2,images/Ex2.jpg,right,reversed,easy,1,,,,,
,,,,,5c3d5129a9bfb4000168e299,001,24,Male,British,BSC,2024-02-25_21h21.14.159,CRL1e,2023.2.3,Win32,59.88023952,65dbad3905fde4fe1981dc61,65dbaebb1e20f3e24a5992f4,,,,,,,,,,,224.0486,0.8,224.8501,224.8501,225.418,left,1,0.567,,225.418,226.4201,3,4,28,7,1,total,2,images/Ex4.jpg,left,reversed,easy,1,,,,,
,,,,,5c3d5129a9bfb4000168e299,001,24,Male,British,BSC,2024-02-25_21h21.14.159,CRL1e,2023.2.3,Win32,59.88023952,65dbad3905fde4fe1981dc61,65dbaebb1e20f3e24a5992f4,,,,,,,,,,,226.4204,1.1,227.5226,227.5226,228.2408,left,1,0.7146,,228.2408,229.2431,3,5,29,5,1,total,2,images/Ex3.jpg,left,reversed,easy,1,,,,,
,,,,,5c3d5129a9bfb4000168e299,001,24,Male,British,BSC,2024-02-25_21h21.14.159,CRL1e,2023.2.3,Win32,59.88023952,65dbad3905fde4fe1981dc61,65dbaebb1e20f3e24a5992f4,,,,,,,,,,,229.2433,1.2,230.4457,230.4458,231.0971,right,1,0.6418,,231.0971,232.0993,3,6,30,1,1,total,2,images/Ex1.jpg,right,reversed,easy,1,,,,,
,,,,,5c3d5129a9bfb4000168e299,001,24,Male,British,BSC,2024-02-25_21h21.14.159,CRL1e,2023.2.3,Win32,59.88023952,65dbad3905fde4fe1981dc61,65dbaebb1e20f3e24a5992f4,,,,,,,,,,,232.0995,1.1,233.2016,233.2016,233.8866,right,0,0.6757,,233.8866,234.8886,3,7,31,4,1,total,2,images/Ex3.jpg,left,reversed,easy,1,,,,,
,,,,,5c3d5129a9bfb4000168e299,001,24,Male,British,BSC,2024-02-25_21h21.14.159,CRL1e,2023.2.3,Win32,59.88023952,65dbad3905fde4fe1981dc61,65dbaebb1e20f3e24a5992f4,,,,,,,,,,,234.8888,1.3,236.1915,236.1916,236.9433,right,1,0.7459,,236.9433,237.9457,4,0,32,1,1,total,2,images/Ex1.jpg,right,reversed,easy,1,,,,,
,,,,,5c3d5129a9bfb4000168e299,001,24,Male,British,BSC,2024-02-25_21h21.14.159,CRL1e,2023.2.3,Win32,59.88023952,65dbad3905fde4fe1981dc61,65dbaebb1e20f3e24a5992f4,,,,,,,,,,,237.9461,0.7,238.6469,238.6469,239.4655,left,1,0.8037,,239.4655,240.4677,4,1,33,7,1,total,2,images/Ex4.jpg,left,reversed,easy,1,,,,,
,,,,,5c3d5129a9bfb4000168e299,001,24,Male,British,BSC,2024-02-25_21h21.14.159,CRL1e,2023.2.3,Win32,59.88023952,65dbad3905fde4fe1981dc61,65dbaebb1e20f3e24a5992f4,,,,,,,,,,,240.468,0.8,241.2693,241.2693,243.4242,left,1,2.1478,,243.4242,244.4263,4,2,34,5,1,total,2,images/Ex3.jpg,left,reversed,easy,1,,,,,
,,,,,5c3d5129a9bfb4000168e299,001,24,Male,British,BSC,2024-02-25_21h21.14.159,CRL1e,2023.2.3,Win32,59.88023952,65dbad3905fde4fe1981dc61,65dbaebb1e20f3e24a5992f4,,,,,,,,,,,244.4265,1.1,245.5287,245.5288,246.1802,right,1,0.6415,,246.1802,247.1824,4,3,35,0,1,total,2,images/Ex1.jpg,right,reversed,easy,1,,,,,
,,,,,5c3d5129a9bfb4000168e299,001,24,Male,British,BSC,2024-02-25_21h21.14.159,CRL1e,2023.2.3,Win32,59.88023952,65dbad3905fde4fe1981dc61,65dbaebb1e20f3e24a5992f4,,,,,,,,,,,247.1826,0.5,247.6834,247.6834,248.4852,right,1,0.7896,,248.4852,249.4874,4,4,36,3,1,total,2,images/Ex2.jpg,right,reversed,easy,1,,,,,
,,,,,5c3d5129a9bfb4000168e299,001,24,Male,British,BSC,2024-02-25_21h21.14.159,CRL1e,2023.2.3,Win32,59.88023952,65dbad3905fde4fe1981dc61,65dbaebb1e20f3e24a5992f4,,,,,,,,,,,249.4876,0.5,249.9885,249.9885,251.0909,left,1,1.0946,,251.091,252.0931,4,5,37,4,1,total,2,images/Ex3.jpg,left,reversed,easy,1,,,,,
,,,,,5c3d5129a9bfb4000168e299,001,24,Male,British,BSC,2024-02-25_21h21.14.159,CRL1e,2023.2.3,Win32,59.88023952,65dbad3905fde4fe1981dc61,65dbaebb1e20f3e24a5992f4,,,,,,,,,,,252.0934,0.8,252.8949,252.8949,253.4796,right,1,0.573,,253.4796,254.4817,4,6,38,2,1,total,2,images/Ex2.jpg,right,reversed,easy,1,,,,,
,,,,,5c3d5129a9bfb4000168e299,001,24,Male,British,BSC,2024-02-25_21h21.14.159,CRL1e,2023.2.3,Win32,59.88023952,65dbad3905fde4fe1981dc61,65dbaebb1e20f3e24a5992f4,,,,,,,,,,,254.4819,0.7,255.1832,255.1833,255.7345,left,1,0.5359,,255.7345,256.7366,4,7,39,6,1,total,2,images/Ex4.jpg,left,reversed,easy,1,,,,,
,,,,,5c3d5129a9bfb4000168e299,001,24,Male,British,BSC,2024-02-25_21h21.14.159,CRL1e,2023.2.3,Win32,59.88023952,65dbad3905fde4fe1981dc61,65dbaebb1e20f3e24a5992f4,,,,,,,,,,,256.7367,0.7,257.4382,257.4382,258.2901,right,1,0.8369,,258.2901,259.2922,5,0,40,2,1,total,2,images/Ex2.jpg,right,reversed,easy,1,,,,,
,,,,,5c3d5129a9bfb4000168e299,001,24,Male,British,BSC,2024-02-25_21h21.14.159,CRL1e,2023.2.3,Win32,59.88023952,65dbad3905fde4fe1981dc61,65dbaebb1e20f3e24a5992f4,,,,,,,,,,,259.2924,1.2,260.4949,260.4949,261.1797,right,0,0.6756,,261.1797,262.1819,5,1,41,7,1,total,2,images/Ex4.jpg,left,reversed,easy,1,,,,,
,,,,,5c3d5129a9bfb4000168e299,001,24,Male,British,BSC,2024-02-25_21h21.14.159,CRL1e,2023.2.3,Win32,59.88023952,65dbad3905fde4fe1981dc61,65dbaebb1e20f3e24a5992f4,,,,,,,,,,,262.1821,1.3,263.4848,263.4848,264.3367,left,1,0.8366,,264.3367,265.3387,5,2,42,5,1,total,2,images/Ex3.jpg,left,reversed,easy,1,,,,,
,,,,,5c3d5129a9bfb4000168e299,001,24,Male,British,BSC,2024-02-25_21h21.14.159,CRL1e,2023.2.3,Win32,59.88023952,65dbad3905fde4fe1981dc61,65dbaebb1e20f3e24a5992f4,,,,,,,,,,,265.3389,0.5,265.8398,265.8399,266.2742,right,1,0.4316,,266.2742,267.2765,5,3,43,1,1,total,2,images/Ex1.jpg,right,reversed,easy,1,,,,,
,,,,,5c3d5129a9bfb4000168e299,001,24,Male,British,BSC,2024-02-25_21h21.14.159,CRL1e,2023.2.3,Win32,59.88023952,65dbad3905fde4fe1981dc61,65dbaebb1e20f3e24a5992f4,,,,,,,,,,,267.2767,0.6,267.8777,267.8777,268.7965,left,1,0.913,,268.7965,269.7986,5,4,44,4,1,total,2,images/Ex3.jpg,left,reversed,easy,1,,,,,
,,,,,5c3d5129a9bfb4000168e299,001,24,Male,British,BSC,2024-02-25_21h21.14.159,CRL1e,2023.2.3,Win32,59.88023952,65dbad3905fde4fe1981dc61,65dbaebb1e20f3e24a5992f4,,,,,,,,,,,269.7989,0.8,270.6003,270.6003,271.0848,right,0,0.4772,,271.0848,272.0869,5,5,45,6,1,total,2,images/Ex4.jpg,left,reversed,easy,1,,,,,
,,,,,5c3d5129a9bfb4000168e299,001,24,Male,British,BSC,2024-02-25_21h21.14.159,CRL1e,2023.2.3,Win32,59.88023952,65dbad3905fde4fe1981dc61,65dbaebb1e20f3e24a5992f4,,,,,,,,,,,272.0871,1.5,273.5902,273.5902,274.1749,right,1,0.5707,,274.175,275.177,5,6,46,0,1,total,2,images/Ex1.jpg,right,reversed,easy,1,,,,,
,,,,,5c3d5129a9bfb4000168e299,001,24,Male,British,BSC,2024-02-25_21h21.14.159,CRL1e,2023.2.3,Win32,59.88023952,65dbad3905fde4fe1981dc61,65dbaebb1e20f3e24a5992f4,,,,,,,,,,,275.1772,1.4,276.58,276.5801,278.5344,right,1,1.9388,,278.5344,279.5366,5,7,47,3,1,total,2,images/Ex2.jpg,right,reversed,easy,1,,,,,
,,,,,5c3d5129a9bfb4000168e299,001,24,Male,British,BSC,2024-02-25_21h21.14.159,CRL1e,2023.2.3,Win32,59.88023952,65dbad3905fde4fe1981dc61,65dbaebb1e20f3e24a5992f4,,,,,,279.5371,281.2237,space,1.6803,,281.2269,0.9,282.1256,282.1256,283.2781,left,0,1.1488,,283.2782,284.2802,0,0,0,7,1,partial,1,images/Ex8.jpg,right,training,easy,1,,,,,
,,,,,5c3d5129a9bfb4000168e299,001,24,Male,British,BSC,2024-02-25_21h21.14.159,CRL1e,2023.2.3,Win32,59.88023952,65dbad3905fde4fe1981dc61,65dbaebb1e20f3e24a5992f4,,,,,,,,,,,284.2805,0.5,284.7815,284.7815,287.5042,left,1,2.7087,,287.5042,288.5063,0,1,1,2,1,partial,1,images/Ex6.jpg,left,training,easy,1,,,,,
,,,,,5c3d5129a9bfb4000168e299,001,24,Male,British,BSC,2024-02-25_21h21.14.159,CRL1e,2023.2.3,Win32,59.88023952,65dbad3905fde4fe1981dc61,65dbaebb1e20f3e24a5992f4,,,,,,,,,,,288.5065,0.7,289.2078,289.2079,291.8635,right,1,2.6539,,291.8636,292.8657,0,2,2,5,1,partial,1,images/Ex7.jpg,right,training,easy,1,,,,,
,,,,,5c3d5129a9bfb4000168e299,001,24,Male,British,BSC,2024-02-25_21h21.14.159,CRL1e,2023.2.3,Win32,59.88023952,65dbad3905fde4fe1981dc61,65dbaebb1e20f3e24a5992f4,,,,,,,,,,,292.8712,0.9,293.7677,293.7678,294.6197,right,1,0.8399,,294.6198,295.6219,0,3,3,4,1,partial,1,images/Ex7.jpg,right,training,easy,1,,,,,
,,,,,5c3d5129a9bfb4000168e299,001,24,Male,British,BSC,2024-02-25_21h21.14.159,CRL1e,2023.2.3,Win32,59.88023952,65dbad3905fde4fe1981dc61,65dbaebb1e20f3e24a5992f4,,,,,,,,,,,295.6221,0.5,296.1229,296.123,297.4927,left,1,1.3638,,297.4928,298.4948,0,4,4,3,1,partial,1,images/Ex6.jpg,left,training,easy,1,,,,,
,,,,,5c3d5129a9bfb4000168e299,001,24,Male,British,BSC,2024-02-25_21h21.14.159,CRL1e,2023.2.3,Win32,59.88023952,65dbad3905fde4fe1981dc61,65dbaebb1e20f3e24a5992f4,,,,,,,,,,,298.495,1,299.4971,299.4971,300.6497,right,1,1.1405,,300.6498,301.6517,0,5,5,6,1,partial,1,images/Ex8.jpg,right,training,easy,1,,,,,
,,,,,5c3d5129a9bfb4000168e299,001,24,Male,British,BSC,2024-02-25_21h21.14.159,CRL1e,2023.2.3,Win32,59.88023952,65dbad3905fde4fe1981dc61,65dbaebb1e20f3e24a5992f4,,,,,,,,,,,301.6519,1.2,302.8544,302.8544,305.2765,left,1,2.4107,,305.2765,306.2786,0,6,6,1,1,partial,1,images/Ex5.jpg,left,training,easy,1,,,,,
,,,,,5c3d5129a9bfb4000168e299,001,24,Male,British,BSC,2024-02-25_21h21.14.159,CRL1e,2023.2.3,Win32,59.88023952,65dbad3905fde4fe1981dc61,65dbaebb1e20f3e24a5992f4,,,,,,,,,,,306.2789,0.8,307.0803,307.0804,307.7819,left,1,0.6971,,307.782,308.784,0,7,7,0,1,partial,1,images/Ex5.jpg,left,training,easy,1,,,,,
,,,,,5c3d5129a9bfb4000168e299,001,24,Male,British,BSC,2024-02-25_21h21.14.159,CRL1e,2023.2.3,Win32,59.88023952,65dbad3905fde4fe1981dc61,65dbaebb1e20f3e24a5992f4,,,,,,,,,,,308.7842,0.9,309.6861,309.6861,310.1371,left,1,0.4392,,310.1371,311.1392,1,0,8,2,1,partial,1,images/Ex6.jpg,left,training,easy,1,,,,,
,,,,,5c3d5129a9bfb4000168e299,001,24,Male,British,BSC,2024-02-25_21h21.14.159,CRL1e,2023.2.3,Win32,59.88023952,65dbad3905fde4fe1981dc61,65dbaebb1e20f3e24a5992f4,,,,,,,,,,,311.1394,1.5,312.6426,312.6426,313.3441,left,1,0.686,,313.3442,314.3462,1,1,9,3,1,partial,1,images/Ex6.jpg,left,training,easy,1,,,,,
,,,,,5c3d5129a9bfb4000168e299,001,24,Male,British,BSC,2024-02-25_21h21.14.159,CRL1e,2023.2.3,Win32,59.88023952,65dbad3905fde4fe1981dc61,65dbaebb1e20f3e24a5992f4,,,,,,,,,,,314.3465,1.5,315.8496,315.8496,316.4343,right,1,0.5834,,316.4343,317.4363,1,2,10,5,1,partial,1,images/Ex7.jpg,right,training,easy,1,,,,,
,,,,,5c3d5129a9bfb4000168e299,001,24,Male,British,BSC,2024-02-25_21h21.14.159,CRL1e,2023.2.3,Win32,59.88023952,65dbad3905fde4fe1981dc61,65dbaebb1e20f3e24a5992f4,,,,,,,,,,,317.4365,1,318.4387,318.4387,319.09,right,1,0.6417,,319.09,320.0922,1,3,11,7,1,partial,1,images/Ex8.jpg,right,training,easy,1,,,,,
,,,,,5c3d5129a9bfb4000168e299,001,24,Male,British,BSC,2024-02-25_21h21.14.159,CRL1e,2023.2.3,Win32,59.88023952,65dbad3905fde4fe1981dc61,65dbaebb1e20f3e24a5992f4,,,,,,,,,,,320.0925,1.5,321.5956,321.5957,322.1134,left,1,0.5076,,322.1134,323.1155,1,4,12,0,1,partial,1,images/Ex5.jpg,left,training,easy,1,,,,,
,,,,,5c3d5129a9bfb4000168e299,001,24,Male,British,BSC,2024-02-25_21h21.14.159,CRL1e,2023.2.3,Win32,59.88023952,65dbad3905fde4fe1981dc61,65dbaebb1e20f3e24a5992f4,,,,,,,,,,,323.1157,1.2,324.3182,324.3182,325.0865,left,1,0.7552,,325.0865,326.0886,1,5,13,1,1,partial,1,images/Ex5.jpg,left,training,easy,1,,,,,
,,,,,5c3d5129a9bfb4000168e299,001,24,Male,British,BSC,2024-02-25_21h21.14.159,CRL1e,2023.2.3,Win32,59.88023952,65dbad3905fde4fe1981dc61,65dbaebb1e20f3e24a5992f4,,,,,,,,,,,326.0888,1.1,327.1912,327.1912,328.1266,right,1,0.9266,,328.1266,329.1287,1,6,14,4,1,partial,1,images/Ex7.jpg,right,training,easy,1,,,,,
,,,,,5c3d5129a9bfb4000168e299,001,24,Male,British,BSC,2024-02-25_21h21.14.159,CRL1e,2023.2.3,Win32,59.88023952,65dbad3905fde4fe1981dc61,65dbaebb1e20f3e24a5992f4,,,,,,,,,,,329.129,1.4,330.5316,330.5317,331.2836,right,1,0.7373,,331.2836,332.2857,1,7,15,6,1,partial,1,images/Ex8.jpg,right,training,easy,1,,,,,
,,,,,5c3d5129a9bfb4000168e299,001,24,Male,British,BSC,2024-02-25_21h21.14.159,CRL1e,2023.2.3,Win32,59.88023952,65dbad3905fde4fe1981dc61,65dbaebb1e20f3e24a5992f4,,,,,,,,,,,332.2862,0.8,333.0873,333.0873,333.8056,right,0,0.7032,,333.8057,334.8078,2,0,16,0,1,partial,1,images/Ex5.jpg,left,training,easy,1,,,,,
,,,,,5c3d5129a9bfb4000168e299,001,24,Male,British,BSC,2024-02-25_21h21.14.159,CRL1e,2023.2.3,Win32,59.88023952,65dbad3905fde4fe1981dc61,65dbaebb1e20f3e24a5992f4,,,,,,,,,,,334.808,0.9,335.7097,335.7097,336.5124,left,1,0.7946,,336.5124,337.5138,2,1,17,3,1,partial,1,images/Ex6.jpg,left,training,easy,1,,,,,
,,,,,5c3d5129a9bfb4000168e299,001,24,Male,British,BSC,2024-02-25_21h21.14.159,CRL1e,2023.2.3,Win32,59.88023952,65dbad3905fde4fe1981dc61,65dbaebb1e20f3e24a5992f4,,,,,,,,,,,337.5139,1.5,339.0169,339.0169,339.6853,right,1,0.6527,,339.6854,340.6873,2,2,18,7,1,partial,1,images/Ex8.jpg,right,training,easy,1,,,,,
,,,,,5c3d5129a9bfb4000168e299,001,24,Male,British,BSC,2024-02-25_21h21.14.159,CRL1e,2023.2.3,Win32,59.88023952,65dbad3905fde4fe1981dc61,65dbaebb1e20f3e24a5992f4,,,,,,,,,,,340.6875,0.7,341.3888,341.3888,341.8899,right,0,0.5006,,341.89,342.8923,2,3,19,1,1,partial,1,images/Ex5.jpg,left,training,easy,1,,,,,
,,,,,5c3d5129a9bfb4000168e299,001,24,Male,British,BSC,2024-02-25_21h21.14.159,CRL1e,2023.2.3,Win32,59.88023952,65dbad3905fde4fe1981dc61,65dbaebb1e20f3e24a5992f4,,,,,,,,,,,342.8924,1.2,344.0949,344.0949,345.9322,left,0,1.822,,345.9322,346.9344,2,4,20,4,1,partial,1,images/Ex7.jpg,right,training,easy,1,,,,,
,,,,,5c3d5129a9bfb4000168e299,001,24,Male,British,BSC,2024-02-25_21h21.14.159,CRL1e,2023.2.3,Win32,59.88023952,65dbad3905fde4fe1981dc61,65dbaebb1e20f3e24a5992f4,,,,,,,,,,,346.9405,1.3,348.2372,348.2372,349.0056,right,1,0.7549,,349.0057,350.0078,2,5,21,5,1,partial,1,images/Ex7.jpg,right,training,easy,1,,,,,
,,,,,5c3d5129a9bfb4000168e299,001,24,Male,British,BSC,2024-02-25_21h21.14.159,CRL1e,2023.2.3,Win32,59.88023952,65dbad3905fde4fe1981dc61,65dbaebb1e20f3e24a5992f4,,,,,,,,,,,350.0079,0.9,350.9099,350.9099,351.6283,right,1,0.7177,,351.6284,352.6302,2,6,22,6,1,partial,1,images/Ex8.jpg,right,training,easy,1,,,,,
,,,,,5c3d5129a9bfb4000168e299,001,24,Male,British,BSC,2024-02-25_21h21.14.159,CRL1e,2023.2.3,Win32,59.88023952,65dbad3905fde4fe1981dc61,65dbaebb1e20f3e24a5992f4,,,,,,,,,,,352.6305,0.6,353.2315,353.2315,353.8663,left,1,0.6288,,353.8663,354.8684,2,7,23,2,1,partial,1,images/Ex6.jpg,left,training,easy,1,,,,,
,,,,,5c3d5129a9bfb4000168e299,001,24,Male,British,BSC,2024-02-25_21h21.14.159,CRL1e,2023.2.3,Win32,59.88023952,65dbad3905fde4fe1981dc61,65dbaebb1e20f3e24a5992f4,,,,,,,,,,,354.8687,0.6,355.4698,355.4698,356.0208,left,1,0.5498,,356.0208,357.0232,3,0,24,3,1,partial,1,images/Ex6.jpg,left,training,easy,1,,,,,
,,,,,5c3d5129a9bfb4000168e299,001,24,Male,British,BSC,2024-02-25_21h21.14.159,CRL1e,2023.2.3,Win32,59.88023952,65dbad3905fde4fe1981dc61,65dbaebb1e20f3e24a5992f4,,,,,,,,,,,357.0234,0.9,357.9251,357.9251,358.6099,right,1,0.682,,358.61,359.6123,3,1,25,6,1,partial,1,images/Ex8.jpg,right,training,easy,1,,,,,
,,,,,5c3d5129a9bfb4000168e299,001,24,Male,British,BSC,2024-02-25_21h21.14.159,CRL1e,2023.2.3,Win32,59.88023952,65dbad3905fde4fe1981dc61,65dbaebb1e20f3e24a5992f4,,,,,,,,,,,359.6125,0.6,360.2135,360.2135,360.8323,right,1,0.607,,360.8324,361.8337,3,2,26,4,1,partial,1,images/Ex7.jpg,right,training,easy,1,,,,,
,,,,,5c3d5129a9bfb4000168e299,001,24,Male,British,BSC,2024-02-25_21h21.14.159,CRL1e,2023.2.3,Win32,59.88023952,65dbad3905fde4fe1981dc61,65dbaebb1e20f3e24a5992f4,,,,,,,,,,,361.834,1.1,362.9361,362.9361,363.6042,left,1,0.6657,,363.6043,364.6064,3,3,27,0,1,partial,1,images/Ex5.jpg,left,training,easy,1,,,,,
,,,,,5c3d5129a9bfb4000168e299,001,24,Male,British,BSC,2024-02-25_21h21.14.159,CRL1e,2023.2.3,Win32,59.88023952,65dbad3905fde4fe1981dc61,65dbaebb1e20f3e24a5992f4,,,,,,,,,,,364.6066,0.6,365.2079,365.2079,365.7422,left,1,0.5246,,365.7422,366.7445,3,4,28,1,1,partial,1,images/Ex5.jpg,left,training,easy,1,,,,,
,,,,,5c3d5129a9bfb4000168e299,001,24,Male,British,BSC,2024-02-25_21h21.14.159,CRL1e,2023.2.3,Win32,59.88023952,65dbad3905fde4fe1981dc61,65dbaebb1e20f3e24a5992f4,,,,,,,,,,,366.7446,1.4,368.1474,368.1474,368.799,right,1,0.6456,,368.799,369.8013,3,5,29,5,1,partial,1,images/Ex7.jpg,right,training,easy,1,,,,,
,,,,,5c3d5129a9bfb4000168e299,001,24,Male,British,BSC,2024-02-25_21h21.14.159,CRL1e,2023.2.3,Win32,59.88023952,65dbad3905fde4fe1981dc61,65dbaebb1e20f3e24a5992f4,,,,,,,,,,,369.8014,0.5,370.3022,370.3022,370.7868,right,0,0.4709,,370.7868,371.7888,3,6,30,2,1,partial,1,images/Ex6.jpg,left,training,easy,1,,,,,
,,,,,5c3d5129a9bfb4000168e299,001,24,Male,British,BSC,2024-02-25_21h21.14.159,CRL1e,2023.2.3,Win32,59.88023952,65dbad3905fde4fe1981dc61,65dbaebb1e20f3e24a5992f4,,,,,,,,,,,371.7889,1.2,372.9915,372.9915,373.6764,right,1,0.6766,,373.6764,374.6786,3,7,31,7,1,partial,1,images/Ex8.jpg,right,training,easy,1,,,,,
,,,,,5c3d5129a9bfb4000168e299,001,24,Male,British,BSC,2024-02-25_21h21.14.159,CRL1e,2023.2.3,Win32,59.88023952,65dbad3905fde4fe1981dc61,65dbaebb1e20f3e24a5992f4,,,,,,,,,,,374.6788,0.9,375.5806,375.5806,376.0649,left,1,0.4798,,376.0649,377.067,4,0,32,1,1,partial,1,images/Ex5.jpg,left,training,easy,1,,,,,
,,,,,5c3d5129a9bfb4000168e299,001,24,Male,British,BSC,2024-02-25_21h21.14.159,CRL1e,2023.2.3,Win32,59.88023952,65dbad3905fde4fe1981dc61,65dbaebb1e20f3e24a5992f4,,,,,,,,,,,377.0673,1.1,378.1695,378.1695,378.6874,right,1,0.5023,,378.6874,379.6895,4,1,33,5,1,partial,1,images/Ex7.jpg,right,training,easy,1,,,,,
,,,,,5c3d5129a9bfb4000168e299,001,24,Male,British,BSC,2024-02-25_21h21.14.159,CRL1e,2023.2.3,Win32,59.88023952,65dbad3905fde4fe1981dc61,65dbaebb1e20f3e24a5992f4,,,,,,,,,,,379.6897,1.4,381.0927,381.0927,381.6271,left,0,0.5184,,381.6271,382.6293,4,2,34,6,1,partial,1,images/Ex8.jpg,right,training,easy,1,,,,,
,,,,,5c3d5129a9bfb4000168e299,001,24,Male,British,BSC,2024-02-25_21h21.14.159,CRL1e,2023.2.3,Win32,59.88023952,65dbad3905fde4fe1981dc61,65dbaebb1e20f3e24a5992f4,,,,,,,,,,,382.6295,1.4,384.0324,384.0324,384.5501,left,1,0.5038,,384.5501,385.5523,4,3,35,3,1,partial,1,images/Ex6.jpg,left,training,easy,1,,,,,
,,,,,5c3d5129a9bfb4000168e299,001,24,Male,British,BSC,2024-02-25_21h21.14.159,CRL1e,2023.2.3,Win32,59.88023952,65dbad3905fde4fe1981dc61,65dbaebb1e20f3e24a5992f4,,,,,,,,,,,385.5525,1.1,386.6548,386.6549,387.3731,left,1,0.7029,,387.3731,388.3753,4,4,36,0,1,partial,1,images/Ex5.jpg,left,training,easy,1,,,,,
,,,,,5c3d5129a9bfb4000168e299,001,24,Male,British,BSC,2024-02-25_21h21.14.159,CRL1e,2023.2.3,Win32,59.88023952,65dbad3905fde4fe1981dc61,65dbaebb1e20f3e24a5992f4,,,,,,,,,,,388.3755,1.4,389.7784,389.7784,390.3128,right,0,0.5329,,390.3128,391.3149,4,5,37,2,1,partial,1,images/Ex6.jpg,left,training,easy,1,,,,,
,,,,,5c3d5129a9bfb4000168e299,001,24,Male,British,BSC,2024-02-25_21h21.14.159,CRL1e,2023.2.3,Win32,59.88023952,65dbad3905fde4fe1981dc61,65dbaebb1e20f3e24a5992f4,,,,,,,,,,,391.3152,1,392.3172,392.3173,392.952,right,1,0.6334,,392.952,393.9541,4,6,38,7,1,partial,1,images/Ex8.jpg,right,training,easy,1,,,,,
,,,,,5c3d5129a9bfb4000168e299,001,24,Male,British,BSC,2024-02-25_21h21.14.159,CRL1e,2023.2.3,Win32,59.88023952,65dbad3905fde4fe1981dc61,65dbaebb1e20f3e24a5992f4,,,,,,,,,,,393.9543,1.3,395.257,395.257,395.8251,left,0,0.5596,,395.8251,396.8271,4,7,39,4,1,partial,1,images/Ex7.jpg,right,training,easy,1,,,,,
,,,,,5c3d5129a9bfb4000168e299,001,24,Male,British,BSC,2024-02-25_21h21.14.159,CRL1e,2023.2.3,Win32,59.88023952,65dbad3905fde4fe1981dc61,65dbaebb1e20f3e24a5992f4,,,,,,,,,,,396.8273,1.2,398.0297,398.0297,398.8483,right,1,0.803,,398.8483,399.8504,5,0,40,4,1,partial,1,images/Ex7.jpg,right,training,easy,1,,,,,
,,,,,5c3d5129a9bfb4000168e299,001,24,Male,British,BSC,2024-02-25_21h21.14.159,CRL1e,2023.2.3,Win32,59.88023952,65dbad3905fde4fe1981dc61,65dbaebb1e20f3e24a5992f4,,,,,,,,,,,399.8506,1.2,401.053,401.053,401.5876,right,1,0.5316,,401.5876,402.5897,5,1,41,5,1,partial,1,images/Ex7.jpg,right,training,easy,1,,,,,
,,,,,5c3d5129a9bfb4000168e299,001,24,Male,British,BSC,2024-02-25_21h21.14.159,CRL1e,2023.2.3,Win32,59.88023952,65dbad3905fde4fe1981dc61,65dbaebb1e20f3e24a5992f4,,,,,,,,,,,402.5899,1,403.5919,403.5919,404.2099,left,1,0.6089,,404.2099,405.2122,5,2,42,3,1,partial,1,images/Ex6.jpg,left,training,easy,1,,,,,
,,,,,5c3d5129a9bfb4000168e299,001,24,Male,British,BSC,2024-02-25_21h21.14.159,CRL1e,2023.2.3,Win32,59.88023952,65dbad3905fde4fe1981dc61,65dbaebb1e20f3e24a5992f4,,,,,,,,,,,405.2124,0.5,405.7132,405.7132,406.3814,left,1,0.6643,,406.3814,407.3835,5,3,43,0,1,partial,1,images/Ex5.jpg,left,training,easy,1,,,,,
,,,,,5c3d5129a9bfb4000168e299,001,24,Male,British,BSC,2024-02-25_21h21.14.159,CRL1e,2023.2.3,Win32,59.88023952,65dbad3905fde4fe1981dc61,65dbaebb1e20f3e24a5992f4,,,,,,,,,,,407.3837,0.9,408.2856,408.2856,409.0371,right,1,0.7466,,409.0371,410.0396,5,4,44,7,1,partial,1,images/Ex8.jpg,right,training,easy,1,,,,,
,,,,,5c3d5129a9bfb4000168e299,001,24,Male,British,BSC,2024-02-25_21h21.14.159,CRL1e,2023.2.3,Win32,59.88023952,65dbad3905fde4fe1981dc61,65dbaebb1e20f3e24a5992f4,,,,,,,,,,,410.0398,1.2,411.242,411.242,411.7599,right,1,0.5125,,411.7599,412.7621,5,5,45,6,1,partial,1,images/Ex8.jpg,right,training,easy,1,,,,,
,,,,,5c3d5129a9bfb4000168e299,001,24,Male,British,BSC,2024-02-25_21h21.14.159,CRL1e,2023.2.3,Win32,59.88023952,65dbad3905fde4fe1981dc61,65dbaebb1e20f3e24a5992f4,,,,,,,,,,,412.7623,0.7,413.4636,413.4636,413.9822,right,0,0.5109,,413.9823,414.9836,5,6,46,1,1,partial,1,images/Ex5.jpg,left,training,easy,1,,,,,
,,,,,5c3d5129a9bfb4000168e299,001,24,Male,British,BSC,2024-02-25_21h21.14.159,CRL1e,2023.2.3,Win32,59.88023952,65dbad3905fde4fe1981dc61,65dbaebb1e20f3e24a5992f4,,,,,,,,,,,414.9839,1.1,416.086,416.086,416.2697,left,1,0.1832,,416.2697,417.272,5,7,47,2,1,partial,1,images/Ex6.jpg,left,training,easy,1,,,,,
,,,,,5c3d5129a9bfb4000168e299,001,24,Male,British,BSC,2024-02-25_21h21.14.159,CRL1e,2023.2.3,Win32,59.88023952,65dbad3905fde4fe1981dc61,65dbaebb1e20f3e24a5992f4,,,,,,,,,,,417.2744,1.2,418.4746,418.4746,418.7084,right,0,0.2181,,418.7085,419.7107,0,0,0,0,1,partial,2,images/Ex5.jpg,left,nonreversed,easy,1,,,,,
,,,,,5c3d5129a9bfb4000168e299,001,24,Male,British,BSC,2024-02-25_21h21.14.159,CRL1e,2023.2.3,Win32,59.88023952,65dbad3905fde4fe1981dc61,65dbaebb1e20f3e24a5992f4,,,,,,,,,,,419.7108,0.9,420.6127,420.6127,421.1304,left,0,0.509,,421.1304,422.1326,0,1,1,3,1,partial,2,images/Ex6.jpg,right,reversed,easy,1,,,,,
,,,,,5c3d5129a9bfb4000168e299,001,24,Male,British,BSC,2024-02-25_21h21.14.159,CRL1e,2023.2.3,Win32,59.88023952,65dbad3905fde4fe1981dc61,65dbaebb1e20f3e24a5992f4,,,,,,,,,,,422.1328,1.2,423.3352,423.3352,424.1704,right,0,0.832,,424.1705,425.1726,0,2,2,1,1,partial,2,images/Ex5.jpg,left,nonreversed,easy,1,,,,,
,,,,,5c3d5129a9bfb4000168e299,001,24,Male,British,BSC,2024-02-25_21h21.14.159,CRL1e,2023.2.3,Win32,59.88023952,65dbad3905fde4fe1981dc61,65dbaebb1e20f3e24a5992f4,,,,,,,,,,,425.1728,0.9,426.0745,426.0745,426.843,right,1,0.756,,426.843,427.8467,0,3,3,4,1,partial,2,images/Ex7.jpg,right,nonreversed,easy,1,,,,,
,,,,,5c3d5129a9bfb4000168e299,001,24,Male,British,BSC,2024-02-25_21h21.14.159,CRL1e,2023.2.3,Win32,59.88023952,65dbad3905fde4fe1981dc61,65dbaebb1e20f3e24a5992f4,,,,,,,,,,,427.8469,1.1,428.9474,428.9475,429.7994,left,0,0.8372,,429.7994,430.8017,0,4,4,2,1,partial,2,images/Ex6.jpg,right,reversed,easy,1,,,,,
,,,,,5c3d5129a9bfb4000168e299,001,24,Male,British,BSC,2024-02-25_21h21.14.159,CRL1e,2023.2.3,Win32,59.88023952,65dbad3905fde4fe1981dc61,65dbaebb1e20f3e24a5992f4,,,,,,,,,,,430.8019,0.8,431.6032,431.6033,432.9062,left,1,1.2945,,432.9062,433.9084,0,5,5,6,1,partial,2,images/Ex8.jpg,left,reversed,easy,1,,,,,
,,,,,5c3d5129a9bfb4000168e299,001,24,Male,British,BSC,2024-02-25_21h21.14.159,CRL1e,2023.2.3,Win32,59.88023952,65dbad3905fde4fe1981dc61,65dbaebb1e20f3e24a5992f4,,,,,,,,,,,433.9086,1.1,435.0107,435.0107,435.6957,left,1,0.6779,,435.6957,436.6978,0,6,6,7,1,partial,2,images/Ex8.jpg,left,reversed,easy,1,,,,,
,,,,,5c3d5129a9bfb4000168e299,001,24,Male,British,BSC,2024-02-25_21h21.14.159,CRL1e,2023.2.3,Win32,59.88023952,65dbad3905fde4fe1981dc61,65dbaebb1e20f3e24a5992f4,,,,,,,,,,,436.6979,1.3,438.0008,438.0008,439.4706,left,0,1.4544,,439.4707,440.4729,0,7,7,5,1,partial,2,images/Ex7.jpg,right,nonreversed,easy,1,,,,,
,,,,,5c3d5129a9bfb4000168e299,001,24,Male,British,BSC,2024-02-25_21h21.14.159,CRL1e,2023.2.3,Win32,59.88023952,65dbad3905fde4fe1981dc61,65dbaebb1e20f3e24a5992f4,,,,,,,,,,,440.473,0.7,441.1743,441.1743,441.7588,right,1,0.5739,,441.7589,442.7612,1,0,8,4,1,partial,2,images/Ex7.jpg,right,nonreversed,easy,1,,,,,
,,,,,5c3d5129a9bfb4000168e299,001,24,Male,British,BSC,2024-02-25_21h21.14.159,CRL1e,2023.2.3,Win32,59.88023952,65dbad3905fde4fe1981dc61,65dbaebb1e20f3e24a5992f4,,,,,,,,,,,442.7615,0.8,443.5629,443.5629,444.2645,right,0,0.6901,,444.2645,445.2667,1,1,9,1,1,partial,2,images/Ex5.jpg,left,nonreversed,easy,1,,,,,
,,,,,5c3d5129a9bfb4000168e299,001,24,Male,British,BSC,2024-02-25_21h21.14.159,CRL1e,2023.2.3,Win32,59.88023952,65dbad3905fde4fe1981dc61,65dbaebb1e20f3e24a5992f4,,,,,,,,,,,445.267,1.5,446.7699,446.7699,447.7554,left,1,0.971,,447.7555,448.7575,1,2,10,7,1,partial,2,images/Ex8.jpg,left,reversed,easy,1,,,,,
,,,,,5c3d5129a9bfb4000168e299,001,24,Male,British,BSC,2024-02-25_21h21.14.159,CRL1e,2023.2.3,Win32,59.88023952,65dbad3905fde4fe1981dc61,65dbaebb1e20f3e24a5992f4,,,,,,,,,,,448.7577,0.8,449.5593,449.5593,450.3944,right,1,0.8286,,450.3944,451.3966,1,3,11,2,1,partial,2,images/Ex6.jpg,right,reversed,easy,1,,,,,
,,,,,5c3d5129a9bfb4000168e299,001,24,Male,British,BSC,2024-02-25_21h21.14.159,CRL1e,2023.2.3,Win32,59.88023952,65dbad3905fde4fe1981dc61,65dbaebb1e20f3e24a5992f4,,,,,,,,,,,451.3968,1.3,452.6996,452.6996,453.468,right,1,0.7562,,453.468,454.4701,1,4,12,5,1,partial,2,images/Ex7.jpg,right,nonreversed,easy,1,,,,,
,,,,,5c3d5129a9bfb4000168e299,001,24,Male,British,BSC,2024-02-25_21h21.14.159,CRL1e,2023.2.3,Win32,59.88023952,65dbad3905fde4fe1981dc61,65dbaebb1e20f3e24a5992f4,,,,,,,,,,,454.4704,1,455.4725,455.4725,455.94,right,1,0.4587,,455.9401,456.9423,1,5,13,3,1,partial,2,images/Ex6.jpg,right,reversed,easy,1,,,,,
,,,,,5c3d5129a9bfb4000168e299,001,24,Male,British,BSC,2024-02-25_21h21.14.159,CRL1e,2023.2.3,Win32,59.88023952,65dbad3905fde4fe1981dc61,65dbaebb1e20f3e24a5992f4,,,,,,,,,,,456.9425,1.1,458.0446,458.0446,458.5959,left,1,0.5414,,458.5959,459.5982,1,6,14,0,1,partial,2,images/Ex5.jpg,left,nonreversed,easy,1,,,,,
,,,,,5c3d5129a9bfb4000168e299,001,24,Male,British,BSC,2024-02-25_21h21.14.159,CRL1e,2023.2.3,Win32,59.88023952,65dbad3905fde4fe1981dc61,65dbaebb1e20f3e24a5992f4,,,,,,,,,,,459.5983,0.9,460.5,460.5,461.1348,left,1,0.6294,,461.1348,462.1368,1,7,15,6,1,partial,2,images/Ex8.jpg,left,reversed,easy,1,,,,,
,,,,,5c3d5129a9bfb4000168e299,001,24,Male,British,BSC,2024-02-25_21h21.14.159,CRL1e,2023.2.3,Win32,59.88023952,65dbad3905fde4fe1981dc61,65dbaebb1e20f3e24a5992f4,,,,,,,,,,,462.1371,0.6,462.7382,462.7382,463.3396,right,1,0.5956,,463.3396,464.3418,2,0,16,3,1,partial,2,images/Ex6.jpg,right,reversed,easy,1,,,,,
,,,,,5c3d5129a9bfb4000168e299,001,24,Male,British,BSC,2024-02-25_21h21.14.159,CRL1e,2023.2.3,Win32,59.88023952,65dbad3905fde4fe1981dc61,65dbaebb1e20f3e24a5992f4,,,,,,,,,,,464.3419,1.4,465.7448,465.7448,466.2628,right,1,0.5059,,466.2628,467.2648,2,1,17,4,1,partial,2,images/Ex7.jpg,right,nonreversed,easy,1,,,,,
,,,,,5c3d5129a9bfb4000168e299,001,24,Male,British,BSC,2024-02-25_21h21.14.159,CRL1e,2023.2.3,Win32,59.88023952,65dbad3905fde4fe1981dc61,65dbaebb1e20f3e24a5992f4,,,,,,,,,,,467.265,1.3,468.5678,468.5678,469.0856,left,1,0.5032,,469.0856,470.0877,2,2,18,6,1,partial,2,images/Ex8.jpg,left,reversed,easy,1,,,,,
,,,,,5c3d5129a9bfb4000168e299,001,24,Male,British,BSC,2024-02-25_21h21.14.159,CRL1e,2023.2.3,Win32,59.88023952,65dbad3905fde4fe1981dc61,65dbaebb1e20f3e24a5992f4,,,,,,,,,,,470.0878,0.6,470.6889,470.689,471.09,left,1,0.3852,,471.09,472.092,2,3,19,0,1,partial,2,images/Ex5.jpg,left,nonreversed,easy,1,,,,,
,,,,,5c3d5129a9bfb4000168e299,001,24,Male,British,BSC,2024-02-25_21h21.14.159,CRL1e,2023.2.3,Win32,59.88023952,65dbad3905fde4fe1981dc61,65dbaebb1e20f3e24a5992f4,,,,,,,,,,,472.0922,0.7,472.7938,472.7938,473.1612,right,0,0.3659,,473.1612,474.1632,2,4,20,7,1,partial,2,images/Ex8.jpg,left,reversed,easy,1,,,,,
,,,,,5c3d5129a9bfb4000168e299,001,24,Male,British,BSC,2024-02-25_21h21.14.159,CRL1e,2023.2.3,Win32,59.88023952,65dbad3905fde4fe1981dc61,65dbaebb1e20f3e24a5992f4,,,,,,,,,,,474.1636,1,475.1654,475.1655,475.5664,left,1,0.3862,,475.5664,476.5687,2,5,21,1,1,partial,2,images/Ex5.jpg,left,nonreversed,easy,1,,,,,
,,,,,5c3d5129a9bfb4000168e299,001,24,Male,British,BSC,2024-02-25_21h21.14.159,CRL1e,2023.2.3,Win32,59.88023952,65dbad3905fde4fe1981dc61,65dbaebb1e20f3e24a5992f4,,,,,,,,,,,476.5689,0.6,477.1699,477.1699,477.6043,left,0,0.4224,,477.6043,478.6064,2,6,22,5,1,partial,2,images/Ex7.jpg,right,nonreversed,easy,1,,,,,
,,,,,5c3d5129a9bfb4000168e299,001,24,Male,British,BSC,2024-02-25_21h21.14.159,CRL1e,2023.2.3,Win32,59.88023952,65dbad3905fde4fe1981dc61,65dbaebb1e20f3e24a5992f4,,,,,,,,,,,478.6066,1.1,479.7088,479.7089,480.5105,right,1,0.8004,,480.5106,481.5128,2,7,23,2,1,partial,2,images/Ex6.jpg,right,reversed,easy,1,,,,,
,,,,,5c3d5129a9bfb4000168e299,001,24,Male,British,BSC,2024-02-25_21h21.14.159,CRL1e,2023.2.3,Win32,59.88023952,65dbad3905fde4fe1981dc61,65dbaebb1e20f3e24a5992f4,,,,,,,,,,,481.513,1.1,482.6151,482.6151,483.5005,right,1,0.8719,,483.5006,484.5026,3,0,24,4,1,partial,2,images/Ex7.jpg,right,nonreversed,easy,1,,,,,
,,,,,5c3d5129a9bfb4000168e299,001,24,Male,British,BSC,2024-02-25_21h21.14.159,CRL1e,2023.2.3,Win32,59.88023952,65dbad3905fde4fe1981dc61,65dbaebb1e20f3e24a5992f4,,,,,,,,,,,484.5028,0.9,485.4048,485.4048,485.8393,right,1,0.4292,,485.8393,486.8411,3,1,25,5,1,partial,2,images/Ex7.jpg,right,nonreversed,easy,1,,,,,
,,,,,5c3d5129a9bfb4000168e299,001,24,Male,British,BSC,2024-02-25_21h21.14.159,CRL1e,2023.2.3,Win32,59.88023952,65dbad3905fde4fe1981dc61,65dbaebb1e20f3e24a5992f4,,,,,,,,,,,486.8413,1.3,488.1439,488.1439,488.8455,left,1,0.6978,,488.8455,489.8477,3,2,26,7,1,partial,2,images/Ex8.jpg,left,reversed,easy,1,,,,,
,,,,,5c3d5129a9bfb4000168e299,001,24,Male,British,BSC,2024-02-25_21h21.14.159,CRL1e,2023.2.3,Win32,59.88023952,65dbad3905fde4fe1981dc61,65dbaebb1e20f3e24a5992f4,,,,,,,,,,,489.8478,1.1,490.9502,490.9502,491.4514,left,1,0.4865,,491.4514,492.4534,3,3,27,0,1,partial,2,images/Ex5.jpg,left,nonreversed,easy,1,,,,,
,,,,,5c3d5129a9bfb4000168e299,001,24,Male,British,BSC,2024-02-25_21h21.14.159,CRL1e,2023.2.3,Win32,59.88023952,65dbad3905fde4fe1981dc61,65dbaebb1e20f3e24a5992f4,,,,,,,,,,,492.4536,0.6,493.0548,493.0548,493.6227,right,1,0.5575,,493.6227,494.6249,3,4,28,2,1,partial,2,images/Ex6.jpg,right,reversed,easy,1,,,,,
,,,,,5c3d5129a9bfb4000168e299,001,24,Male,British,BSC,2024-02-25_21h21.14.159,CRL1e,2023.2.3,Win32,59.88023952,65dbad3905fde4fe1981dc61,65dbaebb1e20f3e24a5992f4,,,,,,,,,,,494.6251,0.7,495.3262,495.3263,495.7773,right,0,0.4457,,495.7773,496.7795,3,5,29,6,1,partial,2,images/Ex8.jpg,left,reversed,easy,1,,,,,
,,,,,5c3d5129a9bfb4000168e299,001,24,Male,British,BSC,2024-02-25_21h21.14.159,CRL1e,2023.2.3,Win32,59.88023952,65dbad3905fde4fe1981dc61,65dbaebb1e20f3e24a5992f4,,,,,,,,,,,496.7797,0.8,497.5813,497.5814,498.166,left,1,0.5695,,498.166,499.1681,3,6,30,1,1,partial,2,images/Ex5.jpg,left,nonreversed,easy,1,,,,,
,,,,,5c3d5129a9bfb4000168e299,001,24,Male,British,BSC,2024-02-25_21h21.14.159,CRL1e,2023.2.3,Win32,59.88023952,65dbad3905fde4fe1981dc61,65dbaebb1e20f3e24a5992f4,,,,,,,,,,,499.1683,0.8,499.9699,499.9699,500.805,right,1,0.8274,,500.805,501.8072,3,7,31,3,1,partial,2,images/Ex6.jpg,right,reversed,easy,1,,,,,
,,,,,5c3d5129a9bfb4000168e299,001,24,Male,British,BSC,2024-02-25_21h21.14.159,CRL1e,2023.2.3,Win32,59.88023952,65dbad3905fde4fe1981dc61,65dbaebb1e20f3e24a5992f4,,,,,,,,,,,501.8074,1.2,503.0098,503.0098,503.5444,right,0,0.5334,,503.5444,504.5465,4,0,32,7,1,partial,2,images/Ex8.jpg,left,reversed,easy,1,,,,,
,,,,,5c3d5129a9bfb4000168e299,001,24,Male,British,BSC,2024-02-25_21h21.14.159,CRL1e,2023.2.3,Win32,59.88023952,65dbad3905fde4fe1981dc61,65dbaebb1e20f3e24a5992f4,,,,,,,,,,,504.5468,0.8,505.3484,505.3484,505.9997,right,1,0.6386,,505.9998,507.0019,4,1,33,5,1,partial,2,images/Ex7.jpg,right,nonreversed,easy,1,,,,,
,,,,,5c3d5129a9bfb4000168e299,001,24,Male,British,BSC,2024-02-25_21h21.14.159,CRL1e,2023.2.3,Win32,59.88023952,65dbad3905fde4fe1981dc61,65dbaebb1e20f3e24a5992f4,,,,,,,,,,,507.0021,1,508.0041,508.0042,508.8059,right,1,0.7961,,508.8059,509.8081,4,2,34,3,1,partial,2,images/Ex6.jpg,right,reversed,easy,1,,,,,
,,,,,5c3d5129a9bfb4000168e299,001,24,Male,British,BSC,2024-02-25_21h21.14.159,CRL1e,2023.2.3,Win32,59.88023952,65dbad3905fde4fe1981dc61,65dbaebb1e20f3e24a5992f4,,,,,,,,,,,509.8083,0.5,510.3093,510.3093,511.0776,left,1,0.7563,,511.0777,512.0796,4,3,35,0,1,partial,2,images/Ex5.jpg,left,nonreversed,easy,1,,,,,
,,,,,5c3d5129a9bfb4000168e299,001,24,Male,British,BSC,2024-02-25_21h21.14.159,CRL1e,2023.2.3,Win32,59.88023952,65dbad3905fde4fe1981dc61,65dbaebb1e20f3e24a5992f4,,,,,,,,,,,512.0798,0.8,512.8815,512.8815,513.917,right,1,1.0341,,513.9171,514.9195,4,4,36,4,1,partial,2,images/Ex7.jpg,right,nonreversed,easy,1,,,,,
,,,,,5c3d5129a9bfb4000168e299,001,24,Male,British,BSC,2024-02-25_21h21.14.159,CRL1e,2023.2.3,Win32,59.88023952,65dbad3905fde4fe1981dc61,65dbaebb1e20f3e24a5992f4,,,,,,,,,,,514.9197,0.9,515.8213,515.8213,516.3892,left,1,0.5615,,516.3893,517.3914,4,5,37,6,1,partial,2,images/Ex8.jpg,left,reversed,easy,1,,,,,
,,,,,5c3d5129a9bfb4000168e299,001,24,Male,British,BSC,2024-02-25_21h21.14.159,CRL1e,2023.2.3,Win32,59.88023952,65dbad3905fde4fe1981dc61,65dbaebb1e20f3e24a5992f4,,,,,,,,,,,517.3916,1.1,518.4947,518.4947,519.0284,left,1,0.5288,,519.0284,520.0304,4,6,38,1,1,partial,2,images/Ex5.jpg,left,nonreversed,easy,1,,,,,
,,,,,5c3d5129a9bfb4000168e299,001,24,Male,British,BSC,2024-02-25_21h21.14.159,CRL1e,2023.2.3,Win32,59.88023952,65dbad3905fde4fe1981dc61,65dbaebb1e20f3e24a5992f4,,,,,,,,,,,520.0307,0.6,520.6318,520.6319,521.2666,right,1,0.6254,,521.2666,522.2687,4,7,39,2,1,partial,2,images/Ex6.jpg,right,reversed,easy,1,,,,,
,,,,,5c3d5129a9bfb4000168e299,001,24,Male,British,BSC,2024-02-25_21h21.14.159,CRL1e,2023.2.3,Win32,59.88023952,65dbad3905fde4fe1981dc61,65dbaebb1e20f3e24a5992f4,,,,,,,,,,,522.2688,1.1,523.3713,523.3713,523.8388,right,1,0.4521,,523.8389,524.841,5,0,40,2,1,partial,2,images/Ex6.jpg,right,reversed,easy,1,,,,,
,,,,,5c3d5129a9bfb4000168e299,001,24,Male,British,BSC,2024-02-25_21h21.14.159,CRL1e,2023.2.3,Win32,59.88023952,65dbad3905fde4fe1981dc61,65dbaebb1e20f3e24a5992f4,,,,,,,,,,,524.8412,0.7,525.5427,525.5428,526.2276,left,0,0.673,,526.2276,527.2297,5,1,41,4,1,partial,2,images/Ex7.jpg,right,nonreversed,easy,1,,,,,
,,,,,5c3d5129a9bfb4000168e299,001,24,Male,British,BSC,2024-02-25_21h21.14.159,CRL1e,2023.2.3,Win32,59.88023952,65dbad3905fde4fe1981dc61,65dbaebb1e20f3e24a5992f4,,,,,,,,,,,527.23,0.7,527.9311,527.9311,528.566,right,1,0.6243,,528.566,529.5681,5,2,42,5,1,partial,2,images/Ex7.jpg,right,nonreversed,easy,1,,,,,
,,,,,5c3d5129a9bfb4000168e299,001,24,Male,British,BSC,2024-02-25_21h21.14.159,CRL1e,2023.2.3,Win32,59.88023952,65dbad3905fde4fe1981dc61,65dbaebb1e20f3e24a5992f4,,,,,,,,,,,529.5683,0.8,530.3699,530.3699,530.9545,left,1,0.57,,530.9545,531.9567,5,3,43,6,1,partial,2,images/Ex8.jpg,left,reversed,easy,1,,,,,
,,,,,5c3d5129a9bfb4000168e299,001,24,Male,British,BSC,2024-02-25_21h21.14.159,CRL1e,2023.2.3,Win32,59.88023952,65dbad3905fde4fe1981dc61,65dbaebb1e20f3e24a5992f4,,,,,,,,,,,531.9568,1.3,533.2596,533.2597,533.8107,right,1,0.5465,,533.8108,534.8129,5,4,44,3,1,partial,2,images/Ex6.jpg,right,reversed,easy,1,,,,,
,,,,,5c3d5129a9bfb4000168e299,001,24,Male,British,BSC,2024-02-25_21h21.14.159,CRL1e,2023.2.3,Win32,59.88023952,65dbad3905fde4fe1981dc61,65dbaebb1e20f3e24a5992f4,,,,,,,,,,,534.8131,0.6,535.4142,535.4142,536.2494,left,1,0.8221,,536.2494,537.2515,5,5,45,1,1,partial,2,images/Ex5.jpg,left,nonreversed,easy,1,,,,,
,,,,,5c3d5129a9bfb4000168e299,001,24,Male,British,BSC,2024-02-25_21h21.14.159,CRL1e,2023.2.3,Win32,59.88023952,65dbad3905fde4fe1981dc61,65dbaebb1e20f3e24a5992f4,,,,,,,,,,,537.2517,0.7,537.953,537.953,538.5878,left,1,0.6297,,538.5878,539.5901,5,6,46,7,1,partial,2,images/Ex8.jpg,left,reversed,easy,1,,,,,
,,,,,5c3d5129a9bfb4000168e299,001,24,Male,British,BSC,2024-02-25_21h21.14.159,CRL1e,2023.2.3,Win32,59.88023952,65dbad3905fde4fe1981dc61,65dbaebb1e20f3e24a5992f4,,,,,,,,,,,539.5902,0.6,540.1913,540.1913,540.9096,left,1,0.7171,,540.9096,541.9117,5,7,47,0,1,partial,2,images/Ex5.jpg,left,nonreversed,easy,1,,,,,
,,,,,5c3d5129a9bfb4000168e299,001,24,Male,British,BSC,2024-02-25_21h21.14.159,CRL1e,2023.2.3,Win32,59.88023952,65dbad3905fde4fe1981dc61,65dbaebb1e20f3e24a5992f4,,,,,,,,,,,,,,,,,,,,,,,,,,,,,,,,,,541.9122,554.6234,space,12.6964,