infCons.started,infCons.stopped,resp_consent.keys,resp_consent.rt,resp_consent.duration,participant,session,Age?,Gender?,Nationality?,Highest Educational Degree?,date,expName,psychopyVersion,OS,frameRate,STUDY_ID,SESSION_ID,instructions.started,instructions.stopped,resp_instructions.keys,resp_instructions.rt,resp_instructions.duration,nextTask.started,nextTask.stopped,ready_task.keys,ready_task.rt,ready_task.duration,fixation.started,ITI,fixation.stopped,stim.started,stim.stopped,response.keys,response.corr,response.rt,response.duration,feedback.started,feedback.stopped,trials.thisRepN,trials.thisTrialN,trials.thisN,trials.thisIndex,trials.ran,task,phase,Exemplars,r_correct,condition,difficulty,set,end.started,end.stopped,resp_end.keys,resp_end.rt,resp_end.duration
0,9.909,space,9.85,,5d49d17b3dad1f0001e2aba1,001,37,Male,UK,2-Year College,2024-02-26_17h52.07.959,CRL1e,2023.2.3,Win32,60.0240096,65dbad3905fde4fe1981dc61,65dccf74ad2a4a760887f8af,,,,,,,,,,,,,,,,,,,,,,,,,,,,,,,,,,,,,,
,,,,,5d49d17b3dad1f0001e2aba1,001,37,Male,UK,2-Year College,2024-02-26_17h52.07.959,CRL1e,2023.2.3,Win32,60.0240096,65dbad3905fde4fe1981dc61,65dccf74ad2a4a760887f8af,9.909,26.56,space,16.619,,,,,,,,,,,,,,,,,,,,,,,,,,,,,,,,,,
,,,,,5d49d17b3dad1f0001e2aba1,001,37,Male,UK,2-Year College,2024-02-26_17h52.07.959,CRL1e,2023.2.3,Win32,60.0240096,65dbad3905fde4fe1981dc61,65dccf74ad2a4a760887f8af,,,,,,26.561,37.909,space,11.332,,37.912,0.8,38.709,38.709,43.859,left,1,5.137,,43.859,44.859,0,0,0,2,1,total,1,images/Ex10.jpg,left,training,easy,5,,,,,
,,,,,5d49d17b3dad1f0001e2aba1,001,37,Male,UK,2-Year College,2024-02-26_17h52.07.959,CRL1e,2023.2.3,Win32,60.0240096,65dbad3905fde4fe1981dc61,65dccf74ad2a4a760887f8af,,,,,,,,,,,44.859,0.6,45.458,45.458,46.393,right,0,0.927,,46.393,47.393,0,1,1,1,1,total,1,images/Ex9.jpg,left,training,easy,5,,,,,
,,,,,5d49d17b3dad1f0001e2aba1,001,37,Male,UK,2-Year College,2024-02-26_17h52.07.959,CRL1e,2023.2.3,Win32,60.0240096,65dbad3905fde4fe1981dc61,65dccf74ad2a4a760887f8af,,,,,,,,,,,47.393,0.9,48.293,48.293,48.792,right,1,0.487,,48.792,49.792,0,2,2,7,1,total,1,images/Ex12.jpg,right,training,easy,5,,,,,
,,,,,5d49d17b3dad1f0001e2aba1,001,37,Male,UK,2-Year College,2024-02-26_17h52.07.959,CRL1e,2023.2.3,Win32,60.0240096,65dbad3905fde4fe1981dc61,65dccf74ad2a4a760887f8af,,,,,,,,,,,49.793,0.6,50.392,50.392,51.142,right,0,0.738,,51.142,52.142,0,3,3,0,1,total,1,images/Ex9.jpg,left,training,easy,5,,,,,
,,,,,5d49d17b3dad1f0001e2aba1,001,37,Male,UK,2-Year College,2024-02-26_17h52.07.959,CRL1e,2023.2.3,Win32,60.0240096,65dbad3905fde4fe1981dc61,65dccf74ad2a4a760887f8af,,,,,,,,,,,52.142,1.4,53.542,53.543,54.142,left,0,0.587,,54.142,55.142,0,4,4,5,1,total,1,images/Ex11.jpg,right,training,easy,5,,,,,
,,,,,5d49d17b3dad1f0001e2aba1,001,37,Male,UK,2-Year College,2024-02-26_17h52.07.959,CRL1e,2023.2.3,Win32,60.0240096,65dbad3905fde4fe1981dc61,65dccf74ad2a4a760887f8af,,,,,,,,,,,55.142,0.9,56.042,56.042,56.492,left,0,0.444,,56.492,57.492,0,5,5,6,1,total,1,images/Ex12.jpg,right,training,easy,5,,,,,
,,,,,5d49d17b3dad1f0001e2aba1,001,37,Male,UK,2-Year College,2024-02-26_17h52.07.959,CRL1e,2023.2.3,Win32,60.0240096,65dbad3905fde4fe1981dc61,65dccf74ad2a4a760887f8af,,,,,,,,,,,57.492,1,58.492,58.492,59.093,left,0,0.588,,59.093,60.093,0,6,6,4,1,total,1,images/Ex11.jpg,right,training,easy,5,,,,,
,,,,,5d49d17b3dad1f0001e2aba1,001,37,Male,UK,2-Year College,2024-02-26_17h52.07.959,CRL1e,2023.2.3,Win32,60.0240096,65dbad3905fde4fe1981dc61,65dccf74ad2a4a760887f8af,,,,,,,,,,,60.093,1,61.093,61.093,61.709,right,0,0.608,,61.709,62.709,0,7,7,3,1,total,1,images/Ex10.jpg,left,training,easy,5,,,,,
,,,,,5d49d17b3dad1f0001e2aba1,001,37,Male,UK,2-Year College,2024-02-26_17h52.07.959,CRL1e,2023.2.3,Win32,60.0240096,65dbad3905fde4fe1981dc61,65dccf74ad2a4a760887f8af,,,,,,,,,,,62.709,1.2,63.908,63.908,64.426,left,0,0.505,,64.426,65.426,1,0,8,6,1,total,1,images/Ex12.jpg,right,training,easy,5,,,,,
,,,,,5d49d17b3dad1f0001e2aba1,001,37,Male,UK,2-Year College,2024-02-26_17h52.07.959,CRL1e,2023.2.3,Win32,60.0240096,65dbad3905fde4fe1981dc61,65dccf74ad2a4a760887f8af,,,,,,,,,,,65.426,0.9,66.326,66.326,67.159,right,0,0.824,,67.159,68.159,1,1,9,0,1,total,1,images/Ex9.jpg,left,training,easy,5,,,,,
,,,,,5d49d17b3dad1f0001e2aba1,001,37,Male,UK,2-Year College,2024-02-26_17h52.07.959,CRL1e,2023.2.3,Win32,60.0240096,65dbad3905fde4fe1981dc61,65dccf74ad2a4a760887f8af,,,,,,,,,,,68.159,0.9,69.059,69.059,69.642,right,1,0.577,,69.643,70.642,1,2,10,5,1,total,1,images/Ex11.jpg,right,training,easy,5,,,,,
,,,,,5d49d17b3dad1f0001e2aba1,001,37,Male,UK,2-Year College,2024-02-26_17h52.07.959,CRL1e,2023.2.3,Win32,60.0240096,65dbad3905fde4fe1981dc61,65dccf74ad2a4a760887f8af,,,,,,,,,,,70.642,1,71.642,71.642,72.192,right,0,0.536,,72.192,73.192,1,3,11,2,1,total,1,images/Ex10.jpg,left,training,easy,5,,,,,
,,,,,5d49d17b3dad1f0001e2aba1,001,37,Male,UK,2-Year College,2024-02-26_17h52.07.959,CRL1e,2023.2.3,Win32,60.0240096,65dbad3905fde4fe1981dc61,65dccf74ad2a4a760887f8af,,,,,,,,,,,73.192,1.1,74.292,74.292,74.759,right,1,0.464,,74.759,75.759,1,4,12,4,1,total,1,images/Ex11.jpg,right,training,easy,5,,,,,
,,,,,5d49d17b3dad1f0001e2aba1,001,37,Male,UK,2-Year College,2024-02-26_17h52.07.959,CRL1e,2023.2.3,Win32,60.0240096,65dbad3905fde4fe1981dc61,65dccf74ad2a4a760887f8af,,,,,,,,,,,75.759,1.4,77.159,77.159,77.692,left,1,0.527,,77.692,78.692,1,5,13,3,1,total,1,images/Ex10.jpg,left,training,easy,5,,,,,
,,,,,5d49d17b3dad1f0001e2aba1,001,37,Male,UK,2-Year College,2024-02-26_17h52.07.959,CRL1e,2023.2.3,Win32,60.0240096,65dbad3905fde4fe1981dc61,65dccf74ad2a4a760887f8af,,,,,,,,,,,78.693,0.7,79.392,79.392,80.042,left,1,0.638,,80.042,81.042,1,6,14,1,1,total,1,images/Ex9.jpg,left,training,easy,5,,,,,
,,,,,5d49d17b3dad1f0001e2aba1,001,37,Male,UK,2-Year College,2024-02-26_17h52.07.959,CRL1e,2023.2.3,Win32,60.0240096,65dbad3905fde4fe1981dc61,65dccf74ad2a4a760887f8af,,,,,,,,,,,81.042,0.8,81.842,81.842,82.575,right,1,0.725,,82.575,83.576,1,7,15,7,1,total,1,images/Ex12.jpg,right,training,easy,5,,,,,
,,,,,5d49d17b3dad1f0001e2aba1,001,37,Male,UK,2-Year College,2024-02-26_17h52.07.959,CRL1e,2023.2.3,Win32,60.0240096,65dbad3905fde4fe1981dc61,65dccf74ad2a4a760887f8af,,,,,,,,,,,83.576,0.7,84.275,84.275,84.792,right,0,0.516,,84.792,85.792,2,0,16,2,1,total,1,images/Ex10.jpg,left,training,easy,5,,,,,
,,,,,5d49d17b3dad1f0001e2aba1,001,37,Male,UK,2-Year College,2024-02-26_17h52.07.959,CRL1e,2023.2.3,Win32,60.0240096,65dbad3905fde4fe1981dc61,65dccf74ad2a4a760887f8af,,,,,,,,,,,85.792,1.1,86.892,86.892,87.542,left,1,0.639,,87.542,88.542,2,1,17,3,1,total,1,images/Ex10.jpg,left,training,easy,5,,,,,
,,,,,5d49d17b3dad1f0001e2aba1,001,37,Male,UK,2-Year College,2024-02-26_17h52.07.959,CRL1e,2023.2.3,Win32,60.0240096,65dbad3905fde4fe1981dc61,65dccf74ad2a4a760887f8af,,,,,,,,,,,88.542,1.1,89.642,89.642,90.409,right,0,0.757,,90.409,91.409,2,2,18,1,1,total,1,images/Ex9.jpg,left,training,easy,5,,,,,
,,,,,5d49d17b3dad1f0001e2aba1,001,37,Male,UK,2-Year College,2024-02-26_17h52.07.959,CRL1e,2023.2.3,Win32,60.0240096,65dbad3905fde4fe1981dc61,65dccf74ad2a4a760887f8af,,,,,,,,,,,91.409,1.1,92.509,92.509,93.158,right,1,0.637,,93.158,94.158,2,3,19,6,1,total,1,images/Ex12.jpg,right,training,easy,5,,,,,
,,,,,5d49d17b3dad1f0001e2aba1,001,37,Male,UK,2-Year College,2024-02-26_17h52.07.959,CRL1e,2023.2.3,Win32,60.0240096,65dbad3905fde4fe1981dc61,65dccf74ad2a4a760887f8af,,,,,,,,,,,94.159,0.8,94.959,94.959,95.475,left,0,0.515,,95.475,96.475,2,4,20,7,1,total,1,images/Ex12.jpg,right,training,easy,5,,,,,
,,,,,5d49d17b3dad1f0001e2aba1,001,37,Male,UK,2-Year College,2024-02-26_17h52.07.959,CRL1e,2023.2.3,Win32,60.0240096,65dbad3905fde4fe1981dc61,65dccf74ad2a4a760887f8af,,,,,,,,,,,96.476,1.2,97.675,97.676,98.142,left,1,0.454,,98.142,99.142,2,5,21,0,1,total,1,images/Ex9.jpg,left,training,easy,5,,,,,
,,,,,5d49d17b3dad1f0001e2aba1,001,37,Male,UK,2-Year College,2024-02-26_17h52.07.959,CRL1e,2023.2.3,Win32,60.0240096,65dbad3905fde4fe1981dc61,65dccf74ad2a4a760887f8af,,,,,,,,,,,99.142,1,100.142,100.142,100.559,left,0,0.411,,100.559,101.559,2,6,22,4,1,total,1,images/Ex11.jpg,right,training,easy,5,,,,,
,,,,,5d49d17b3dad1f0001e2aba1,001,37,Male,UK,2-Year College,2024-02-26_17h52.07.959,CRL1e,2023.2.3,Win32,60.0240096,65dbad3905fde4fe1981dc61,65dccf74ad2a4a760887f8af,,,,,,,,,,,101.56,0.9,102.459,102.459,102.892,left,0,0.43,,102.892,103.892,2,7,23,5,1,total,1,images/Ex11.jpg,right,training,easy,5,,,,,
,,,,,5d49d17b3dad1f0001e2aba1,001,37,Male,UK,2-Year College,2024-02-26_17h52.07.959,CRL1e,2023.2.3,Win32,60.0240096,65dbad3905fde4fe1981dc61,65dccf74ad2a4a760887f8af,,,,,,,,,,,103.892,0.6,104.492,104.492,105.192,left,1,0.691,,105.192,106.192,3,0,24,1,1,total,1,images/Ex9.jpg,left,training,easy,5,,,,,
,,,,,5d49d17b3dad1f0001e2aba1,001,37,Male,UK,2-Year College,2024-02-26_17h52.07.959,CRL1e,2023.2.3,Win32,60.0240096,65dbad3905fde4fe1981dc61,65dccf74ad2a4a760887f8af,,,,,,,,,,,106.192,0.9,107.092,107.092,107.859,right,1,0.763,,107.859,108.859,3,1,25,6,1,total,1,images/Ex12.jpg,right,training,easy,5,,,,,
,,,,,5d49d17b3dad1f0001e2aba1,001,37,Male,UK,2-Year College,2024-02-26_17h52.07.959,CRL1e,2023.2.3,Win32,60.0240096,65dbad3905fde4fe1981dc61,65dccf74ad2a4a760887f8af,,,,,,,,,,,108.859,0.7,109.558,109.558,110.109,right,1,0.537,,110.109,111.108,3,2,26,7,1,total,1,images/Ex12.jpg,right,training,easy,5,,,,,
,,,,,5d49d17b3dad1f0001e2aba1,001,37,Male,UK,2-Year College,2024-02-26_17h52.07.959,CRL1e,2023.2.3,Win32,60.0240096,65dbad3905fde4fe1981dc61,65dccf74ad2a4a760887f8af,,,,,,,,,,,111.109,0.6,111.708,111.708,112.342,left,0,0.623,,112.342,113.342,3,3,27,5,1,total,1,images/Ex11.jpg,right,training,easy,5,,,,,
,,,,,5d49d17b3dad1f0001e2aba1,001,37,Male,UK,2-Year College,2024-02-26_17h52.07.959,CRL1e,2023.2.3,Win32,60.0240096,65dbad3905fde4fe1981dc61,65dccf74ad2a4a760887f8af,,,,,,,,,,,113.342,1,114.342,114.342,115.126,right,1,0.771,,115.126,116.125,3,4,28,4,1,total,1,images/Ex11.jpg,right,training,easy,5,,,,,
,,,,,5d49d17b3dad1f0001e2aba1,001,37,Male,UK,2-Year College,2024-02-26_17h52.07.959,CRL1e,2023.2.3,Win32,60.0240096,65dbad3905fde4fe1981dc61,65dccf74ad2a4a760887f8af,,,,,,,,,,,116.125,0.9,117.025,117.025,117.675,left,1,0.642,,117.675,118.675,3,5,29,0,1,total,1,images/Ex9.jpg,left,training,easy,5,,,,,
,,,,,5d49d17b3dad1f0001e2aba1,001,37,Male,UK,2-Year College,2024-02-26_17h52.07.959,CRL1e,2023.2.3,Win32,60.0240096,65dbad3905fde4fe1981dc61,65dccf74ad2a4a760887f8af,,,,,,,,,,,118.675,1.1,119.775,119.775,120.925,left,1,1.144,,120.925,121.926,3,6,30,3,1,total,1,images/Ex10.jpg,left,training,easy,5,,,,,
,,,,,5d49d17b3dad1f0001e2aba1,001,37,Male,UK,2-Year College,2024-02-26_17h52.07.959,CRL1e,2023.2.3,Win32,60.0240096,65dbad3905fde4fe1981dc61,65dccf74ad2a4a760887f8af,,,,,,,,,,,121.926,0.5,122.426,122.426,122.942,left,1,0.504,,122.942,123.941,3,7,31,2,1,total,1,images/Ex10.jpg,left,training,easy,5,,,,,
,,,,,5d49d17b3dad1f0001e2aba1,001,37,Male,UK,2-Year College,2024-02-26_17h52.07.959,CRL1e,2023.2.3,Win32,60.0240096,65dbad3905fde4fe1981dc61,65dccf74ad2a4a760887f8af,,,,,,,,,,,123.942,1.4,125.342,125.342,125.925,right,1,0.574,,125.925,126.925,4,0,32,7,1,total,1,images/Ex12.jpg,right,training,easy,5,,,,,
,,,,,5d49d17b3dad1f0001e2aba1,001,37,Male,UK,2-Year College,2024-02-26_17h52.07.959,CRL1e,2023.2.3,Win32,60.0240096,65dbad3905fde4fe1981dc61,65dccf74ad2a4a760887f8af,,,,,,,,,,,126.926,1.2,128.125,128.125,128.892,left,1,0.759,,128.892,129.892,4,1,33,3,1,total,1,images/Ex10.jpg,left,training,easy,5,,,,,
,,,,,5d49d17b3dad1f0001e2aba1,001,37,Male,UK,2-Year College,2024-02-26_17h52.07.959,CRL1e,2023.2.3,Win32,60.0240096,65dbad3905fde4fe1981dc61,65dccf74ad2a4a760887f8af,,,,,,,,,,,129.892,0.8,130.691,130.691,131.342,left,1,0.646,,131.342,132.342,4,2,34,0,1,total,1,images/Ex9.jpg,left,training,easy,5,,,,,
,,,,,5d49d17b3dad1f0001e2aba1,001,37,Male,UK,2-Year College,2024-02-26_17h52.07.959,CRL1e,2023.2.3,Win32,60.0240096,65dbad3905fde4fe1981dc61,65dccf74ad2a4a760887f8af,,,,,,,,,,,132.343,0.6,132.942,132.942,133.609,right,1,0.66,,133.609,134.609,4,3,35,5,1,total,1,images/Ex11.jpg,right,training,easy,5,,,,,
,,,,,5d49d17b3dad1f0001e2aba1,001,37,Male,UK,2-Year College,2024-02-26_17h52.07.959,CRL1e,2023.2.3,Win32,60.0240096,65dbad3905fde4fe1981dc61,65dccf74ad2a4a760887f8af,,,,,,,,,,,134.609,1,135.609,135.609,136.175,right,1,0.557,,136.175,137.175,4,4,36,4,1,total,1,images/Ex11.jpg,right,training,easy,5,,,,,
,,,,,5d49d17b3dad1f0001e2aba1,001,37,Male,UK,2-Year College,2024-02-26_17h52.07.959,CRL1e,2023.2.3,Win32,60.0240096,65dbad3905fde4fe1981dc61,65dccf74ad2a4a760887f8af,,,,,,,,,,,137.175,1.3,138.475,138.475,139.176,left,1,0.687,,139.176,140.175,4,5,37,2,1,total,1,images/Ex10.jpg,left,training,easy,5,,,,,
,,,,,5d49d17b3dad1f0001e2aba1,001,37,Male,UK,2-Year College,2024-02-26_17h52.07.959,CRL1e,2023.2.3,Win32,60.0240096,65dbad3905fde4fe1981dc61,65dccf74ad2a4a760887f8af,,,,,,,,,,,140.175,1.5,141.675,141.675,142.491,right,1,0.813,,142.491,143.491,4,6,38,6,1,total,1,images/Ex12.jpg,right,training,easy,5,,,,,
,,,,,5d49d17b3dad1f0001e2aba1,001,37,Male,UK,2-Year College,2024-02-26_17h52.07.959,CRL1e,2023.2.3,Win32,60.0240096,65dbad3905fde4fe1981dc61,65dccf74ad2a4a760887f8af,,,,,,,,,,,143.492,1,144.491,144.491,145.025,right,0,0.523,,145.025,146.025,4,7,39,1,1,total,1,images/Ex9.jpg,left,training,easy,5,,,,,
,,,,,5d49d17b3dad1f0001e2aba1,001,37,Male,UK,2-Year College,2024-02-26_17h52.07.959,CRL1e,2023.2.3,Win32,60.0240096,65dbad3905fde4fe1981dc61,65dccf74ad2a4a760887f8af,,,,,,,,,,,146.025,0.7,146.725,146.725,147.325,left,1,0.587,,147.325,148.325,5,0,40,2,1,total,1,images/Ex10.jpg,left,training,easy,5,,,,,
,,,,,5d49d17b3dad1f0001e2aba1,001,37,Male,UK,2-Year College,2024-02-26_17h52.07.959,CRL1e,2023.2.3,Win32,60.0240096,65dbad3905fde4fe1981dc61,65dccf74ad2a4a760887f8af,,,,,,,,,,,148.325,0.9,149.225,149.225,149.791,right,1,0.555,,149.791,150.792,5,1,41,4,1,total,1,images/Ex11.jpg,right,training,easy,5,,,,,
,,,,,5d49d17b3dad1f0001e2aba1,001,37,Male,UK,2-Year College,2024-02-26_17h52.07.959,CRL1e,2023.2.3,Win32,60.0240096,65dbad3905fde4fe1981dc61,65dccf74ad2a4a760887f8af,,,,,,,,,,,150.792,0.6,151.392,151.392,151.909,left,1,0.504,,151.909,152.909,5,2,42,1,1,total,1,images/Ex9.jpg,left,training,easy,5,,,,,
,,,,,5d49d17b3dad1f0001e2aba1,001,37,Male,UK,2-Year College,2024-02-26_17h52.07.959,CRL1e,2023.2.3,Win32,60.0240096,65dbad3905fde4fe1981dc61,65dccf74ad2a4a760887f8af,,,,,,,,,,,152.909,1.5,154.408,154.408,154.908,left,1,0.489,,154.908,155.909,5,3,43,3,1,total,1,images/Ex10.jpg,left,training,easy,5,,,,,
,,,,,5d49d17b3dad1f0001e2aba1,001,37,Male,UK,2-Year College,2024-02-26_17h52.07.959,CRL1e,2023.2.3,Win32,60.0240096,65dbad3905fde4fe1981dc61,65dccf74ad2a4a760887f8af,,,,,,,,,,,155.909,1,156.909,156.909,157.525,left,1,0.603,,157.525,158.525,5,4,44,0,1,total,1,images/Ex9.jpg,left,training,easy,5,,,,,
,,,,,5d49d17b3dad1f0001e2aba1,001,37,Male,UK,2-Year College,2024-02-26_17h52.07.959,CRL1e,2023.2.3,Win32,60.0240096,65dbad3905fde4fe1981dc61,65dccf74ad2a4a760887f8af,,,,,,,,,,,158.525,0.7,159.226,159.226,159.691,left,0,0.464,,159.691,160.691,5,5,45,5,1,total,1,images/Ex11.jpg,right,training,easy,5,,,,,
,,,,,5d49d17b3dad1f0001e2aba1,001,37,Male,UK,2-Year College,2024-02-26_17h52.07.959,CRL1e,2023.2.3,Win32,60.0240096,65dbad3905fde4fe1981dc61,65dccf74ad2a4a760887f8af,,,,,,,,,,,160.692,1.1,161.791,161.791,162.341,left,0,0.539,,162.341,163.342,5,6,46,6,1,total,1,images/Ex12.jpg,right,training,easy,5,,,,,
,,,,,5d49d17b3dad1f0001e2aba1,001,37,Male,UK,2-Year College,2024-02-26_17h52.07.959,CRL1e,2023.2.3,Win32,60.0240096,65dbad3905fde4fe1981dc61,65dccf74ad2a4a760887f8af,,,,,,,,,,,163.342,0.7,164.042,164.042,164.725,right,1,0.672,,164.725,165.725,5,7,47,7,1,total,1,images/Ex12.jpg,right,training,easy,5,,,,,
,,,,,5d49d17b3dad1f0001e2aba1,001,37,Male,UK,2-Year College,2024-02-26_17h52.07.959,CRL1e,2023.2.3,Win32,60.0240096,65dbad3905fde4fe1981dc61,65dccf74ad2a4a760887f8af,,,,,,,,,,,165.727,1.1,166.825,166.825,167.425,right,0,0.589,,167.425,168.425,0,0,0,5,1,total,2,images/Ex11.jpg,left,reversed,easy,5,,,,,
,,,,,5d49d17b3dad1f0001e2aba1,001,37,Male,UK,2-Year College,2024-02-26_17h52.07.959,CRL1e,2023.2.3,Win32,60.0240096,65dbad3905fde4fe1981dc61,65dccf74ad2a4a760887f8af,,,,,,,,,,,168.425,1.4,169.824,169.824,170.291,left,0,0.454,,170.292,171.292,0,1,1,2,1,total,2,images/Ex10.jpg,right,reversed,easy,5,,,,,
,,,,,5d49d17b3dad1f0001e2aba1,001,37,Male,UK,2-Year College,2024-02-26_17h52.07.959,CRL1e,2023.2.3,Win32,60.0240096,65dbad3905fde4fe1981dc61,65dccf74ad2a4a760887f8af,,,,,,,,,,,171.292,1.5,172.791,172.791,173.508,right,0,0.704,,173.508,174.508,0,2,2,4,1,total,2,images/Ex11.jpg,left,reversed,easy,5,,,,,
,,,,,5d49d17b3dad1f0001e2aba1,001,37,Male,UK,2-Year College,2024-02-26_17h52.07.959,CRL1e,2023.2.3,Win32,60.0240096,65dbad3905fde4fe1981dc61,65dccf74ad2a4a760887f8af,,,,,,,,,,,174.509,0.9,175.409,175.409,175.958,left,1,0.538,,175.958,176.958,0,3,3,6,1,total,2,images/Ex12.jpg,left,reversed,easy,5,,,,,
,,,,,5d49d17b3dad1f0001e2aba1,001,37,Male,UK,2-Year College,2024-02-26_17h52.07.959,CRL1e,2023.2.3,Win32,60.0240096,65dbad3905fde4fe1981dc61,65dccf74ad2a4a760887f8af,,,,,,,,,,,176.959,0.6,177.558,177.558,178.075,left,0,0.504,,178.075,179.074,0,4,4,3,1,total,2,images/Ex10.jpg,right,reversed,easy,5,,,,,
,,,,,5d49d17b3dad1f0001e2aba1,001,37,Male,UK,2-Year College,2024-02-26_17h52.07.959,CRL1e,2023.2.3,Win32,60.0240096,65dbad3905fde4fe1981dc61,65dccf74ad2a4a760887f8af,,,,,,,,,,,179.075,0.7,179.775,179.775,180.424,right,1,0.638,,180.425,181.425,0,5,5,1,1,total,2,images/Ex9.jpg,right,reversed,easy,5,,,,,
,,,,,5d49d17b3dad1f0001e2aba1,001,37,Male,UK,2-Year College,2024-02-26_17h52.07.959,CRL1e,2023.2.3,Win32,60.0240096,65dbad3905fde4fe1981dc61,65dccf74ad2a4a760887f8af,,,,,,,,,,,181.425,1.2,182.625,182.625,183.158,right,0,0.528,,183.158,184.158,0,6,6,7,1,total,2,images/Ex12.jpg,left,reversed,easy,5,,,,,
,,,,,5d49d17b3dad1f0001e2aba1,001,37,Male,UK,2-Year College,2024-02-26_17h52.07.959,CRL1e,2023.2.3,Win32,60.0240096,65dbad3905fde4fe1981dc61,65dccf74ad2a4a760887f8af,,,,,,,,,,,184.158,1.4,185.558,185.558,186.542,right,1,0.982,,186.542,187.541,0,7,7,0,1,total,2,images/Ex9.jpg,right,reversed,easy,5,,,,,
,,,,,5d49d17b3dad1f0001e2aba1,001,37,Male,UK,2-Year College,2024-02-26_17h52.07.959,CRL1e,2023.2.3,Win32,60.0240096,65dbad3905fde4fe1981dc61,65dccf74ad2a4a760887f8af,,,,,,,,,,,187.541,1.2,188.741,188.741,189.541,left,1,0.795,,189.541,190.541,1,0,8,7,1,total,2,images/Ex12.jpg,left,reversed,easy,5,,,,,
,,,,,5d49d17b3dad1f0001e2aba1,001,37,Male,UK,2-Year College,2024-02-26_17h52.07.959,CRL1e,2023.2.3,Win32,60.0240096,65dbad3905fde4fe1981dc61,65dccf74ad2a4a760887f8af,,,,,,,,,,,190.541,0.7,191.241,191.241,192.125,right,1,0.884,,192.125,193.125,1,1,9,2,1,total,2,images/Ex10.jpg,right,reversed,easy,5,,,,,
,,,,,5d49d17b3dad1f0001e2aba1,001,37,Male,UK,2-Year College,2024-02-26_17h52.07.959,CRL1e,2023.2.3,Win32,60.0240096,65dbad3905fde4fe1981dc61,65dccf74ad2a4a760887f8af,,,,,,,,,,,193.125,1,194.124,194.124,194.758,right,1,0.626,,194.758,195.758,1,2,10,0,1,total,2,images/Ex9.jpg,right,reversed,easy,5,,,,,
,,,,,5d49d17b3dad1f0001e2aba1,001,37,Male,UK,2-Year College,2024-02-26_17h52.07.959,CRL1e,2023.2.3,Win32,60.0240096,65dbad3905fde4fe1981dc61,65dccf74ad2a4a760887f8af,,,,,,,,,,,195.758,1.1,196.858,196.858,197.741,left,1,0.873,,197.741,198.741,1,3,11,4,1,total,2,images/Ex11.jpg,left,reversed,easy,5,,,,,
,,,,,5d49d17b3dad1f0001e2aba1,001,37,Male,UK,2-Year College,2024-02-26_17h52.07.959,CRL1e,2023.2.3,Win32,60.0240096,65dbad3905fde4fe1981dc61,65dccf74ad2a4a760887f8af,,,,,,,,,,,198.741,1.1,199.841,199.841,200.591,right,0,0.743,,200.591,201.591,1,4,12,6,1,total,2,images/Ex12.jpg,left,reversed,easy,5,,,,,
,,,,,5d49d17b3dad1f0001e2aba1,001,37,Male,UK,2-Year College,2024-02-26_17h52.07.959,CRL1e,2023.2.3,Win32,60.0240096,65dbad3905fde4fe1981dc61,65dccf74ad2a4a760887f8af,,,,,,,,,,,201.591,1.3,202.891,202.891,203.824,right,0,0.924,,203.825,204.825,1,5,13,5,1,total,2,images/Ex11.jpg,left,reversed,easy,5,,,,,
,,,,,5d49d17b3dad1f0001e2aba1,001,37,Male,UK,2-Year College,2024-02-26_17h52.07.959,CRL1e,2023.2.3,Win32,60.0240096,65dbad3905fde4fe1981dc61,65dccf74ad2a4a760887f8af,,,,,,,,,,,204.825,0.7,205.524,205.524,206.258,right,1,0.723,,206.258,207.257,1,6,14,3,1,total,2,images/Ex10.jpg,right,reversed,easy,5,,,,,
,,,,,5d49d17b3dad1f0001e2aba1,001,37,Male,UK,2-Year College,2024-02-26_17h52.07.959,CRL1e,2023.2.3,Win32,60.0240096,65dbad3905fde4fe1981dc61,65dccf74ad2a4a760887f8af,,,,,,,,,,,207.259,1.2,208.457,208.457,209.058,right,1,0.594,,209.058,210.058,1,7,15,1,1,total,2,images/Ex9.jpg,right,reversed,easy,5,,,,,
,,,,,5d49d17b3dad1f0001e2aba1,001,37,Male,UK,2-Year College,2024-02-26_17h52.07.959,CRL1e,2023.2.3,Win32,60.0240096,65dbad3905fde4fe1981dc61,65dccf74ad2a4a760887f8af,,,,,,,,,,,210.058,1.3,211.358,211.358,211.841,left,1,0.471,,211.841,212.841,2,0,16,4,1,total,2,images/Ex11.jpg,left,reversed,easy,5,,,,,
,,,,,5d49d17b3dad1f0001e2aba1,001,37,Male,UK,2-Year College,2024-02-26_17h52.07.959,CRL1e,2023.2.3,Win32,60.0240096,65dbad3905fde4fe1981dc61,65dccf74ad2a4a760887f8af,,,,,,,,,,,212.842,0.5,213.341,213.342,213.991,right,1,0.648,,213.991,214.991,2,1,17,1,1,total,2,images/Ex9.jpg,right,reversed,easy,5,,,,,
,,,,,5d49d17b3dad1f0001e2aba1,001,37,Male,UK,2-Year College,2024-02-26_17h52.07.959,CRL1e,2023.2.3,Win32,60.0240096,65dbad3905fde4fe1981dc61,65dccf74ad2a4a760887f8af,,,,,,,,,,,214.991,1.3,216.292,216.292,217.176,left,1,0.876,,217.176,218.174,2,2,18,6,1,total,2,images/Ex12.jpg,left,reversed,easy,5,,,,,
,,,,,5d49d17b3dad1f0001e2aba1,001,37,Male,UK,2-Year College,2024-02-26_17h52.07.959,CRL1e,2023.2.3,Win32,60.0240096,65dbad3905fde4fe1981dc61,65dccf74ad2a4a760887f8af,,,,,,,,,,,218.174,1.1,219.274,219.275,219.808,left,1,0.53,,219.808,220.808,2,3,19,7,1,total,2,images/Ex12.jpg,left,reversed,easy,5,,,,,
,,,,,5d49d17b3dad1f0001e2aba1,001,37,Male,UK,2-Year College,2024-02-26_17h52.07.959,CRL1e,2023.2.3,Win32,60.0240096,65dbad3905fde4fe1981dc61,65dccf74ad2a4a760887f8af,,,,,,,,,,,220.808,1.3,222.108,222.108,222.641,right,1,0.528,,222.641,223.641,2,4,20,2,1,total,2,images/Ex10.jpg,right,reversed,easy,5,,,,,
,,,,,5d49d17b3dad1f0001e2aba1,001,37,Male,UK,2-Year College,2024-02-26_17h52.07.959,CRL1e,2023.2.3,Win32,60.0240096,65dbad3905fde4fe1981dc61,65dccf74ad2a4a760887f8af,,,,,,,,,,,223.641,0.7,224.341,224.341,224.992,right,1,0.649,,224.992,225.991,2,5,21,0,1,total,2,images/Ex9.jpg,right,reversed,easy,5,,,,,
,,,,,5d49d17b3dad1f0001e2aba1,001,37,Male,UK,2-Year College,2024-02-26_17h52.07.959,CRL1e,2023.2.3,Win32,60.0240096,65dbad3905fde4fe1981dc61,65dccf74ad2a4a760887f8af,,,,,,,,,,,225.993,1.1,227.092,227.092,227.524,left,1,0.43,,227.524,228.525,2,6,22,5,1,total,2,images/Ex11.jpg,left,reversed,easy,5,,,,,
,,,,,5d49d17b3dad1f0001e2aba1,001,37,Male,UK,2-Year College,2024-02-26_17h52.07.959,CRL1e,2023.2.3,Win32,60.0240096,65dbad3905fde4fe1981dc61,65dccf74ad2a4a760887f8af,,,,,,,,,,,228.525,0.7,229.224,229.224,229.857,right,1,0.624,,229.857,230.857,2,7,23,3,1,total,2,images/Ex10.jpg,right,reversed,easy,5,,,,,
,,,,,5d49d17b3dad1f0001e2aba1,001,37,Male,UK,2-Year College,2024-02-26_17h52.07.959,CRL1e,2023.2.3,Win32,60.0240096,65dbad3905fde4fe1981dc61,65dccf74ad2a4a760887f8af,,,,,,,,,,,230.858,1.3,232.158,232.158,232.591,left,1,0.432,,232.591,233.591,3,0,24,5,1,total,2,images/Ex11.jpg,left,reversed,easy,5,,,,,
,,,,,5d49d17b3dad1f0001e2aba1,001,37,Male,UK,2-Year College,2024-02-26_17h52.07.959,CRL1e,2023.2.3,Win32,60.0240096,65dbad3905fde4fe1981dc61,65dccf74ad2a4a760887f8af,,,,,,,,,,,233.591,0.7,234.291,234.291,234.941,right,1,0.638,,234.941,235.941,3,1,25,1,1,total,2,images/Ex9.jpg,right,reversed,easy,5,,,,,
,,,,,5d49d17b3dad1f0001e2aba1,001,37,Male,UK,2-Year College,2024-02-26_17h52.07.959,CRL1e,2023.2.3,Win32,60.0240096,65dbad3905fde4fe1981dc61,65dccf74ad2a4a760887f8af,,,,,,,,,,,235.941,1,236.941,236.941,237.492,right,1,0.538,,237.492,238.491,3,2,26,0,1,total,2,images/Ex9.jpg,right,reversed,easy,5,,,,,
,,,,,5d49d17b3dad1f0001e2aba1,001,37,Male,UK,2-Year College,2024-02-26_17h52.07.959,CRL1e,2023.2.3,Win32,60.0240096,65dbad3905fde4fe1981dc61,65dccf74ad2a4a760887f8af,,,,,,,,,,,238.491,1.4,239.891,239.891,240.474,right,1,0.575,,240.474,241.474,3,3,27,3,1,total,2,images/Ex10.jpg,right,reversed,easy,5,,,,,
,,,,,5d49d17b3dad1f0001e2aba1,001,37,Male,UK,2-Year College,2024-02-26_17h52.07.959,CRL1e,2023.2.3,Win32,60.0240096,65dbad3905fde4fe1981dc61,65dccf74ad2a4a760887f8af,,,,,,,,,,,241.475,1.1,242.575,242.575,243.141,left,1,0.564,,243.141,244.141,3,4,28,7,1,total,2,images/Ex12.jpg,left,reversed,easy,5,,,,,
,,,,,5d49d17b3dad1f0001e2aba1,001,37,Male,UK,2-Year College,2024-02-26_17h52.07.959,CRL1e,2023.2.3,Win32,60.0240096,65dbad3905fde4fe1981dc61,65dccf74ad2a4a760887f8af,,,,,,,,,,,244.141,0.9,245.041,245.041,245.541,right,1,0.488,,245.541,246.541,3,5,29,2,1,total,2,images/Ex10.jpg,right,reversed,easy,5,,,,,
,,,,,5d49d17b3dad1f0001e2aba1,001,37,Male,UK,2-Year College,2024-02-26_17h52.07.959,CRL1e,2023.2.3,Win32,60.0240096,65dbad3905fde4fe1981dc61,65dccf74ad2a4a760887f8af,,,,,,,,,,,246.542,1.2,247.741,247.741,248.291,right,0,0.538,,248.291,249.291,3,6,30,6,1,total,2,images/Ex12.jpg,left,reversed,easy,5,,,,,
,,,,,5d49d17b3dad1f0001e2aba1,001,37,Male,UK,2-Year College,2024-02-26_17h52.07.959,CRL1e,2023.2.3,Win32,60.0240096,65dbad3905fde4fe1981dc61,65dccf74ad2a4a760887f8af,,,,,,,,,,,249.291,0.8,250.091,250.091,250.674,left,1,0.579,,250.674,251.674,3,7,31,4,1,total,2,images/Ex11.jpg,left,reversed,easy,5,,,,,
,,,,,5d49d17b3dad1f0001e2aba1,001,37,Male,UK,2-Year College,2024-02-26_17h52.07.959,CRL1e,2023.2.3,Win32,60.0240096,65dbad3905fde4fe1981dc61,65dccf74ad2a4a760887f8af,,,,,,,,,,,251.674,0.9,252.575,252.575,253.275,right,0,0.695,,253.275,254.275,4,0,32,7,1,total,2,images/Ex12.jpg,left,reversed,easy,5,,,,,
,,,,,5d49d17b3dad1f0001e2aba1,001,37,Male,UK,2-Year College,2024-02-26_17h52.07.959,CRL1e,2023.2.3,Win32,60.0240096,65dbad3905fde4fe1981dc61,65dccf74ad2a4a760887f8af,,,,,,,,,,,254.275,0.8,255.074,255.074,255.641,left,1,0.56,,255.641,256.641,4,1,33,4,1,total,2,images/Ex11.jpg,left,reversed,easy,5,,,,,
,,,,,5d49d17b3dad1f0001e2aba1,001,37,Male,UK,2-Year College,2024-02-26_17h52.07.959,CRL1e,2023.2.3,Win32,60.0240096,65dbad3905fde4fe1981dc61,65dccf74ad2a4a760887f8af,,,,,,,,,,,256.641,1.2,257.841,257.841,258.375,right,1,0.522,,258.375,259.374,4,2,34,0,1,total,2,images/Ex9.jpg,right,reversed,easy,5,,,,,
,,,,,5d49d17b3dad1f0001e2aba1,001,37,Male,UK,2-Year College,2024-02-26_17h52.07.959,CRL1e,2023.2.3,Win32,60.0240096,65dbad3905fde4fe1981dc61,65dccf74ad2a4a760887f8af,,,,,,,,,,,259.375,0.8,260.175,260.175,260.858,right,1,0.675,,260.858,261.857,4,3,35,3,1,total,2,images/Ex10.jpg,right,reversed,easy,5,,,,,
,,,,,5d49d17b3dad1f0001e2aba1,001,37,Male,UK,2-Year College,2024-02-26_17h52.07.959,CRL1e,2023.2.3,Win32,60.0240096,65dbad3905fde4fe1981dc61,65dccf74ad2a4a760887f8af,,,,,,,,,,,261.858,1.1,262.958,262.958,263.408,right,1,0.439,,263.408,264.408,4,4,36,1,1,total,2,images/Ex9.jpg,right,reversed,easy,5,,,,,
,,,,,5d49d17b3dad1f0001e2aba1,001,37,Male,UK,2-Year College,2024-02-26_17h52.07.959,CRL1e,2023.2.3,Win32,60.0240096,65dbad3905fde4fe1981dc61,65dccf74ad2a4a760887f8af,,,,,,,,,,,264.408,1.2,265.608,265.608,266.191,right,1,0.572,,266.191,267.191,4,5,37,2,1,total,2,images/Ex10.jpg,right,reversed,easy,5,,,,,
,,,,,5d49d17b3dad1f0001e2aba1,001,37,Male,UK,2-Year College,2024-02-26_17h52.07.959,CRL1e,2023.2.3,Win32,60.0240096,65dbad3905fde4fe1981dc61,65dccf74ad2a4a760887f8af,,,,,,,,,,,267.191,1.4,268.591,268.591,269.14,left,1,0.548,,269.141,270.14,4,6,38,5,1,total,2,images/Ex11.jpg,left,reversed,easy,5,,,,,
,,,,,5d49d17b3dad1f0001e2aba1,001,37,Male,UK,2-Year College,2024-02-26_17h52.07.959,CRL1e,2023.2.3,Win32,60.0240096,65dbad3905fde4fe1981dc61,65dccf74ad2a4a760887f8af,,,,,,,,,,,270.141,1.3,271.44,271.44,271.991,right,0,0.539,,271.991,272.991,4,7,39,6,1,total,2,images/Ex12.jpg,left,reversed,easy,5,,,,,
,,,,,5d49d17b3dad1f0001e2aba1,001,37,Male,UK,2-Year College,2024-02-26_17h52.07.959,CRL1e,2023.2.3,Win32,60.0240096,65dbad3905fde4fe1981dc61,65dccf74ad2a4a760887f8af,,,,,,,,,,,272.991,0.5,273.49,273.49,274.007,left,1,0.505,,274.007,275.007,5,0,40,7,1,total,2,images/Ex12.jpg,left,reversed,easy,5,,,,,
,,,,,5d49d17b3dad1f0001e2aba1,001,37,Male,UK,2-Year College,2024-02-26_17h52.07.959,CRL1e,2023.2.3,Win32,60.0240096,65dbad3905fde4fe1981dc61,65dccf74ad2a4a760887f8af,,,,,,,,,,,275.008,1.2,276.207,276.207,276.674,right,1,0.46,,276.674,277.674,5,1,41,2,1,total,2,images/Ex10.jpg,right,reversed,easy,5,,,,,
,,,,,5d49d17b3dad1f0001e2aba1,001,37,Male,UK,2-Year College,2024-02-26_17h52.07.959,CRL1e,2023.2.3,Win32,60.0240096,65dbad3905fde4fe1981dc61,65dccf74ad2a4a760887f8af,,,,,,,,,,,277.675,1.4,279.074,279.074,279.674,left,1,0.586,,279.674,280.674,5,2,42,4,1,total,2,images/Ex11.jpg,left,reversed,easy,5,,,,,
,,,,,5d49d17b3dad1f0001e2aba1,001,37,Male,UK,2-Year College,2024-02-26_17h52.07.959,CRL1e,2023.2.3,Win32,60.0240096,65dbad3905fde4fe1981dc61,65dccf74ad2a4a760887f8af,,,,,,,,,,,280.674,0.7,281.374,281.374,282.307,left,1,0.921,,282.307,283.307,5,3,43,6,1,total,2,images/Ex12.jpg,left,reversed,easy,5,,,,,
,,,,,5d49d17b3dad1f0001e2aba1,001,37,Male,UK,2-Year College,2024-02-26_17h52.07.959,CRL1e,2023.2.3,Win32,60.0240096,65dbad3905fde4fe1981dc61,65dccf74ad2a4a760887f8af,,,,,,,,,,,283.308,1.2,284.508,284.508,285.041,right,1,0.532,,285.041,286.041,5,4,44,0,1,total,2,images/Ex9.jpg,right,reversed,easy,5,,,,,
,,,,,5d49d17b3dad1f0001e2aba1,001,37,Male,UK,2-Year College,2024-02-26_17h52.07.959,CRL1e,2023.2.3,Win32,60.0240096,65dbad3905fde4fe1981dc61,65dccf74ad2a4a760887f8af,,,,,,,,,,,286.041,0.9,286.941,286.941,287.391,right,1,0.441,,287.391,288.391,5,5,45,1,1,total,2,images/Ex9.jpg,right,reversed,easy,5,,,,,
,,,,,5d49d17b3dad1f0001e2aba1,001,37,Male,UK,2-Year College,2024-02-26_17h52.07.959,CRL1e,2023.2.3,Win32,60.0240096,65dbad3905fde4fe1981dc61,65dccf74ad2a4a760887f8af,,,,,,,,,,,288.391,1,289.391,289.391,289.958,right,1,0.555,,289.958,290.957,5,6,46,3,1,total,2,images/Ex10.jpg,right,reversed,easy,5,,,,,
,,,,,5d49d17b3dad1f0001e2aba1,001,37,Male,UK,2-Year College,2024-02-26_17h52.07.959,CRL1e,2023.2.3,Win32,60.0240096,65dbad3905fde4fe1981dc61,65dccf74ad2a4a760887f8af,,,,,,,,,,,290.957,0.8,291.757,291.757,292.307,left,1,0.547,,292.307,293.308,5,7,47,5,1,total,2,images/Ex11.jpg,left,reversed,easy,5,,,,,
,,,,,5d49d17b3dad1f0001e2aba1,001,37,Male,UK,2-Year College,2024-02-26_17h52.07.959,CRL1e,2023.2.3,Win32,60.0240096,65dbad3905fde4fe1981dc61,65dccf74ad2a4a760887f8af,,,,,,293.308,295.674,space,2.351,,295.676,0.6,296.274,296.274,297.024,left,0,0.743,,297.024,298.024,0,0,0,7,1,partial,1,images/Ex16.jpg,right,training,easy,5,,,,,
,,,,,5d49d17b3dad1f0001e2aba1,001,37,Male,UK,2-Year College,2024-02-26_17h52.07.959,CRL1e,2023.2.3,Win32,60.0240096,65dbad3905fde4fe1981dc61,65dccf74ad2a4a760887f8af,,,,,,,,,,,298.024,1.4,299.424,299.424,300.257,left,0,0.83,,300.257,301.258,0,1,1,5,1,partial,1,images/Ex15.jpg,right,training,easy,5,,,,,
,,,,,5d49d17b3dad1f0001e2aba1,001,37,Male,UK,2-Year College,2024-02-26_17h52.07.959,CRL1e,2023.2.3,Win32,60.0240096,65dbad3905fde4fe1981dc61,65dccf74ad2a4a760887f8af,,,,,,,,,,,301.258,1.2,302.457,302.458,302.874,left,1,0.404,,302.874,303.874,0,2,2,0,1,partial,1,images/Ex13.jpg,left,training,easy,5,,,,,
,,,,,5d49d17b3dad1f0001e2aba1,001,37,Male,UK,2-Year College,2024-02-26_17h52.07.959,CRL1e,2023.2.3,Win32,60.0240096,65dbad3905fde4fe1981dc61,65dccf74ad2a4a760887f8af,,,,,,,,,,,303.874,0.7,304.574,304.574,305.191,right,1,0.609,,305.191,306.191,0,3,3,6,1,partial,1,images/Ex16.jpg,right,training,easy,5,,,,,
,,,,,5d49d17b3dad1f0001e2aba1,001,37,Male,UK,2-Year College,2024-02-26_17h52.07.959,CRL1e,2023.2.3,Win32,60.0240096,65dbad3905fde4fe1981dc61,65dccf74ad2a4a760887f8af,,,,,,,,,,,306.191,0.6,306.791,306.791,307.557,left,1,0.758,,307.557,308.557,0,4,4,1,1,partial,1,images/Ex13.jpg,left,training,easy,5,,,,,
,,,,,5d49d17b3dad1f0001e2aba1,001,37,Male,UK,2-Year College,2024-02-26_17h52.07.959,CRL1e,2023.2.3,Win32,60.0240096,65dbad3905fde4fe1981dc61,65dccf74ad2a4a760887f8af,,,,,,,,,,,308.557,1.1,309.657,309.657,310.14,right,0,0.475,,310.14,311.141,0,5,5,2,1,partial,1,images/Ex14.jpg,left,training,easy,5,,,,,
,,,,,5d49d17b3dad1f0001e2aba1,001,37,Male,UK,2-Year College,2024-02-26_17h52.07.959,CRL1e,2023.2.3,Win32,60.0240096,65dbad3905fde4fe1981dc61,65dccf74ad2a4a760887f8af,,,,,,,,,,,311.141,1.4,312.54,312.54,313.207,right,1,0.661,,313.207,314.207,0,6,6,4,1,partial,1,images/Ex15.jpg,right,training,easy,5,,,,,
,,,,,5d49d17b3dad1f0001e2aba1,001,37,Male,UK,2-Year College,2024-02-26_17h52.07.959,CRL1e,2023.2.3,Win32,60.0240096,65dbad3905fde4fe1981dc61,65dccf74ad2a4a760887f8af,,,,,,,,,,,314.207,1.5,315.707,315.707,316.441,left,1,0.722,,316.441,317.44,0,7,7,3,1,partial,1,images/Ex14.jpg,left,training,easy,5,,,,,
,,,,,5d49d17b3dad1f0001e2aba1,001,37,Male,UK,2-Year College,2024-02-26_17h52.07.959,CRL1e,2023.2.3,Win32,60.0240096,65dbad3905fde4fe1981dc61,65dccf74ad2a4a760887f8af,,,,,,,,,,,317.441,1.1,318.541,318.541,319.091,left,1,0.537,,319.091,320.091,1,0,8,3,1,partial,1,images/Ex14.jpg,left,training,easy,5,,,,,
,,,,,5d49d17b3dad1f0001e2aba1,001,37,Male,UK,2-Year College,2024-02-26_17h52.07.959,CRL1e,2023.2.3,Win32,60.0240096,65dbad3905fde4fe1981dc61,65dccf74ad2a4a760887f8af,,,,,,,,,,,320.091,1.2,321.291,321.291,321.924,right,1,0.629,,321.924,322.924,1,1,9,5,1,partial,1,images/Ex15.jpg,right,training,easy,5,,,,,
,,,,,5d49d17b3dad1f0001e2aba1,001,37,Male,UK,2-Year College,2024-02-26_17h52.07.959,CRL1e,2023.2.3,Win32,60.0240096,65dbad3905fde4fe1981dc61,65dccf74ad2a4a760887f8af,,,,,,,,,,,322.924,0.8,323.724,323.724,324.324,right,1,0.591,,324.324,325.324,1,2,10,4,1,partial,1,images/Ex15.jpg,right,training,easy,5,,,,,
,,,,,5d49d17b3dad1f0001e2aba1,001,37,Male,UK,2-Year College,2024-02-26_17h52.07.959,CRL1e,2023.2.3,Win32,60.0240096,65dbad3905fde4fe1981dc61,65dccf74ad2a4a760887f8af,,,,,,,,,,,325.325,1.1,326.424,326.424,326.94,right,0,0.506,,326.94,327.94,1,3,11,0,1,partial,1,images/Ex13.jpg,left,training,easy,5,,,,,
,,,,,5d49d17b3dad1f0001e2aba1,001,37,Male,UK,2-Year College,2024-02-26_17h52.07.959,CRL1e,2023.2.3,Win32,60.0240096,65dbad3905fde4fe1981dc61,65dccf74ad2a4a760887f8af,,,,,,,,,,,327.941,0.8,328.741,328.741,329.224,left,1,0.472,,329.224,330.224,1,4,12,1,1,partial,1,images/Ex13.jpg,left,training,easy,5,,,,,
,,,,,5d49d17b3dad1f0001e2aba1,001,37,Male,UK,2-Year College,2024-02-26_17h52.07.959,CRL1e,2023.2.3,Win32,60.0240096,65dbad3905fde4fe1981dc61,65dccf74ad2a4a760887f8af,,,,,,,,,,,330.224,1.2,331.424,331.424,331.873,left,1,0.439,,331.873,332.874,1,5,13,2,1,partial,1,images/Ex14.jpg,left,training,easy,5,,,,,
,,,,,5d49d17b3dad1f0001e2aba1,001,37,Male,UK,2-Year College,2024-02-26_17h52.07.959,CRL1e,2023.2.3,Win32,60.0240096,65dbad3905fde4fe1981dc61,65dccf74ad2a4a760887f8af,,,,,,,,,,,332.874,0.7,333.573,333.573,334.023,right,1,0.445,,334.023,335.024,1,6,14,6,1,partial,1,images/Ex16.jpg,right,training,easy,5,,,,,
,,,,,5d49d17b3dad1f0001e2aba1,001,37,Male,UK,2-Year College,2024-02-26_17h52.07.959,CRL1e,2023.2.3,Win32,60.0240096,65dbad3905fde4fe1981dc61,65dccf74ad2a4a760887f8af,,,,,,,,,,,335.024,0.7,335.724,335.724,336.423,right,1,0.694,,336.424,337.423,1,7,15,7,1,partial,1,images/Ex16.jpg,right,training,easy,5,,,,,
,,,,,5d49d17b3dad1f0001e2aba1,001,37,Male,UK,2-Year College,2024-02-26_17h52.07.959,CRL1e,2023.2.3,Win32,60.0240096,65dbad3905fde4fe1981dc61,65dccf74ad2a4a760887f8af,,,,,,,,,,,337.424,0.6,338.023,338.023,338.591,left,0,0.558,,338.591,339.59,2,0,16,4,1,partial,1,images/Ex15.jpg,right,training,easy,5,,,,,
,,,,,5d49d17b3dad1f0001e2aba1,001,37,Male,UK,2-Year College,2024-02-26_17h52.07.959,CRL1e,2023.2.3,Win32,60.0240096,65dbad3905fde4fe1981dc61,65dccf74ad2a4a760887f8af,,,,,,,,,,,339.591,1.4,340.99,340.99,341.757,left,1,0.759,,341.757,342.757,2,1,17,1,1,partial,1,images/Ex13.jpg,left,training,easy,5,,,,,
,,,,,5d49d17b3dad1f0001e2aba1,001,37,Male,UK,2-Year College,2024-02-26_17h52.07.959,CRL1e,2023.2.3,Win32,60.0240096,65dbad3905fde4fe1981dc61,65dccf74ad2a4a760887f8af,,,,,,,,,,,342.757,0.9,343.656,343.657,344.14,right,1,0.471,,344.14,345.14,2,2,18,5,1,partial,1,images/Ex15.jpg,right,training,easy,5,,,,,
,,,,,5d49d17b3dad1f0001e2aba1,001,37,Male,UK,2-Year College,2024-02-26_17h52.07.959,CRL1e,2023.2.3,Win32,60.0240096,65dbad3905fde4fe1981dc61,65dccf74ad2a4a760887f8af,,,,,,,,,,,345.141,0.8,345.94,345.94,346.374,left,1,0.424,,346.374,347.374,2,3,19,2,1,partial,1,images/Ex14.jpg,left,training,easy,5,,,,,
,,,,,5d49d17b3dad1f0001e2aba1,001,37,Male,UK,2-Year College,2024-02-26_17h52.07.959,CRL1e,2023.2.3,Win32,60.0240096,65dbad3905fde4fe1981dc61,65dccf74ad2a4a760887f8af,,,,,,,,,,,347.374,1.2,348.573,348.573,349.073,right,1,0.491,,349.073,350.073,2,4,20,7,1,partial,1,images/Ex16.jpg,right,training,easy,5,,,,,
,,,,,5d49d17b3dad1f0001e2aba1,001,37,Male,UK,2-Year College,2024-02-26_17h52.07.959,CRL1e,2023.2.3,Win32,60.0240096,65dbad3905fde4fe1981dc61,65dccf74ad2a4a760887f8af,,,,,,,,,,,350.074,1.5,351.574,351.574,352.057,left,1,0.483,,352.057,353.057,2,5,21,0,1,partial,1,images/Ex13.jpg,left,training,easy,5,,,,,
,,,,,5d49d17b3dad1f0001e2aba1,001,37,Male,UK,2-Year College,2024-02-26_17h52.07.959,CRL1e,2023.2.3,Win32,60.0240096,65dbad3905fde4fe1981dc61,65dccf74ad2a4a760887f8af,,,,,,,,,,,353.058,1.1,354.157,354.157,354.673,left,1,0.514,,354.673,355.673,2,6,22,3,1,partial,1,images/Ex14.jpg,left,training,easy,5,,,,,
,,,,,5d49d17b3dad1f0001e2aba1,001,37,Male,UK,2-Year College,2024-02-26_17h52.07.959,CRL1e,2023.2.3,Win32,60.0240096,65dbad3905fde4fe1981dc61,65dccf74ad2a4a760887f8af,,,,,,,,,,,355.674,0.9,356.573,356.573,357.107,right,1,0.521,,357.107,358.107,2,7,23,6,1,partial,1,images/Ex16.jpg,right,training,easy,5,,,,,
,,,,,5d49d17b3dad1f0001e2aba1,001,37,Male,UK,2-Year College,2024-02-26_17h52.07.959,CRL1e,2023.2.3,Win32,60.0240096,65dbad3905fde4fe1981dc61,65dccf74ad2a4a760887f8af,,,,,,,,,,,358.107,1.3,359.407,359.408,359.84,left,1,0.42,,359.84,360.841,3,0,24,3,1,partial,1,images/Ex14.jpg,left,training,easy,5,,,,,
,,,,,5d49d17b3dad1f0001e2aba1,001,37,Male,UK,2-Year College,2024-02-26_17h52.07.959,CRL1e,2023.2.3,Win32,60.0240096,65dbad3905fde4fe1981dc61,65dccf74ad2a4a760887f8af,,,,,,,,,,,360.841,1.4,362.24,362.24,362.757,right,1,0.503,,362.757,363.757,3,1,25,6,1,partial,1,images/Ex16.jpg,right,training,easy,5,,,,,
,,,,,5d49d17b3dad1f0001e2aba1,001,37,Male,UK,2-Year College,2024-02-26_17h52.07.959,CRL1e,2023.2.3,Win32,60.0240096,65dbad3905fde4fe1981dc61,65dccf74ad2a4a760887f8af,,,,,,,,,,,363.757,1.1,364.857,364.857,365.357,left,1,0.488,,365.357,366.357,3,2,26,2,1,partial,1,images/Ex14.jpg,left,training,easy,5,,,,,
,,,,,5d49d17b3dad1f0001e2aba1,001,37,Male,UK,2-Year College,2024-02-26_17h52.07.959,CRL1e,2023.2.3,Win32,60.0240096,65dbad3905fde4fe1981dc61,65dccf74ad2a4a760887f8af,,,,,,,,,,,366.358,0.9,367.257,367.257,367.756,right,1,0.493,,367.756,368.757,3,3,27,7,1,partial,1,images/Ex16.jpg,right,training,easy,5,,,,,
,,,,,5d49d17b3dad1f0001e2aba1,001,37,Male,UK,2-Year College,2024-02-26_17h52.07.959,CRL1e,2023.2.3,Win32,60.0240096,65dbad3905fde4fe1981dc61,65dccf74ad2a4a760887f8af,,,,,,,,,,,368.757,0.8,369.557,369.557,370.04,left,1,0.479,,370.04,371.04,3,4,28,0,1,partial,1,images/Ex13.jpg,left,training,easy,5,,,,,
,,,,,5d49d17b3dad1f0001e2aba1,001,37,Male,UK,2-Year College,2024-02-26_17h52.07.959,CRL1e,2023.2.3,Win32,60.0240096,65dbad3905fde4fe1981dc61,65dccf74ad2a4a760887f8af,,,,,,,,,,,371.04,1.4,372.44,372.44,372.924,right,1,0.482,,372.924,373.924,3,5,29,4,1,partial,1,images/Ex15.jpg,right,training,easy,5,,,,,
,,,,,5d49d17b3dad1f0001e2aba1,001,37,Male,UK,2-Year College,2024-02-26_17h52.07.959,CRL1e,2023.2.3,Win32,60.0240096,65dbad3905fde4fe1981dc61,65dccf74ad2a4a760887f8af,,,,,,,,,,,373.924,0.9,374.823,374.823,375.274,right,1,0.439,,375.274,376.273,3,6,30,5,1,partial,1,images/Ex15.jpg,right,training,easy,5,,,,,
,,,,,5d49d17b3dad1f0001e2aba1,001,37,Male,UK,2-Year College,2024-02-26_17h52.07.959,CRL1e,2023.2.3,Win32,60.0240096,65dbad3905fde4fe1981dc61,65dccf74ad2a4a760887f8af,,,,,,,,,,,376.274,0.9,377.173,377.173,377.746,left,1,0.559,,377.746,378.74,3,7,31,1,1,partial,1,images/Ex13.jpg,left,training,easy,5,,,,,
,,,,,5d49d17b3dad1f0001e2aba1,001,37,Male,UK,2-Year College,2024-02-26_17h52.07.959,CRL1e,2023.2.3,Win32,60.0240096,65dbad3905fde4fe1981dc61,65dccf74ad2a4a760887f8af,,,,,,,,,,,378.74,0.6,379.34,379.34,379.89,left,1,0.549,,379.89,380.89,4,0,32,0,1,partial,1,images/Ex13.jpg,left,training,easy,5,,,,,
,,,,,5d49d17b3dad1f0001e2aba1,001,37,Male,UK,2-Year College,2024-02-26_17h52.07.959,CRL1e,2023.2.3,Win32,60.0240096,65dbad3905fde4fe1981dc61,65dccf74ad2a4a760887f8af,,,,,,,,,,,380.89,1.3,382.19,382.19,382.674,right,1,0.475,,382.674,383.673,4,1,33,4,1,partial,1,images/Ex15.jpg,right,training,easy,5,,,,,
,,,,,5d49d17b3dad1f0001e2aba1,001,37,Male,UK,2-Year College,2024-02-26_17h52.07.959,CRL1e,2023.2.3,Win32,60.0240096,65dbad3905fde4fe1981dc61,65dccf74ad2a4a760887f8af,,,,,,,,,,,383.674,1.2,384.873,384.873,385.556,left,1,0.672,,385.556,386.556,4,2,34,3,1,partial,1,images/Ex14.jpg,left,training,easy,5,,,,,
,,,,,5d49d17b3dad1f0001e2aba1,001,37,Male,UK,2-Year College,2024-02-26_17h52.07.959,CRL1e,2023.2.3,Win32,60.0240096,65dbad3905fde4fe1981dc61,65dccf74ad2a4a760887f8af,,,,,,,,,,,386.557,1.5,388.056,388.056,388.623,right,1,0.56,,388.623,389.624,4,3,35,5,1,partial,1,images/Ex15.jpg,right,training,easy,5,,,,,
,,,,,5d49d17b3dad1f0001e2aba1,001,37,Male,UK,2-Year College,2024-02-26_17h52.07.959,CRL1e,2023.2.3,Win32,60.0240096,65dbad3905fde4fe1981dc61,65dccf74ad2a4a760887f8af,,,,,,,,,,,389.624,0.6,390.223,390.223,390.724,left,0,0.489,,390.724,391.723,4,4,36,7,1,partial,1,images/Ex16.jpg,right,training,easy,5,,,,,
,,,,,5d49d17b3dad1f0001e2aba1,001,37,Male,UK,2-Year College,2024-02-26_17h52.07.959,CRL1e,2023.2.3,Win32,60.0240096,65dbad3905fde4fe1981dc61,65dccf74ad2a4a760887f8af,,,,,,,,,,,391.723,1.1,392.823,392.823,393.29,right,1,0.456,,393.291,394.289,4,5,37,6,1,partial,1,images/Ex16.jpg,right,training,easy,5,,,,,
,,,,,5d49d17b3dad1f0001e2aba1,001,37,Male,UK,2-Year College,2024-02-26_17h52.07.959,CRL1e,2023.2.3,Win32,60.0240096,65dbad3905fde4fe1981dc61,65dccf74ad2a4a760887f8af,,,,,,,,,,,394.291,1.1,395.389,395.389,395.974,left,1,0.576,,395.974,396.973,4,6,38,1,1,partial,1,images/Ex13.jpg,left,training,easy,5,,,,,
,,,,,5d49d17b3dad1f0001e2aba1,001,37,Male,UK,2-Year College,2024-02-26_17h52.07.959,CRL1e,2023.2.3,Win32,60.0240096,65dbad3905fde4fe1981dc61,65dccf74ad2a4a760887f8af,,,,,,,,,,,396.974,1.2,398.173,398.174,398.69,left,1,0.505,,398.69,399.69,4,7,39,2,1,partial,1,images/Ex14.jpg,left,training,easy,5,,,,,
,,,,,5d49d17b3dad1f0001e2aba1,001,37,Male,UK,2-Year College,2024-02-26_17h52.07.959,CRL1e,2023.2.3,Win32,60.0240096,65dbad3905fde4fe1981dc61,65dccf74ad2a4a760887f8af,,,,,,,,,,,399.69,0.9,400.59,400.59,401.223,right,1,0.624,,401.223,402.223,5,0,40,4,1,partial,1,images/Ex15.jpg,right,training,easy,5,,,,,
,,,,,5d49d17b3dad1f0001e2aba1,001,37,Male,UK,2-Year College,2024-02-26_17h52.07.959,CRL1e,2023.2.3,Win32,60.0240096,65dbad3905fde4fe1981dc61,65dccf74ad2a4a760887f8af,,,,,,,,,,,402.224,1.1,403.323,403.323,403.873,right,1,0.537,,403.873,404.873,5,1,41,6,1,partial,1,images/Ex16.jpg,right,training,easy,5,,,,,
,,,,,5d49d17b3dad1f0001e2aba1,001,37,Male,UK,2-Year College,2024-02-26_17h52.07.959,CRL1e,2023.2.3,Win32,60.0240096,65dbad3905fde4fe1981dc61,65dccf74ad2a4a760887f8af,,,,,,,,,,,404.873,1.1,405.973,405.973,406.507,left,1,0.523,,406.507,407.506,5,2,42,3,1,partial,1,images/Ex14.jpg,left,training,easy,5,,,,,
,,,,,5d49d17b3dad1f0001e2aba1,001,37,Male,UK,2-Year College,2024-02-26_17h52.07.959,CRL1e,2023.2.3,Win32,60.0240096,65dbad3905fde4fe1981dc61,65dccf74ad2a4a760887f8af,,,,,,,,,,,407.506,1.4,408.907,408.907,409.406,right,1,0.488,,409.406,410.407,5,3,43,7,1,partial,1,images/Ex16.jpg,right,training,easy,5,,,,,
,,,,,5d49d17b3dad1f0001e2aba1,001,37,Male,UK,2-Year College,2024-02-26_17h52.07.959,CRL1e,2023.2.3,Win32,60.0240096,65dbad3905fde4fe1981dc61,65dccf74ad2a4a760887f8af,,,,,,,,,,,410.407,0.7,411.106,411.106,411.64,left,1,0.528,,411.64,412.64,5,4,44,1,1,partial,1,images/Ex13.jpg,left,training,easy,5,,,,,
,,,,,5d49d17b3dad1f0001e2aba1,001,37,Male,UK,2-Year College,2024-02-26_17h52.07.959,CRL1e,2023.2.3,Win32,60.0240096,65dbad3905fde4fe1981dc61,65dccf74ad2a4a760887f8af,,,,,,,,,,,412.64,0.8,413.44,413.44,413.956,right,1,0.51,,413.956,414.956,5,5,45,5,1,partial,1,images/Ex15.jpg,right,training,easy,5,,,,,
,,,,,5d49d17b3dad1f0001e2aba1,001,37,Male,UK,2-Year College,2024-02-26_17h52.07.959,CRL1e,2023.2.3,Win32,60.0240096,65dbad3905fde4fe1981dc61,65dccf74ad2a4a760887f8af,,,,,,,,,,,414.957,1.2,416.157,416.157,416.59,left,1,0.426,,416.59,417.59,5,6,46,0,1,partial,1,images/Ex13.jpg,left,training,easy,5,,,,,
,,,,,5d49d17b3dad1f0001e2aba1,001,37,Male,UK,2-Year College,2024-02-26_17h52.07.959,CRL1e,2023.2.3,Win32,60.0240096,65dbad3905fde4fe1981dc61,65dccf74ad2a4a760887f8af,,,,,,,,,,,417.59,1,418.589,418.589,419.023,left,1,0.428,,419.023,420.023,5,7,47,2,1,partial,1,images/Ex14.jpg,left,training,easy,5,,,,,
,,,,,5d49d17b3dad1f0001e2aba1,001,37,Male,UK,2-Year College,2024-02-26_17h52.07.959,CRL1e,2023.2.3,Win32,60.0240096,65dbad3905fde4fe1981dc61,65dccf74ad2a4a760887f8af,,,,,,,,,,,420.026,1.4,421.423,421.423,421.856,right,0,0.42,,421.856,422.856,0,0,0,6,1,partial,2,images/Ex16.jpg,left,reversed,easy,5,,,,,
,,,,,5d49d17b3dad1f0001e2aba1,001,37,Male,UK,2-Year College,2024-02-26_17h52.07.959,CRL1e,2023.2.3,Win32,60.0240096,65dbad3905fde4fe1981dc61,65dccf74ad2a4a760887f8af,,,,,,,,,,,422.856,1.2,424.056,424.057,424.789,left,0,0.721,,424.789,425.79,0,1,1,4,1,partial,2,images/Ex15.jpg,right,nonreversed,easy,5,,,,,
,,,,,5d49d17b3dad1f0001e2aba1,001,37,Male,UK,2-Year College,2024-02-26_17h52.07.959,CRL1e,2023.2.3,Win32,60.0240096,65dbad3905fde4fe1981dc61,65dccf74ad2a4a760887f8af,,,,,,,,,,,425.791,0.8,426.59,426.59,427.123,right,0,0.53,,427.123,428.125,0,2,2,7,1,partial,2,images/Ex16.jpg,left,reversed,easy,5,,,,,
,,,,,5d49d17b3dad1f0001e2aba1,001,37,Male,UK,2-Year College,2024-02-26_17h52.07.959,CRL1e,2023.2.3,Win32,60.0240096,65dbad3905fde4fe1981dc61,65dccf74ad2a4a760887f8af,,,,,,,,,,,428.126,1.4,429.523,429.523,430.107,left,0,0.571,,430.107,431.107,0,3,3,5,1,partial,2,images/Ex15.jpg,right,nonreversed,easy,5,,,,,
,,,,,5d49d17b3dad1f0001e2aba1,001,37,Male,UK,2-Year College,2024-02-26_17h52.07.959,CRL1e,2023.2.3,Win32,60.0240096,65dbad3905fde4fe1981dc61,65dccf74ad2a4a760887f8af,,,,,,,,,,,431.107,1,432.107,432.107,432.74,left,0,0.622,,432.74,433.74,0,4,4,3,1,partial,2,images/Ex14.jpg,right,reversed,easy,5,,,,,
,,,,,5d49d17b3dad1f0001e2aba1,001,37,Male,UK,2-Year College,2024-02-26_17h52.07.959,CRL1e,2023.2.3,Win32,60.0240096,65dbad3905fde4fe1981dc61,65dccf74ad2a4a760887f8af,,,,,,,,,,,433.74,1.3,435.04,435.04,435.739,right,0,0.692,,435.739,436.74,0,5,5,1,1,partial,2,images/Ex13.jpg,left,nonreversed,easy,5,,,,,
,,,,,5d49d17b3dad1f0001e2aba1,001,37,Male,UK,2-Year College,2024-02-26_17h52.07.959,CRL1e,2023.2.3,Win32,60.0240096,65dbad3905fde4fe1981dc61,65dccf74ad2a4a760887f8af,,,,,,,,,,,436.74,0.9,437.639,437.639,438.157,left,1,0.51,,438.157,439.157,0,6,6,0,1,partial,2,images/Ex13.jpg,left,nonreversed,easy,5,,,,,
,,,,,5d49d17b3dad1f0001e2aba1,001,37,Male,UK,2-Year College,2024-02-26_17h52.07.959,CRL1e,2023.2.3,Win32,60.0240096,65dbad3905fde4fe1981dc61,65dccf74ad2a4a760887f8af,,,,,,,,,,,439.157,0.7,439.856,439.856,440.356,left,0,0.488,,440.356,441.356,0,7,7,2,1,partial,2,images/Ex14.jpg,right,reversed,easy,5,,,,,
,,,,,5d49d17b3dad1f0001e2aba1,001,37,Male,UK,2-Year College,2024-02-26_17h52.07.959,CRL1e,2023.2.3,Win32,60.0240096,65dbad3905fde4fe1981dc61,65dccf74ad2a4a760887f8af,,,,,,,,,,,441.356,0.6,441.957,441.957,442.623,right,0,0.655,,442.623,443.623,1,0,8,0,1,partial,2,images/Ex13.jpg,left,nonreversed,easy,5,,,,,
,,,,,5d49d17b3dad1f0001e2aba1,001,37,Male,UK,2-Year College,2024-02-26_17h52.07.959,CRL1e,2023.2.3,Win32,60.0240096,65dbad3905fde4fe1981dc61,65dccf74ad2a4a760887f8af,,,,,,,,,,,443.623,0.9,444.523,444.523,445.306,left,0,0.776,,445.306,446.306,1,1,9,4,1,partial,2,images/Ex15.jpg,right,nonreversed,easy,5,,,,,
,,,,,5d49d17b3dad1f0001e2aba1,001,37,Male,UK,2-Year College,2024-02-26_17h52.07.959,CRL1e,2023.2.3,Win32,60.0240096,65dbad3905fde4fe1981dc61,65dccf74ad2a4a760887f8af,,,,,,,,,,,446.307,1.2,447.506,447.506,448.023,right,1,0.513,,448.023,449.022,1,2,10,5,1,partial,2,images/Ex15.jpg,right,nonreversed,easy,5,,,,,
,,,,,5d49d17b3dad1f0001e2aba1,001,37,Male,UK,2-Year College,2024-02-26_17h52.07.959,CRL1e,2023.2.3,Win32,60.0240096,65dbad3905fde4fe1981dc61,65dccf74ad2a4a760887f8af,,,,,,,,,,,449.023,0.6,449.623,449.623,450.207,right,0,0.581,,450.207,451.206,1,3,11,7,1,partial,2,images/Ex16.jpg,left,reversed,easy,5,,,,,
,,,,,5d49d17b3dad1f0001e2aba1,001,37,Male,UK,2-Year College,2024-02-26_17h52.07.959,CRL1e,2023.2.3,Win32,60.0240096,65dbad3905fde4fe1981dc61,65dccf74ad2a4a760887f8af,,,,,,,,,,,451.207,1.2,452.406,452.406,453.04,right,1,0.629,,453.04,454.04,1,4,12,3,1,partial,2,images/Ex14.jpg,right,reversed,easy,5,,,,,
,,,,,5d49d17b3dad1f0001e2aba1,001,37,Male,UK,2-Year College,2024-02-26_17h52.07.959,CRL1e,2023.2.3,Win32,60.0240096,65dbad3905fde4fe1981dc61,65dccf74ad2a4a760887f8af,,,,,,,,,,,454.04,0.6,454.639,454.639,455.29,right,1,0.648,,455.29,456.289,1,5,13,2,1,partial,2,images/Ex14.jpg,right,reversed,easy,5,,,,,
,,,,,5d49d17b3dad1f0001e2aba1,001,37,Male,UK,2-Year College,2024-02-26_17h52.07.959,CRL1e,2023.2.3,Win32,60.0240096,65dbad3905fde4fe1981dc61,65dccf74ad2a4a760887f8af,,,,,,,,,,,456.29,1.4,457.689,457.689,458.273,left,1,0.58,,458.273,459.273,1,6,14,1,1,partial,2,images/Ex13.jpg,left,nonreversed,easy,5,,,,,
,,,,,5d49d17b3dad1f0001e2aba1,001,37,Male,UK,2-Year College,2024-02-26_17h52.07.959,CRL1e,2023.2.3,Win32,60.0240096,65dbad3905fde4fe1981dc61,65dccf74ad2a4a760887f8af,,,,,,,,,,,459.274,0.6,459.872,459.872,460.323,left,1,0.44,,460.323,461.323,1,7,15,6,1,partial,2,images/Ex16.jpg,left,reversed,easy,5,,,,,
,,,,,5d49d17b3dad1f0001e2aba1,001,37,Male,UK,2-Year College,2024-02-26_17h52.07.959,CRL1e,2023.2.3,Win32,60.0240096,65dbad3905fde4fe1981dc61,65dccf74ad2a4a760887f8af,,,,,,,,,,,461.324,1.4,462.723,462.723,463.156,right,1,0.427,,463.156,464.156,2,0,16,5,1,partial,2,images/Ex15.jpg,right,nonreversed,easy,5,,,,,
,,,,,5d49d17b3dad1f0001e2aba1,001,37,Male,UK,2-Year College,2024-02-26_17h52.07.959,CRL1e,2023.2.3,Win32,60.0240096,65dbad3905fde4fe1981dc61,65dccf74ad2a4a760887f8af,,,,,,,,,,,464.156,1,465.156,465.156,465.606,right,1,0.443,,465.606,466.606,2,1,17,3,1,partial,2,images/Ex14.jpg,right,reversed,easy,5,,,,,
,,,,,5d49d17b3dad1f0001e2aba1,001,37,Male,UK,2-Year College,2024-02-26_17h52.07.959,CRL1e,2023.2.3,Win32,60.0240096,65dbad3905fde4fe1981dc61,65dccf74ad2a4a760887f8af,,,,,,,,,,,466.606,1.2,467.806,467.806,468.256,right,1,0.447,,468.256,469.256,2,2,18,4,1,partial,2,images/Ex15.jpg,right,nonreversed,easy,5,,,,,
,,,,,5d49d17b3dad1f0001e2aba1,001,37,Male,UK,2-Year College,2024-02-26_17h52.07.959,CRL1e,2023.2.3,Win32,60.0240096,65dbad3905fde4fe1981dc61,65dccf74ad2a4a760887f8af,,,,,,,,,,,469.256,0.6,469.856,469.856,470.339,right,1,0.476,,470.339,471.339,2,3,19,2,1,partial,2,images/Ex14.jpg,right,reversed,easy,5,,,,,
,,,,,5d49d17b3dad1f0001e2aba1,001,37,Male,UK,2-Year College,2024-02-26_17h52.07.959,CRL1e,2023.2.3,Win32,60.0240096,65dbad3905fde4fe1981dc61,65dccf74ad2a4a760887f8af,,,,,,,,,,,471.34,0.6,471.94,471.94,472.389,left,1,0.437,,472.389,473.39,2,4,20,7,1,partial,2,images/Ex16.jpg,left,reversed,easy,5,,,,,
,,,,,5d49d17b3dad1f0001e2aba1,001,37,Male,UK,2-Year College,2024-02-26_17h52.07.959,CRL1e,2023.2.3,Win32,60.0240096,65dbad3905fde4fe1981dc61,65dccf74ad2a4a760887f8af,,,,,,,,,,,473.39,1.3,474.69,474.69,475.24,left,1,0.539,,475.24,476.239,2,5,21,0,1,partial,2,images/Ex13.jpg,left,nonreversed,easy,5,,,,,
,,,,,5d49d17b3dad1f0001e2aba1,001,37,Male,UK,2-Year College,2024-02-26_17h52.07.959,CRL1e,2023.2.3,Win32,60.0240096,65dbad3905fde4fe1981dc61,65dccf74ad2a4a760887f8af,,,,,,,,,,,476.24,1.5,477.739,477.739,478.173,left,1,0.421,,478.173,479.173,2,6,22,6,1,partial,2,images/Ex16.jpg,left,reversed,easy,5,,,,,
,,,,,5d49d17b3dad1f0001e2aba1,001,37,Male,UK,2-Year College,2024-02-26_17h52.07.959,CRL1e,2023.2.3,Win32,60.0240096,65dbad3905fde4fe1981dc61,65dccf74ad2a4a760887f8af,,,,,,,,,,,479.173,0.7,479.872,479.872,480.356,left,1,0.477,,480.356,481.355,2,7,23,1,1,partial,2,images/Ex13.jpg,left,nonreversed,easy,5,,,,,
,,,,,5d49d17b3dad1f0001e2aba1,001,37,Male,UK,2-Year College,2024-02-26_17h52.07.959,CRL1e,2023.2.3,Win32,60.0240096,65dbad3905fde4fe1981dc61,65dccf74ad2a4a760887f8af,,,,,,,,,,,481.356,1.4,482.756,482.756,483.206,right,1,0.44,,483.206,484.206,3,0,24,3,1,partial,2,images/Ex14.jpg,right,reversed,easy,5,,,,,
,,,,,5d49d17b3dad1f0001e2aba1,001,37,Male,UK,2-Year College,2024-02-26_17h52.07.959,CRL1e,2023.2.3,Win32,60.0240096,65dbad3905fde4fe1981dc61,65dccf74ad2a4a760887f8af,,,,,,,,,,,484.206,0.6,484.806,484.806,485.306,right,1,0.488,,485.306,486.306,3,1,25,4,1,partial,2,images/Ex15.jpg,right,nonreversed,easy,5,,,,,
,,,,,5d49d17b3dad1f0001e2aba1,001,37,Male,UK,2-Year College,2024-02-26_17h52.07.959,CRL1e,2023.2.3,Win32,60.0240096,65dbad3905fde4fe1981dc61,65dccf74ad2a4a760887f8af,,,,,,,,,,,486.306,0.9,487.205,487.205,487.69,left,1,0.481,,487.69,488.69,3,2,26,6,1,partial,2,images/Ex16.jpg,left,reversed,easy,5,,,,,
,,,,,5d49d17b3dad1f0001e2aba1,001,37,Male,UK,2-Year College,2024-02-26_17h52.07.959,CRL1e,2023.2.3,Win32,60.0240096,65dbad3905fde4fe1981dc61,65dccf74ad2a4a760887f8af,,,,,,,,,,,488.69,0.8,489.489,489.489,489.939,left,1,0.438,,489.939,490.939,3,3,27,1,1,partial,2,images/Ex13.jpg,left,nonreversed,easy,5,,,,,
,,,,,5d49d17b3dad1f0001e2aba1,001,37,Male,UK,2-Year College,2024-02-26_17h52.07.959,CRL1e,2023.2.3,Win32,60.0240096,65dbad3905fde4fe1981dc61,65dccf74ad2a4a760887f8af,,,,,,,,,,,490.939,1.1,492.04,492.04,492.49,right,1,0.445,,492.49,493.489,3,4,28,5,1,partial,2,images/Ex15.jpg,right,nonreversed,easy,5,,,,,
,,,,,5d49d17b3dad1f0001e2aba1,001,37,Male,UK,2-Year College,2024-02-26_17h52.07.959,CRL1e,2023.2.3,Win32,60.0240096,65dbad3905fde4fe1981dc61,65dccf74ad2a4a760887f8af,,,,,,,,,,,493.489,1.2,494.689,494.689,495.073,left,1,0.373,,495.073,496.073,3,5,29,0,1,partial,2,images/Ex13.jpg,left,nonreversed,easy,5,,,,,
,,,,,5d49d17b3dad1f0001e2aba1,001,37,Male,UK,2-Year College,2024-02-26_17h52.07.959,CRL1e,2023.2.3,Win32,60.0240096,65dbad3905fde4fe1981dc61,65dccf74ad2a4a760887f8af,,,,,,,,,,,496.073,1.2,497.272,497.272,497.656,left,1,0.377,,497.656,498.656,3,6,30,7,1,partial,2,images/Ex16.jpg,left,reversed,easy,5,,,,,
,,,,,5d49d17b3dad1f0001e2aba1,001,37,Male,UK,2-Year College,2024-02-26_17h52.07.959,CRL1e,2023.2.3,Win32,60.0240096,65dbad3905fde4fe1981dc61,65dccf74ad2a4a760887f8af,,,,,,,,,,,498.656,0.5,499.156,499.156,499.739,right,1,0.57,,499.739,500.74,3,7,31,2,1,partial,2,images/Ex14.jpg,right,reversed,easy,5,,,,,
,,,,,5d49d17b3dad1f0001e2aba1,001,37,Male,UK,2-Year College,2024-02-26_17h52.07.959,CRL1e,2023.2.3,Win32,60.0240096,65dbad3905fde4fe1981dc61,65dccf74ad2a4a760887f8af,,,,,,,,,,,500.74,0.9,501.639,501.639,502.073,right,1,0.427,,502.073,503.072,4,0,32,5,1,partial,2,images/Ex15.jpg,right,nonreversed,easy,5,,,,,
,,,,,5d49d17b3dad1f0001e2aba1,001,37,Male,UK,2-Year College,2024-02-26_17h52.07.959,CRL1e,2023.2.3,Win32,60.0240096,65dbad3905fde4fe1981dc61,65dccf74ad2a4a760887f8af,,,,,,,,,,,503.073,1.4,504.473,504.473,504.856,left,1,0.381,,504.856,505.855,4,1,33,6,1,partial,2,images/Ex16.jpg,left,reversed,easy,5,,,,,
,,,,,5d49d17b3dad1f0001e2aba1,001,37,Male,UK,2-Year College,2024-02-26_17h52.07.959,CRL1e,2023.2.3,Win32,60.0240096,65dbad3905fde4fe1981dc61,65dccf74ad2a4a760887f8af,,,,,,,,,,,505.856,1.4,507.255,507.255,507.689,right,1,0.424,,507.689,508.689,4,2,34,4,1,partial,2,images/Ex15.jpg,right,nonreversed,easy,5,,,,,
,,,,,5d49d17b3dad1f0001e2aba1,001,37,Male,UK,2-Year College,2024-02-26_17h52.07.959,CRL1e,2023.2.3,Win32,60.0240096,65dbad3905fde4fe1981dc61,65dccf74ad2a4a760887f8af,,,,,,,,,,,508.69,1.3,509.988,509.989,510.406,left,1,0.415,,510.406,511.406,4,3,35,7,1,partial,2,images/Ex16.jpg,left,reversed,easy,5,,,,,
,,,,,5d49d17b3dad1f0001e2aba1,001,37,Male,UK,2-Year College,2024-02-26_17h52.07.959,CRL1e,2023.2.3,Win32,60.0240096,65dbad3905fde4fe1981dc61,65dccf74ad2a4a760887f8af,,,,,,,,,,,511.406,0.6,512.005,512.005,512.439,left,1,0.422,,512.439,513.439,4,4,36,1,1,partial,2,images/Ex13.jpg,left,nonreversed,easy,5,,,,,
,,,,,5d49d17b3dad1f0001e2aba1,001,37,Male,UK,2-Year College,2024-02-26_17h52.07.959,CRL1e,2023.2.3,Win32,60.0240096,65dbad3905fde4fe1981dc61,65dccf74ad2a4a760887f8af,,,,,,,,,,,513.44,1.4,514.839,514.839,515.206,right,1,0.357,,515.206,516.206,4,5,37,2,1,partial,2,images/Ex14.jpg,right,reversed,easy,5,,,,,
,,,,,5d49d17b3dad1f0001e2aba1,001,37,Male,UK,2-Year College,2024-02-26_17h52.07.959,CRL1e,2023.2.3,Win32,60.0240096,65dbad3905fde4fe1981dc61,65dccf74ad2a4a760887f8af,,,,,,,,,,,516.206,1.4,517.606,517.606,518.039,left,1,0.429,,518.039,519.039,4,6,38,0,1,partial,2,images/Ex13.jpg,left,nonreversed,easy,5,,,,,
,,,,,5d49d17b3dad1f0001e2aba1,001,37,Male,UK,2-Year College,2024-02-26_17h52.07.959,CRL1e,2023.2.3,Win32,60.0240096,65dbad3905fde4fe1981dc61,65dccf74ad2a4a760887f8af,,,,,,,,,,,519.039,0.9,519.939,519.939,520.355,right,1,0.413,,520.355,521.355,4,7,39,3,1,partial,2,images/Ex14.jpg,right,reversed,easy,5,,,,,
,,,,,5d49d17b3dad1f0001e2aba1,001,37,Male,UK,2-Year College,2024-02-26_17h52.07.959,CRL1e,2023.2.3,Win32,60.0240096,65dbad3905fde4fe1981dc61,65dccf74ad2a4a760887f8af,,,,,,,,,,,521.355,1.1,522.455,522.455,522.905,left,1,0.438,,522.905,523.906,5,0,40,6,1,partial,2,images/Ex16.jpg,left,reversed,easy,5,,,,,
,,,,,5d49d17b3dad1f0001e2aba1,001,37,Male,UK,2-Year College,2024-02-26_17h52.07.959,CRL1e,2023.2.3,Win32,60.0240096,65dbad3905fde4fe1981dc61,65dccf74ad2a4a760887f8af,,,,,,,,,,,523.906,0.8,524.706,524.706,525.156,right,1,0.439,,525.156,526.156,5,1,41,3,1,partial,2,images/Ex14.jpg,right,reversed,easy,5,,,,,
,,,,,5d49d17b3dad1f0001e2aba1,001,37,Male,UK,2-Year College,2024-02-26_17h52.07.959,CRL1e,2023.2.3,Win32,60.0240096,65dbad3905fde4fe1981dc61,65dccf74ad2a4a760887f8af,,,,,,,,,,,526.157,1.3,527.456,527.456,527.906,right,1,0.443,,527.906,528.905,5,2,42,5,1,partial,2,images/Ex15.jpg,right,nonreversed,easy,5,,,,,
,,,,,5d49d17b3dad1f0001e2aba1,001,37,Male,UK,2-Year College,2024-02-26_17h52.07.959,CRL1e,2023.2.3,Win32,60.0240096,65dbad3905fde4fe1981dc61,65dccf74ad2a4a760887f8af,,,,,,,,,,,528.906,1.4,530.305,530.305,530.755,left,1,0.437,,530.755,531.756,5,3,43,7,1,partial,2,images/Ex16.jpg,left,reversed,easy,5,,,,,
,,,,,5d49d17b3dad1f0001e2aba1,001,37,Male,UK,2-Year College,2024-02-26_17h52.07.959,CRL1e,2023.2.3,Win32,60.0240096,65dbad3905fde4fe1981dc61,65dccf74ad2a4a760887f8af,,,,,,,,,,,531.756,0.7,532.455,532.455,532.956,left,0,0.491,,532.956,533.956,5,4,44,4,1,partial,2,images/Ex15.jpg,right,nonreversed,easy,5,,,,,
,,,,,5d49d17b3dad1f0001e2aba1,001,37,Male,UK,2-Year College,2024-02-26_17h52.07.959,CRL1e,2023.2.3,Win32,60.0240096,65dbad3905fde4fe1981dc61,65dccf74ad2a4a760887f8af,,,,,,,,,,,533.956,0.7,534.656,534.656,535.189,right,1,0.531,,535.189,536.189,5,5,45,2,1,partial,2,images/Ex14.jpg,right,reversed,easy,5,,,,,
,,,,,5d49d17b3dad1f0001e2aba1,001,37,Male,UK,2-Year College,2024-02-26_17h52.07.959,CRL1e,2023.2.3,Win32,60.0240096,65dbad3905fde4fe1981dc61,65dccf74ad2a4a760887f8af,,,,,,,,,,,536.189,0.9,537.089,537.089,537.438,left,1,0.338,,537.438,538.438,5,6,46,0,1,partial,2,images/Ex13.jpg,left,nonreversed,easy,5,,,,,
,,,,,5d49d17b3dad1f0001e2aba1,001,37,Male,UK,2-Year College,2024-02-26_17h52.07.959,CRL1e,2023.2.3,Win32,60.0240096,65dbad3905fde4fe1981dc61,65dccf74ad2a4a760887f8af,,,,,,,,,,,538.439,0.9,539.338,539.339,539.722,left,1,0.379,,539.722,540.722,5,7,47,1,1,partial,2,images/Ex13.jpg,left,nonreversed,easy,5,,,,,
,,,,,5d49d17b3dad1f0001e2aba1,001,37,Male,UK,2-Year College,2024-02-26_17h52.07.959,CRL1e,2023.2.3,Win32,60.0240096,65dbad3905fde4fe1981dc61,65dccf74ad2a4a760887f8af,,,,,,,,,,,,,,,,,,,,,,,,,,,,,,,,,,540.722,560.706,space,19.969,