infCons.started,infCons.stopped,resp_consent.keys,resp_consent.rt,resp_consent.duration,participant,session,Age?,Gender?,Nationality?,Highest Educational Degree?,date,expName,psychopyVersion,OS,frameRate,STUDY_ID,SESSION_ID,instructions.started,instructions.stopped,resp_instructions.keys,resp_instructions.rt,resp_instructions.duration,nextTask.started,nextTask.stopped,ready_task.keys,ready_task.rt,ready_task.duration,fixation.started,ITI,fixation.stopped,stim.started,stim.stopped,response.keys,response.corr,response.rt,response.duration,feedback.started,feedback.stopped,trials.thisRepN,trials.thisTrialN,trials.thisN,trials.thisIndex,trials.ran,task,phase,Exemplars,r_correct,condition,difficulty,set,end.started,end.stopped,resp_end.keys,resp_end.rt,resp_end.duration
0.0004,35.4318,space,35.3996,,5d8cb1c93a7d5c00196eae92,001,47,Male,British,BA,2024-02-26_17h22.08.261,CRL1e,2023.2.3,Win32,59.52380952,65dbad3905fde4fe1981dc61,65dcc8074855325f246a7b57,,,,,,,,,,,,,,,,,,,,,,,,,,,,,,,,,,,,,,
,,,,,5d8cb1c93a7d5c00196eae92,001,47,Male,British,BA,2024-02-26_17h22.08.261,CRL1e,2023.2.3,Win32,59.52380952,65dbad3905fde4fe1981dc61,65dcc8074855325f246a7b57,35.4325,95.7311,space,60.2652,,,,,,,,,,,,,,,,,,,,,,,,,,,,,,,,,,
,,,,,5d8cb1c93a7d5c00196eae92,001,47,Male,British,BA,2024-02-26_17h22.08.261,CRL1e,2023.2.3,Win32,59.52380952,65dbad3905fde4fe1981dc61,65dcc8074855325f246a7b57,,,,,,95.7419,100.3478,space,4.5833,,100.3637,0.7,101.0638,101.064,109.0536,left,1,7.9784,,109.0709,110.0472,0,0,0,1,1,total,1,images/Ex5.jpg,left,training,easy,4,,,,,
,,,,,5d8cb1c93a7d5c00196eae92,001,47,Male,British,BA,2024-02-26_17h22.08.261,CRL1e,2023.2.3,Win32,59.52380952,65dbad3905fde4fe1981dc61,65dcc8074855325f246a7b57,,,,,,,,,,,110.0481,1.5,111.5475,111.5475,112.9811,left,1,1.4279,,112.9811,113.9804,0,1,1,0,1,total,1,images/Ex5.jpg,left,training,easy,4,,,,,
,,,,,5d8cb1c93a7d5c00196eae92,001,47,Male,British,BA,2024-02-26_17h22.08.261,CRL1e,2023.2.3,Win32,59.52380952,65dbad3905fde4fe1981dc61,65dcc8074855325f246a7b57,,,,,,,,,,,113.9809,1.3,115.2803,115.2803,117.2597,right,1,1.9774,,117.2598,118.2479,0,2,2,7,1,total,1,images/Ex8.jpg,right,training,easy,4,,,,,
,,,,,5d8cb1c93a7d5c00196eae92,001,47,Male,British,BA,2024-02-26_17h22.08.261,CRL1e,2023.2.3,Win32,59.52380952,65dbad3905fde4fe1981dc61,65dcc8074855325f246a7b57,,,,,,,,,,,118.2493,0.7,118.9474,118.9475,120.4771,right,0,1.5267,,120.4771,121.4808,0,3,3,2,1,total,1,images/Ex6.jpg,left,training,easy,4,,,,,
,,,,,5d8cb1c93a7d5c00196eae92,001,47,Male,British,BA,2024-02-26_17h22.08.261,CRL1e,2023.2.3,Win32,59.52380952,65dbad3905fde4fe1981dc61,65dcc8074855325f246a7b57,,,,,,,,,,,121.488,1.4,122.8808,122.8808,124.0936,left,0,1.2112,,124.0937,125.097,0,4,4,5,1,total,1,images/Ex7.jpg,right,training,easy,4,,,,,
,,,,,5d8cb1c93a7d5c00196eae92,001,47,Male,British,BA,2024-02-26_17h22.08.261,CRL1e,2023.2.3,Win32,59.52380952,65dbad3905fde4fe1981dc61,65dcc8074855325f246a7b57,,,,,,,,,,,125.0974,0.7,125.7969,125.7969,127.9479,right,1,2.1434,,127.948,128.9473,0,5,5,6,1,total,1,images/Ex8.jpg,right,training,easy,4,,,,,
,,,,,5d8cb1c93a7d5c00196eae92,001,47,Male,British,BA,2024-02-26_17h22.08.261,CRL1e,2023.2.3,Win32,59.52380952,65dbad3905fde4fe1981dc61,65dcc8074855325f246a7b57,,,,,,,,,,,128.948,1.1,130.0478,130.0478,132.5085,right,1,2.458,,132.5086,133.4975,0,6,6,4,1,total,1,images/Ex7.jpg,right,training,easy,4,,,,,
,,,,,5d8cb1c93a7d5c00196eae92,001,47,Male,British,BA,2024-02-26_17h22.08.261,CRL1e,2023.2.3,Win32,59.52380952,65dbad3905fde4fe1981dc61,65dcc8074855325f246a7b57,,,,,,,,,,,133.5078,0.9,134.3987,134.3988,135.7815,right,0,1.374,,135.7817,136.7807,0,7,7,3,1,total,1,images/Ex6.jpg,left,training,easy,4,,,,,
,,,,,5d8cb1c93a7d5c00196eae92,001,47,Male,British,BA,2024-02-26_17h22.08.261,CRL1e,2023.2.3,Win32,59.52380952,65dbad3905fde4fe1981dc61,65dcc8074855325f246a7b57,,,,,,,,,,,136.7817,1,137.7804,137.7805,138.7317,right,0,0.9455,,138.7317,139.7233,1,0,8,0,1,total,1,images/Ex5.jpg,left,training,easy,4,,,,,
,,,,,5d8cb1c93a7d5c00196eae92,001,47,Male,British,BA,2024-02-26_17h22.08.261,CRL1e,2023.2.3,Win32,59.52380952,65dbad3905fde4fe1981dc61,65dcc8074855325f246a7b57,,,,,,,,,,,139.7238,1,140.7138,140.7138,142.8642,right,1,2.148,,142.8644,143.8742,1,1,9,5,1,total,1,images/Ex7.jpg,right,training,easy,4,,,,,
,,,,,5d8cb1c93a7d5c00196eae92,001,47,Male,British,BA,2024-02-26_17h22.08.261,CRL1e,2023.2.3,Win32,59.52380952,65dbad3905fde4fe1981dc61,65dcc8074855325f246a7b57,,,,,,,,,,,143.8857,1.1,144.9805,144.9805,145.9476,left,0,0.9601,,145.9477,146.947,1,2,10,6,1,total,1,images/Ex8.jpg,right,training,easy,4,,,,,
,,,,,5d8cb1c93a7d5c00196eae92,001,47,Male,British,BA,2024-02-26_17h22.08.261,CRL1e,2023.2.3,Win32,59.52380952,65dbad3905fde4fe1981dc61,65dcc8074855325f246a7b57,,,,,,,,,,,146.9473,0.9,147.8475,147.8475,150.0482,right,0,2.1919,,150.0484,151.0476,1,3,11,3,1,total,1,images/Ex6.jpg,left,training,easy,4,,,,,
,,,,,5d8cb1c93a7d5c00196eae92,001,47,Male,British,BA,2024-02-26_17h22.08.261,CRL1e,2023.2.3,Win32,59.52380952,65dbad3905fde4fe1981dc61,65dcc8074855325f246a7b57,,,,,,,,,,,151.0489,0.7,151.7475,151.7475,152.3309,left,1,0.5779,,152.3311,153.3305,1,4,12,2,1,total,1,images/Ex6.jpg,left,training,easy,4,,,,,
,,,,,5d8cb1c93a7d5c00196eae92,001,47,Male,British,BA,2024-02-26_17h22.08.261,CRL1e,2023.2.3,Win32,59.52380952,65dbad3905fde4fe1981dc61,65dcc8074855325f246a7b57,,,,,,,,,,,153.331,0.8,154.1313,154.1314,155.4312,right,0,1.2917,,155.4313,156.4304,1,5,13,1,1,total,1,images/Ex5.jpg,left,training,easy,4,,,,,
,,,,,5d8cb1c93a7d5c00196eae92,001,47,Male,British,BA,2024-02-26_17h22.08.261,CRL1e,2023.2.3,Win32,59.52380952,65dbad3905fde4fe1981dc61,65dcc8074855325f246a7b57,,,,,,,,,,,156.4309,1,157.4311,157.4312,159.1151,right,1,1.679,,159.1155,160.1143,1,6,14,4,1,total,1,images/Ex7.jpg,right,training,easy,4,,,,,
,,,,,5d8cb1c93a7d5c00196eae92,001,47,Male,British,BA,2024-02-26_17h22.08.261,CRL1e,2023.2.3,Win32,59.52380952,65dbad3905fde4fe1981dc61,65dcc8074855325f246a7b57,,,,,,,,,,,160.1152,1.5,161.6141,161.6142,165.4747,right,1,3.8593,,165.4748,166.4638,1,7,15,7,1,total,1,images/Ex8.jpg,right,training,easy,4,,,,,
,,,,,5d8cb1c93a7d5c00196eae92,001,47,Male,British,BA,2024-02-26_17h22.08.261,CRL1e,2023.2.3,Win32,59.52380952,65dbad3905fde4fe1981dc61,65dcc8074855325f246a7b57,,,,,,,,,,,166.4746,0.7,167.1645,167.1645,168.9821,left,1,1.8087,,168.9822,169.9816,2,0,16,1,1,total,1,images/Ex5.jpg,left,training,easy,4,,,,,
,,,,,5d8cb1c93a7d5c00196eae92,001,47,Male,British,BA,2024-02-26_17h22.08.261,CRL1e,2023.2.3,Win32,59.52380952,65dbad3905fde4fe1981dc61,65dcc8074855325f246a7b57,,,,,,,,,,,170.0129,0.6,170.6139,170.614,171.6479,left,0,1.0313,,171.6479,172.6472,2,1,17,7,1,total,1,images/Ex8.jpg,right,training,easy,4,,,,,
,,,,,5d8cb1c93a7d5c00196eae92,001,47,Male,British,BA,2024-02-26_17h22.08.261,CRL1e,2023.2.3,Win32,59.52380952,65dbad3905fde4fe1981dc61,65dcc8074855325f246a7b57,,,,,,,,,,,172.6478,1.4,174.0471,174.0471,174.7925,right,1,0.7444,,174.7926,175.7808,2,2,18,6,1,total,1,images/Ex8.jpg,right,training,easy,4,,,,,
,,,,,5d8cb1c93a7d5c00196eae92,001,47,Male,British,BA,2024-02-26_17h22.08.261,CRL1e,2023.2.3,Win32,59.52380952,65dbad3905fde4fe1981dc61,65dcc8074855325f246a7b57,,,,,,,,,,,175.7816,0.5,176.2803,176.2805,177.114,left,1,0.8261,,177.1141,178.114,2,3,19,0,1,total,1,images/Ex5.jpg,left,training,easy,4,,,,,
,,,,,5d8cb1c93a7d5c00196eae92,001,47,Male,British,BA,2024-02-26_17h22.08.261,CRL1e,2023.2.3,Win32,59.52380952,65dbad3905fde4fe1981dc61,65dcc8074855325f246a7b57,,,,,,,,,,,178.1148,0.8,178.9137,178.9138,180.198,left,1,1.2754,,180.198,181.1976,2,4,20,3,1,total,1,images/Ex6.jpg,left,training,easy,4,,,,,
,,,,,5d8cb1c93a7d5c00196eae92,001,47,Male,British,BA,2024-02-26_17h22.08.261,CRL1e,2023.2.3,Win32,59.52380952,65dbad3905fde4fe1981dc61,65dcc8074855325f246a7b57,,,,,,,,,,,181.198,0.6,181.7972,181.7972,182.9641,right,1,1.1607,,182.9642,183.9636,2,5,21,4,1,total,1,images/Ex7.jpg,right,training,easy,4,,,,,
,,,,,5d8cb1c93a7d5c00196eae92,001,47,Male,British,BA,2024-02-26_17h22.08.261,CRL1e,2023.2.3,Win32,59.52380952,65dbad3905fde4fe1981dc61,65dcc8074855325f246a7b57,,,,,,,,,,,183.964,0.9,184.8636,184.8637,186.1315,left,1,1.2596,,186.1316,187.1309,2,6,22,2,1,total,1,images/Ex6.jpg,left,training,easy,4,,,,,
,,,,,5d8cb1c93a7d5c00196eae92,001,47,Male,British,BA,2024-02-26_17h22.08.261,CRL1e,2023.2.3,Win32,59.52380952,65dbad3905fde4fe1981dc61,65dcc8074855325f246a7b57,,,,,,,,,,,187.1314,1.5,188.6306,188.6307,189.7326,right,1,1.0937,,189.7328,190.7308,2,7,23,5,1,total,1,images/Ex7.jpg,right,training,easy,4,,,,,
,,,,,5d8cb1c93a7d5c00196eae92,001,47,Male,British,BA,2024-02-26_17h22.08.261,CRL1e,2023.2.3,Win32,59.52380952,65dbad3905fde4fe1981dc61,65dcc8074855325f246a7b57,,,,,,,,,,,190.7311,1.3,192.0306,192.0307,192.981,right,1,0.9433,,192.9811,193.9804,3,0,24,4,1,total,1,images/Ex7.jpg,right,training,easy,4,,,,,
,,,,,5d8cb1c93a7d5c00196eae92,001,47,Male,British,BA,2024-02-26_17h22.08.261,CRL1e,2023.2.3,Win32,59.52380952,65dbad3905fde4fe1981dc61,65dcc8074855325f246a7b57,,,,,,,,,,,193.9809,1.5,195.4807,195.4807,196.3146,right,1,0.8277,,196.3146,197.3234,3,1,25,6,1,total,1,images/Ex8.jpg,right,training,easy,4,,,,,
,,,,,5d8cb1c93a7d5c00196eae92,001,47,Male,British,BA,2024-02-26_17h22.08.261,CRL1e,2023.2.3,Win32,59.52380952,65dbad3905fde4fe1981dc61,65dcc8074855325f246a7b57,,,,,,,,,,,197.3238,0.7,198.014,198.014,199.6316,left,1,1.6155,,199.6316,200.6305,3,2,26,1,1,total,1,images/Ex5.jpg,left,training,easy,4,,,,,
,,,,,5d8cb1c93a7d5c00196eae92,001,47,Male,British,BA,2024-02-26_17h22.08.261,CRL1e,2023.2.3,Win32,59.52380952,65dbad3905fde4fe1981dc61,65dcc8074855325f246a7b57,,,,,,,,,,,200.6311,0.8,201.4245,201.4245,202.2814,right,1,0.8552,,202.2814,203.2811,3,3,27,5,1,total,1,images/Ex7.jpg,right,training,easy,4,,,,,
,,,,,5d8cb1c93a7d5c00196eae92,001,47,Male,British,BA,2024-02-26_17h22.08.261,CRL1e,2023.2.3,Win32,59.52380952,65dbad3905fde4fe1981dc61,65dcc8074855325f246a7b57,,,,,,,,,,,203.2821,0.7,203.9805,203.9806,205.0259,left,1,1.0433,,205.026,206.0141,3,4,28,2,1,total,1,images/Ex6.jpg,left,training,easy,4,,,,,
,,,,,5d8cb1c93a7d5c00196eae92,001,47,Male,British,BA,2024-02-26_17h22.08.261,CRL1e,2023.2.3,Win32,59.52380952,65dbad3905fde4fe1981dc61,65dcc8074855325f246a7b57,,,,,,,,,,,206.0144,1,207.0146,207.0146,207.6476,left,1,0.627,,207.6476,208.6474,3,5,29,3,1,total,1,images/Ex6.jpg,left,training,easy,4,,,,,
,,,,,5d8cb1c93a7d5c00196eae92,001,47,Male,British,BA,2024-02-26_17h22.08.261,CRL1e,2023.2.3,Win32,59.52380952,65dbad3905fde4fe1981dc61,65dcc8074855325f246a7b57,,,,,,,,,,,208.6479,1.2,209.8474,209.8477,210.7153,left,1,0.8619,,210.7153,211.7139,3,6,30,0,1,total,1,images/Ex5.jpg,left,training,easy,4,,,,,
,,,,,5d8cb1c93a7d5c00196eae92,001,47,Male,British,BA,2024-02-26_17h22.08.261,CRL1e,2023.2.3,Win32,59.52380952,65dbad3905fde4fe1981dc61,65dcc8074855325f246a7b57,,,,,,,,,,,211.7145,1,212.7149,212.715,213.4984,left,0,0.7779,,213.4985,214.4976,3,7,31,7,1,total,1,images/Ex8.jpg,right,training,easy,4,,,,,
,,,,,5d8cb1c93a7d5c00196eae92,001,47,Male,British,BA,2024-02-26_17h22.08.261,CRL1e,2023.2.3,Win32,59.52380952,65dbad3905fde4fe1981dc61,65dcc8074855325f246a7b57,,,,,,,,,,,214.4982,0.9,215.3977,215.3977,216.0989,left,1,0.6945,,216.099,217.0987,4,0,32,1,1,total,1,images/Ex5.jpg,left,training,easy,4,,,,,
,,,,,5d8cb1c93a7d5c00196eae92,001,47,Male,British,BA,2024-02-26_17h22.08.261,CRL1e,2023.2.3,Win32,59.52380952,65dbad3905fde4fe1981dc61,65dcc8074855325f246a7b57,,,,,,,,,,,217.0993,1.3,218.3979,218.398,219.1163,right,1,0.7117,,219.1164,220.1152,4,1,33,7,1,total,1,images/Ex8.jpg,right,training,easy,4,,,,,
,,,,,5d8cb1c93a7d5c00196eae92,001,47,Male,British,BA,2024-02-26_17h22.08.261,CRL1e,2023.2.3,Win32,59.52380952,65dbad3905fde4fe1981dc61,65dcc8074855325f246a7b57,,,,,,,,,,,220.1157,0.9,221.0153,221.0154,221.6322,left,0,0.6097,,221.6323,222.6314,4,2,34,4,1,total,1,images/Ex7.jpg,right,training,easy,4,,,,,
,,,,,5d8cb1c93a7d5c00196eae92,001,47,Male,British,BA,2024-02-26_17h22.08.261,CRL1e,2023.2.3,Win32,59.52380952,65dbad3905fde4fe1981dc61,65dcc8074855325f246a7b57,,,,,,,,,,,222.6319,0.6,223.2311,223.2312,224.1148,left,1,0.8762,,224.1148,225.1137,4,3,35,3,1,total,1,images/Ex6.jpg,left,training,easy,4,,,,,
,,,,,5d8cb1c93a7d5c00196eae92,001,47,Male,British,BA,2024-02-26_17h22.08.261,CRL1e,2023.2.3,Win32,59.52380952,65dbad3905fde4fe1981dc61,65dcc8074855325f246a7b57,,,,,,,,,,,225.1141,0.6,225.7137,225.7137,226.2979,left,0,0.5784,,226.2979,227.2981,4,4,36,5,1,total,1,images/Ex7.jpg,right,training,easy,4,,,,,
,,,,,5d8cb1c93a7d5c00196eae92,001,47,Male,British,BA,2024-02-26_17h22.08.261,CRL1e,2023.2.3,Win32,59.52380952,65dbad3905fde4fe1981dc61,65dcc8074855325f246a7b57,,,,,,,,,,,227.2995,1.4,228.6974,228.6974,229.4144,left,1,0.711,,229.4144,230.4146,4,5,37,2,1,total,1,images/Ex6.jpg,left,training,easy,4,,,,,
,,,,,5d8cb1c93a7d5c00196eae92,001,47,Male,British,BA,2024-02-26_17h22.08.261,CRL1e,2023.2.3,Win32,59.52380952,65dbad3905fde4fe1981dc61,65dcc8074855325f246a7b57,,,,,,,,,,,230.4155,0.6,231.0138,231.0139,231.8658,left,0,0.8494,,231.8659,232.8644,4,6,38,6,1,total,1,images/Ex8.jpg,right,training,easy,4,,,,,
,,,,,5d8cb1c93a7d5c00196eae92,001,47,Male,British,BA,2024-02-26_17h22.08.261,CRL1e,2023.2.3,Win32,59.52380952,65dbad3905fde4fe1981dc61,65dcc8074855325f246a7b57,,,,,,,,,,,232.8652,0.7,233.564,233.564,234.3311,left,1,0.7637,,234.3311,235.3305,4,7,39,0,1,total,1,images/Ex5.jpg,left,training,easy,4,,,,,
,,,,,5d8cb1c93a7d5c00196eae92,001,47,Male,British,BA,2024-02-26_17h22.08.261,CRL1e,2023.2.3,Win32,59.52380952,65dbad3905fde4fe1981dc61,65dcc8074855325f246a7b57,,,,,,,,,,,235.331,1.4,236.7314,236.7314,237.7412,right,1,1.0087,,237.7412,238.7305,5,0,40,5,1,total,1,images/Ex7.jpg,right,training,easy,4,,,,,
,,,,,5d8cb1c93a7d5c00196eae92,001,47,Male,British,BA,2024-02-26_17h22.08.261,CRL1e,2023.2.3,Win32,59.52380952,65dbad3905fde4fe1981dc61,65dcc8074855325f246a7b57,,,,,,,,,,,238.731,0.6,239.3311,239.3312,240.1313,left,0,0.7918,,240.1313,241.1311,5,1,41,6,1,total,1,images/Ex8.jpg,right,training,easy,4,,,,,
,,,,,5d8cb1c93a7d5c00196eae92,001,47,Male,British,BA,2024-02-26_17h22.08.261,CRL1e,2023.2.3,Win32,59.52380952,65dbad3905fde4fe1981dc61,65dcc8074855325f246a7b57,,,,,,,,,,,241.1328,1.5,242.6402,242.6402,243.3489,left,1,0.7019,,243.349,244.347,5,2,42,1,1,total,1,images/Ex5.jpg,left,training,easy,4,,,,,
,,,,,5d8cb1c93a7d5c00196eae92,001,47,Male,British,BA,2024-02-26_17h22.08.261,CRL1e,2023.2.3,Win32,59.52380952,65dbad3905fde4fe1981dc61,65dcc8074855325f246a7b57,,,,,,,,,,,244.3475,1,245.347,245.347,246.6826,left,1,1.3342,,246.6826,247.6802,5,3,43,3,1,total,1,images/Ex6.jpg,left,training,easy,4,,,,,
,,,,,5d8cb1c93a7d5c00196eae92,001,47,Male,British,BA,2024-02-26_17h22.08.261,CRL1e,2023.2.3,Win32,59.52380952,65dbad3905fde4fe1981dc61,65dcc8074855325f246a7b57,,,,,,,,,,,247.688,0.6,248.2906,248.2906,248.8806,right,1,0.5864,,248.8807,249.8743,5,4,44,4,1,total,1,images/Ex7.jpg,right,training,easy,4,,,,,
,,,,,5d8cb1c93a7d5c00196eae92,001,47,Male,British,BA,2024-02-26_17h22.08.261,CRL1e,2023.2.3,Win32,59.52380952,65dbad3905fde4fe1981dc61,65dcc8074855325f246a7b57,,,,,,,,,,,249.875,0.9,250.7635,250.7636,251.5812,right,1,0.8123,,251.5813,252.5807,5,5,45,7,1,total,1,images/Ex8.jpg,right,training,easy,4,,,,,
,,,,,5d8cb1c93a7d5c00196eae92,001,47,Male,British,BA,2024-02-26_17h22.08.261,CRL1e,2023.2.3,Win32,59.52380952,65dbad3905fde4fe1981dc61,65dcc8074855325f246a7b57,,,,,,,,,,,252.5812,1.3,253.8803,253.8804,254.6639,left,1,0.7808,,254.664,255.6638,5,6,46,0,1,total,1,images/Ex5.jpg,left,training,easy,4,,,,,
,,,,,5d8cb1c93a7d5c00196eae92,001,47,Male,British,BA,2024-02-26_17h22.08.261,CRL1e,2023.2.3,Win32,59.52380952,65dbad3905fde4fe1981dc61,65dcc8074855325f246a7b57,,,,,,,,,,,255.6643,1.4,257.064,257.0641,258.0652,left,1,0.9945,,258.0653,259.0638,5,7,47,2,1,total,1,images/Ex6.jpg,left,training,easy,4,,,,,
,,,,,5d8cb1c93a7d5c00196eae92,001,47,Male,British,BA,2024-02-26_17h22.08.261,CRL1e,2023.2.3,Win32,59.52380952,65dbad3905fde4fe1981dc61,65dcc8074855325f246a7b57,,,,,,,,,,,259.0691,0.9,259.9639,259.964,260.714,right,0,0.7451,,260.714,261.7139,0,0,0,5,1,total,2,images/Ex7.jpg,left,reversed,easy,4,,,,,
,,,,,5d8cb1c93a7d5c00196eae92,001,47,Male,British,BA,2024-02-26_17h22.08.261,CRL1e,2023.2.3,Win32,59.52380952,65dbad3905fde4fe1981dc61,65dcc8074855325f246a7b57,,,,,,,,,,,261.7145,0.7,262.4136,262.4137,264.3988,left,0,1.9781,,264.399,265.3976,0,1,1,0,1,total,2,images/Ex5.jpg,right,reversed,easy,4,,,,,
,,,,,5d8cb1c93a7d5c00196eae92,001,47,Male,British,BA,2024-02-26_17h22.08.261,CRL1e,2023.2.3,Win32,59.52380952,65dbad3905fde4fe1981dc61,65dcc8074855325f246a7b57,,,,,,,,,,,265.3986,1.1,266.4975,266.4977,268.5255,left,0,2.0249,,268.5255,269.5238,0,2,2,3,1,total,2,images/Ex6.jpg,right,reversed,easy,4,,,,,
,,,,,5d8cb1c93a7d5c00196eae92,001,47,Male,British,BA,2024-02-26_17h22.08.261,CRL1e,2023.2.3,Win32,59.52380952,65dbad3905fde4fe1981dc61,65dcc8074855325f246a7b57,,,,,,,,,,,269.5241,1,270.5242,270.5243,271.1588,right,1,0.6336,,271.1589,272.157,0,3,3,2,1,total,2,images/Ex6.jpg,right,reversed,easy,4,,,,,
,,,,,5d8cb1c93a7d5c00196eae92,001,47,Male,British,BA,2024-02-26_17h22.08.261,CRL1e,2023.2.3,Win32,59.52380952,65dbad3905fde4fe1981dc61,65dcc8074855325f246a7b57,,,,,,,,,,,272.1575,1.2,273.3475,273.3475,274.3668,left,1,1.0128,,274.3669,275.3644,0,4,4,7,1,total,2,images/Ex8.jpg,left,reversed,easy,4,,,,,
,,,,,5d8cb1c93a7d5c00196eae92,001,47,Male,British,BA,2024-02-26_17h22.08.261,CRL1e,2023.2.3,Win32,59.52380952,65dbad3905fde4fe1981dc61,65dcc8074855325f246a7b57,,,,,,,,,,,275.3661,0.8,276.1643,276.1643,276.8986,right,0,0.7263,,276.8987,277.8973,0,5,5,4,1,total,2,images/Ex7.jpg,left,reversed,easy,4,,,,,
,,,,,5d8cb1c93a7d5c00196eae92,001,47,Male,British,BA,2024-02-26_17h22.08.261,CRL1e,2023.2.3,Win32,59.52380952,65dbad3905fde4fe1981dc61,65dcc8074855325f246a7b57,,,,,,,,,,,277.8982,0.6,278.4971,278.4971,279.1917,left,1,0.6935,,279.1917,280.1907,0,6,6,6,1,total,2,images/Ex8.jpg,left,reversed,easy,4,,,,,
,,,,,5d8cb1c93a7d5c00196eae92,001,47,Male,British,BA,2024-02-26_17h22.08.261,CRL1e,2023.2.3,Win32,59.52380952,65dbad3905fde4fe1981dc61,65dcc8074855325f246a7b57,,,,,,,,,,,280.1911,1.1,281.2907,281.2908,282.5752,right,1,1.2834,,282.5752,283.574,0,7,7,1,1,total,2,images/Ex5.jpg,right,reversed,easy,4,,,,,
,,,,,5d8cb1c93a7d5c00196eae92,001,47,Male,British,BA,2024-02-26_17h22.08.261,CRL1e,2023.2.3,Win32,59.52380952,65dbad3905fde4fe1981dc61,65dcc8074855325f246a7b57,,,,,,,,,,,283.5743,0.8,284.375,284.3751,285.1604,right,1,0.7834,,285.1605,286.164,1,0,8,0,1,total,2,images/Ex5.jpg,right,reversed,easy,4,,,,,
,,,,,5d8cb1c93a7d5c00196eae92,001,47,Male,British,BA,2024-02-26_17h22.08.261,CRL1e,2023.2.3,Win32,59.52380952,65dbad3905fde4fe1981dc61,65dcc8074855325f246a7b57,,,,,,,,,,,286.1648,1.3,287.4649,287.4649,288.45,right,0,0.9813,,288.4502,289.4472,1,1,9,6,1,total,2,images/Ex8.jpg,left,reversed,easy,4,,,,,
,,,,,5d8cb1c93a7d5c00196eae92,001,47,Male,British,BA,2024-02-26_17h22.08.261,CRL1e,2023.2.3,Win32,59.52380952,65dbad3905fde4fe1981dc61,65dcc8074855325f246a7b57,,,,,,,,,,,289.4478,1.3,290.7478,290.7479,291.998,right,1,1.2466,,291.998,292.9976,1,2,10,1,1,total,2,images/Ex5.jpg,right,reversed,easy,4,,,,,
,,,,,5d8cb1c93a7d5c00196eae92,001,47,Male,British,BA,2024-02-26_17h22.08.261,CRL1e,2023.2.3,Win32,59.52380952,65dbad3905fde4fe1981dc61,65dcc8074855325f246a7b57,,,,,,,,,,,292.9981,1.4,294.397,294.3971,295.531,left,0,1.1277,,295.531,296.5306,1,3,11,2,1,total,2,images/Ex6.jpg,right,reversed,easy,4,,,,,
,,,,,5d8cb1c93a7d5c00196eae92,001,47,Male,British,BA,2024-02-26_17h22.08.261,CRL1e,2023.2.3,Win32,59.52380952,65dbad3905fde4fe1981dc61,65dcc8074855325f246a7b57,,,,,,,,,,,296.5312,0.8,297.3312,297.3313,297.9473,right,1,0.6088,,297.9473,298.9471,1,4,12,3,1,total,2,images/Ex6.jpg,right,reversed,easy,4,,,,,
,,,,,5d8cb1c93a7d5c00196eae92,001,47,Male,British,BA,2024-02-26_17h22.08.261,CRL1e,2023.2.3,Win32,59.52380952,65dbad3905fde4fe1981dc61,65dcc8074855325f246a7b57,,,,,,,,,,,298.9476,1.5,300.447,300.447,302.9255,left,1,2.4773,,302.9255,303.9237,1,5,13,5,1,total,2,images/Ex7.jpg,left,reversed,easy,4,,,,,
,,,,,5d8cb1c93a7d5c00196eae92,001,47,Male,British,BA,2024-02-26_17h22.08.261,CRL1e,2023.2.3,Win32,59.52380952,65dbad3905fde4fe1981dc61,65dcc8074855325f246a7b57,,,,,,,,,,,303.9242,0.9,304.8245,304.8246,305.4751,left,1,0.6494,,305.4751,306.4736,1,6,14,4,1,total,2,images/Ex7.jpg,left,reversed,easy,4,,,,,
,,,,,5d8cb1c93a7d5c00196eae92,001,47,Male,British,BA,2024-02-26_17h22.08.261,CRL1e,2023.2.3,Win32,59.52380952,65dbad3905fde4fe1981dc61,65dcc8074855325f246a7b57,,,,,,,,,,,306.474,0.5,306.9744,306.9744,307.859,left,1,0.8834,,307.8591,308.8572,1,7,15,7,1,total,2,images/Ex8.jpg,left,reversed,easy,4,,,,,
,,,,,5d8cb1c93a7d5c00196eae92,001,47,Male,British,BA,2024-02-26_17h22.08.261,CRL1e,2023.2.3,Win32,59.52380952,65dbad3905fde4fe1981dc61,65dcc8074855325f246a7b57,,,,,,,,,,,308.8576,0.7,309.559,309.5592,310.2102,left,1,0.6495,,310.2103,311.2142,2,0,16,6,1,total,2,images/Ex8.jpg,left,reversed,easy,4,,,,,
,,,,,5d8cb1c93a7d5c00196eae92,001,47,Male,British,BA,2024-02-26_17h22.08.261,CRL1e,2023.2.3,Win32,59.52380952,65dbad3905fde4fe1981dc61,65dcc8074855325f246a7b57,,,,,,,,,,,311.2152,1.2,312.4138,312.4139,314.7078,left,0,2.2926,,314.7079,315.6973,2,1,17,3,1,total,2,images/Ex6.jpg,right,reversed,easy,4,,,,,
,,,,,5d8cb1c93a7d5c00196eae92,001,47,Male,British,BA,2024-02-26_17h22.08.261,CRL1e,2023.2.3,Win32,59.52380952,65dbad3905fde4fe1981dc61,65dcc8074855325f246a7b57,,,,,,,,,,,315.6977,0.7,316.3974,316.3974,317.2835,right,1,0.8815,,317.2836,318.293,2,2,18,0,1,total,2,images/Ex5.jpg,right,reversed,easy,4,,,,,
,,,,,5d8cb1c93a7d5c00196eae92,001,47,Male,British,BA,2024-02-26_17h22.08.261,CRL1e,2023.2.3,Win32,59.52380952,65dbad3905fde4fe1981dc61,65dcc8074855325f246a7b57,,,,,,,,,,,318.2943,1.4,319.6905,319.6905,321.2577,left,1,1.5659,,321.2577,322.2578,2,3,19,4,1,total,2,images/Ex7.jpg,left,reversed,easy,4,,,,,
,,,,,5d8cb1c93a7d5c00196eae92,001,47,Male,British,BA,2024-02-26_17h22.08.261,CRL1e,2023.2.3,Win32,59.52380952,65dbad3905fde4fe1981dc61,65dcc8074855325f246a7b57,,,,,,,,,,,322.279,0.7,322.9802,322.9803,325.7816,right,0,2.7953,,325.7817,326.7805,2,4,20,7,1,total,2,images/Ex8.jpg,left,reversed,easy,4,,,,,
,,,,,5d8cb1c93a7d5c00196eae92,001,47,Male,British,BA,2024-02-26_17h22.08.261,CRL1e,2023.2.3,Win32,59.52380952,65dbad3905fde4fe1981dc61,65dcc8074855325f246a7b57,,,,,,,,,,,326.792,0.8,327.5806,327.5807,328.565,right,1,0.9763,,328.5651,329.5636,2,5,21,1,1,total,2,images/Ex5.jpg,right,reversed,easy,4,,,,,
,,,,,5d8cb1c93a7d5c00196eae92,001,47,Male,British,BA,2024-02-26_17h22.08.261,CRL1e,2023.2.3,Win32,59.52380952,65dbad3905fde4fe1981dc61,65dcc8074855325f246a7b57,,,,,,,,,,,329.5643,1.4,330.9741,330.9741,332.5807,left,1,1.5995,,332.5808,333.5802,2,6,22,5,1,total,2,images/Ex7.jpg,left,reversed,easy,4,,,,,
,,,,,5d8cb1c93a7d5c00196eae92,001,47,Male,British,BA,2024-02-26_17h22.08.261,CRL1e,2023.2.3,Win32,59.52380952,65dbad3905fde4fe1981dc61,65dcc8074855325f246a7b57,,,,,,,,,,,333.5806,0.6,334.181,334.181,335.9475,right,1,1.7577,,335.9476,336.9567,2,7,23,2,1,total,2,images/Ex6.jpg,right,reversed,easy,4,,,,,
,,,,,5d8cb1c93a7d5c00196eae92,001,47,Male,British,BA,2024-02-26_17h22.08.261,CRL1e,2023.2.3,Win32,59.52380952,65dbad3905fde4fe1981dc61,65dcc8074855325f246a7b57,,,,,,,,,,,336.965,1.3,338.2643,338.2644,339.1079,right,1,0.841,,339.1079,340.1073,3,0,24,1,1,total,2,images/Ex5.jpg,right,reversed,easy,4,,,,,
,,,,,5d8cb1c93a7d5c00196eae92,001,47,Male,British,BA,2024-02-26_17h22.08.261,CRL1e,2023.2.3,Win32,59.52380952,65dbad3905fde4fe1981dc61,65dcc8074855325f246a7b57,,,,,,,,,,,340.1078,1.3,341.3972,341.3972,343.6985,left,1,2.2947,,343.6986,344.6974,3,1,25,7,1,total,2,images/Ex8.jpg,left,reversed,easy,4,,,,,
,,,,,5d8cb1c93a7d5c00196eae92,001,47,Male,British,BA,2024-02-26_17h22.08.261,CRL1e,2023.2.3,Win32,59.52380952,65dbad3905fde4fe1981dc61,65dcc8074855325f246a7b57,,,,,,,,,,,344.7141,0.6,345.3067,345.3067,346.0082,left,1,0.6998,,346.0083,346.997,3,2,26,4,1,total,2,images/Ex7.jpg,left,reversed,easy,4,,,,,
,,,,,5d8cb1c93a7d5c00196eae92,001,47,Male,British,BA,2024-02-26_17h22.08.261,CRL1e,2023.2.3,Win32,59.52380952,65dbad3905fde4fe1981dc61,65dcc8074855325f246a7b57,,,,,,,,,,,346.9975,0.8,347.8067,347.8068,349.2664,left,0,1.4582,,349.2664,350.2635,3,3,27,2,1,total,2,images/Ex6.jpg,right,reversed,easy,4,,,,,
,,,,,5d8cb1c93a7d5c00196eae92,001,47,Male,British,BA,2024-02-26_17h22.08.261,CRL1e,2023.2.3,Win32,59.52380952,65dbad3905fde4fe1981dc61,65dcc8074855325f246a7b57,,,,,,,,,,,350.264,0.9,351.1639,351.164,352.0985,right,1,0.9301,,352.0987,353.0974,3,4,28,0,1,total,2,images/Ex5.jpg,right,reversed,easy,4,,,,,
,,,,,5d8cb1c93a7d5c00196eae92,001,47,Male,British,BA,2024-02-26_17h22.08.261,CRL1e,2023.2.3,Win32,59.52380952,65dbad3905fde4fe1981dc61,65dcc8074855325f246a7b57,,,,,,,,,,,353.0983,0.9,353.9975,353.9976,354.8144,left,1,0.8096,,354.8144,355.8072,3,5,29,5,1,total,2,images/Ex7.jpg,left,reversed,easy,4,,,,,
,,,,,5d8cb1c93a7d5c00196eae92,001,47,Male,British,BA,2024-02-26_17h22.08.261,CRL1e,2023.2.3,Win32,59.52380952,65dbad3905fde4fe1981dc61,65dcc8074855325f246a7b57,,,,,,,,,,,355.8076,0.9,356.7071,356.7071,359.8271,left,1,3.1185,,359.8271,360.8315,3,6,30,6,1,total,2,images/Ex8.jpg,left,reversed,easy,4,,,,,
,,,,,5d8cb1c93a7d5c00196eae92,001,47,Male,British,BA,2024-02-26_17h22.08.261,CRL1e,2023.2.3,Win32,59.52380952,65dbad3905fde4fe1981dc61,65dcc8074855325f246a7b57,,,,,,,,,,,360.8591,1.1,361.947,361.947,363.7645,right,1,1.811,,363.7646,364.7642,3,7,31,3,1,total,2,images/Ex6.jpg,right,reversed,easy,4,,,,,
,,,,,5d8cb1c93a7d5c00196eae92,001,47,Male,British,BA,2024-02-26_17h22.08.261,CRL1e,2023.2.3,Win32,59.52380952,65dbad3905fde4fe1981dc61,65dcc8074855325f246a7b57,,,,,,,,,,,364.7919,1.2,365.9804,365.9805,366.8917,left,1,0.9097,,366.8918,367.8804,4,0,32,7,1,total,2,images/Ex8.jpg,left,reversed,easy,4,,,,,
,,,,,5d8cb1c93a7d5c00196eae92,001,47,Male,British,BA,2024-02-26_17h22.08.261,CRL1e,2023.2.3,Win32,59.52380952,65dbad3905fde4fe1981dc61,65dcc8074855325f246a7b57,,,,,,,,,,,367.8809,0.6,368.4808,368.4808,369.2142,right,1,0.7274,,369.2144,370.2143,4,1,33,2,1,total,2,images/Ex6.jpg,right,reversed,easy,4,,,,,
,,,,,5d8cb1c93a7d5c00196eae92,001,47,Male,British,BA,2024-02-26_17h22.08.261,CRL1e,2023.2.3,Win32,59.52380952,65dbad3905fde4fe1981dc61,65dcc8074855325f246a7b57,,,,,,,,,,,370.2152,0.5,370.714,370.7141,371.3984,left,0,0.6797,,371.3985,372.3977,4,2,34,0,1,total,2,images/Ex5.jpg,right,reversed,easy,4,,,,,
,,,,,5d8cb1c93a7d5c00196eae92,001,47,Male,British,BA,2024-02-26_17h22.08.261,CRL1e,2023.2.3,Win32,59.52380952,65dbad3905fde4fe1981dc61,65dcc8074855325f246a7b57,,,,,,,,,,,372.3986,1.4,373.7972,373.7972,374.5148,right,1,0.7093,,374.5149,375.5136,4,3,35,3,1,total,2,images/Ex6.jpg,right,reversed,easy,4,,,,,
,,,,,5d8cb1c93a7d5c00196eae92,001,47,Male,British,BA,2024-02-26_17h22.08.261,CRL1e,2023.2.3,Win32,59.52380952,65dbad3905fde4fe1981dc61,65dcc8074855325f246a7b57,,,,,,,,,,,375.5141,0.9,376.4015,376.4015,377.0247,right,0,0.6218,,377.0247,378.0234,4,4,36,5,1,total,2,images/Ex7.jpg,left,reversed,easy,4,,,,,
,,,,,5d8cb1c93a7d5c00196eae92,001,47,Male,British,BA,2024-02-26_17h22.08.261,CRL1e,2023.2.3,Win32,59.52380952,65dbad3905fde4fe1981dc61,65dcc8074855325f246a7b57,,,,,,,,,,,378.0238,1.1,379.1137,379.1138,379.6475,left,1,0.5313,,379.6475,380.6472,4,5,37,4,1,total,2,images/Ex7.jpg,left,reversed,easy,4,,,,,
,,,,,5d8cb1c93a7d5c00196eae92,001,47,Male,British,BA,2024-02-26_17h22.08.261,CRL1e,2023.2.3,Win32,59.52380952,65dbad3905fde4fe1981dc61,65dcc8074855325f246a7b57,,,,,,,,,,,380.6479,1.3,381.9472,381.9473,382.8139,left,1,0.8593,,382.8139,383.8141,4,6,38,6,1,total,2,images/Ex8.jpg,left,reversed,easy,4,,,,,
,,,,,5d8cb1c93a7d5c00196eae92,001,47,Male,British,BA,2024-02-26_17h22.08.261,CRL1e,2023.2.3,Win32,59.52380952,65dbad3905fde4fe1981dc61,65dcc8074855325f246a7b57,,,,,,,,,,,383.8149,0.9,384.7143,384.7143,385.5472,right,1,0.8246,,385.5472,386.5485,4,7,39,1,1,total,2,images/Ex5.jpg,right,reversed,easy,4,,,,,
,,,,,5d8cb1c93a7d5c00196eae92,001,47,Male,British,BA,2024-02-26_17h22.08.261,CRL1e,2023.2.3,Win32,59.52380952,65dbad3905fde4fe1981dc61,65dcc8074855325f246a7b57,,,,,,,,,,,386.5493,1.4,387.9401,387.9402,388.7579,right,1,0.8166,,388.7579,389.7469,5,0,40,3,1,total,2,images/Ex6.jpg,right,reversed,easy,4,,,,,
,,,,,5d8cb1c93a7d5c00196eae92,001,47,Male,British,BA,2024-02-26_17h22.08.261,CRL1e,2023.2.3,Win32,59.52380952,65dbad3905fde4fe1981dc61,65dcc8074855325f246a7b57,,,,,,,,,,,389.7473,0.6,390.3416,390.3416,391.0815,right,1,0.7353,,391.0817,392.0811,5,1,41,0,1,total,2,images/Ex5.jpg,right,reversed,easy,4,,,,,
,,,,,5d8cb1c93a7d5c00196eae92,001,47,Male,British,BA,2024-02-26_17h22.08.261,CRL1e,2023.2.3,Win32,59.52380952,65dbad3905fde4fe1981dc61,65dcc8074855325f246a7b57,,,,,,,,,,,392.0822,0.9,392.9808,392.9809,393.631,right,1,0.6423,,393.631,394.6407,5,2,42,2,1,total,2,images/Ex6.jpg,right,reversed,easy,4,,,,,
,,,,,5d8cb1c93a7d5c00196eae92,001,47,Male,British,BA,2024-02-26_17h22.08.261,CRL1e,2023.2.3,Win32,59.52380952,65dbad3905fde4fe1981dc61,65dcc8074855325f246a7b57,,,,,,,,,,,394.641,0.9,395.5304,395.5305,396.4909,left,1,0.9592,,396.4909,397.4904,5,3,43,6,1,total,2,images/Ex8.jpg,left,reversed,easy,4,,,,,
,,,,,5d8cb1c93a7d5c00196eae92,001,47,Male,British,BA,2024-02-26_17h22.08.261,CRL1e,2023.2.3,Win32,59.52380952,65dbad3905fde4fe1981dc61,65dcc8074855325f246a7b57,,,,,,,,,,,397.4908,1.4,398.8804,398.8804,400.0329,left,1,1.1508,,400.033,401.0308,5,4,44,4,1,total,2,images/Ex7.jpg,left,reversed,easy,4,,,,,
,,,,,5d8cb1c93a7d5c00196eae92,001,47,Male,British,BA,2024-02-26_17h22.08.261,CRL1e,2023.2.3,Win32,59.52380952,65dbad3905fde4fe1981dc61,65dcc8074855325f246a7b57,,,,,,,,,,,401.0315,1.3,402.3316,402.3316,403.3817,right,0,1.0427,,403.3818,404.3808,5,5,45,7,1,total,2,images/Ex8.jpg,left,reversed,easy,4,,,,,
,,,,,5d8cb1c93a7d5c00196eae92,001,47,Male,British,BA,2024-02-26_17h22.08.261,CRL1e,2023.2.3,Win32,59.52380952,65dbad3905fde4fe1981dc61,65dcc8074855325f246a7b57,,,,,,,,,,,404.3816,0.6,404.9808,404.9808,405.0036,left,0,0.0206,,405.0037,405.9993,5,6,46,1,1,total,2,images/Ex5.jpg,right,reversed,easy,4,,,,,
,,,,,5d8cb1c93a7d5c00196eae92,001,47,Male,British,BA,2024-02-26_17h22.08.261,CRL1e,2023.2.3,Win32,59.52380952,65dbad3905fde4fe1981dc61,65dcc8074855325f246a7b57,,,,,,,,,,,406.0009,0.8,406.7976,406.7977,407.7314,left,1,0.9282,,407.7316,408.7304,5,7,47,5,1,total,2,images/Ex7.jpg,left,reversed,easy,4,,,,,
,,,,,5d8cb1c93a7d5c00196eae92,001,47,Male,British,BA,2024-02-26_17h22.08.261,CRL1e,2023.2.3,Win32,59.52380952,65dbad3905fde4fe1981dc61,65dcc8074855325f246a7b57,,,,,,408.7315,413.4983,space,4.7525,,413.5254,0.8,414.3138,414.3139,415.5641,right,0,1.245,,415.5641,416.5636,0,0,0,2,1,partial,1,images/Ex2.jpg,left,training,easy,4,,,,,
,,,,,5d8cb1c93a7d5c00196eae92,001,47,Male,British,BA,2024-02-26_17h22.08.261,CRL1e,2023.2.3,Win32,59.52380952,65dbad3905fde4fe1981dc61,65dcc8074855325f246a7b57,,,,,,,,,,,416.5641,1.4,417.9637,417.9637,419.3312,left,1,1.363,,419.3313,420.3305,0,1,1,0,1,partial,1,images/Ex1.jpg,left,training,easy,4,,,,,
,,,,,5d8cb1c93a7d5c00196eae92,001,47,Male,British,BA,2024-02-26_17h22.08.261,CRL1e,2023.2.3,Win32,59.52380952,65dbad3905fde4fe1981dc61,65dcc8074855325f246a7b57,,,,,,,,,,,420.3311,1.3,421.6237,421.6238,422.1648,left,1,0.5336,,422.1648,423.1642,0,2,2,1,1,partial,1,images/Ex1.jpg,left,training,easy,4,,,,,
,,,,,5d8cb1c93a7d5c00196eae92,001,47,Male,British,BA,2024-02-26_17h22.08.261,CRL1e,2023.2.3,Win32,59.52380952,65dbad3905fde4fe1981dc61,65dcc8074855325f246a7b57,,,,,,,,,,,423.1651,1.2,424.3732,424.3733,424.8645,right,1,0.4837,,424.8646,425.8737,0,3,3,5,1,partial,1,images/Ex3.jpg,right,training,easy,4,,,,,
,,,,,5d8cb1c93a7d5c00196eae92,001,47,Male,British,BA,2024-02-26_17h22.08.261,CRL1e,2023.2.3,Win32,59.52380952,65dbad3905fde4fe1981dc61,65dcc8074855325f246a7b57,,,,,,,,,,,425.8741,0.5,426.3635,426.3636,427.0813,right,1,0.7108,,427.0814,428.0744,0,4,4,7,1,partial,1,images/Ex4.jpg,right,training,easy,4,,,,,
,,,,,5d8cb1c93a7d5c00196eae92,001,47,Male,British,BA,2024-02-26_17h22.08.261,CRL1e,2023.2.3,Win32,59.52380952,65dbad3905fde4fe1981dc61,65dcc8074855325f246a7b57,,,,,,,,,,,428.0751,1,429.064,429.064,429.6641,right,1,0.5929,,429.6642,430.6636,0,5,5,6,1,partial,1,images/Ex4.jpg,right,training,easy,4,,,,,
,,,,,5d8cb1c93a7d5c00196eae92,001,47,Male,British,BA,2024-02-26_17h22.08.261,CRL1e,2023.2.3,Win32,59.52380952,65dbad3905fde4fe1981dc61,65dcc8074855325f246a7b57,,,,,,,,,,,430.6641,1.4,432.0641,432.0642,432.9813,right,1,0.9096,,432.9813,433.9805,0,6,6,4,1,partial,1,images/Ex3.jpg,right,training,easy,4,,,,,
,,,,,5d8cb1c93a7d5c00196eae92,001,47,Male,British,BA,2024-02-26_17h22.08.261,CRL1e,2023.2.3,Win32,59.52380952,65dbad3905fde4fe1981dc61,65dcc8074855325f246a7b57,,,,,,,,,,,433.9812,1.5,435.4802,435.4802,436.4333,right,0,0.9509,,436.4334,437.4309,0,7,7,3,1,partial,1,images/Ex2.jpg,left,training,easy,4,,,,,
,,,,,5d8cb1c93a7d5c00196eae92,001,47,Male,British,BA,2024-02-26_17h22.08.261,CRL1e,2023.2.3,Win32,59.52380952,65dbad3905fde4fe1981dc61,65dcc8074855325f246a7b57,,,,,,,,,,,437.4317,0.5,437.9301,437.9302,438.6579,left,1,0.7265,,438.6579,439.6468,1,0,8,1,1,partial,1,images/Ex1.jpg,left,training,easy,4,,,,,
,,,,,5d8cb1c93a7d5c00196eae92,001,47,Male,British,BA,2024-02-26_17h22.08.261,CRL1e,2023.2.3,Win32,59.52380952,65dbad3905fde4fe1981dc61,65dcc8074855325f246a7b57,,,,,,,,,,,439.6472,1.4,441.0473,441.0474,441.9148,right,1,0.8614,,441.9148,442.9235,1,1,9,4,1,partial,1,images/Ex3.jpg,right,training,easy,4,,,,,
,,,,,5d8cb1c93a7d5c00196eae92,001,47,Male,British,BA,2024-02-26_17h22.08.261,CRL1e,2023.2.3,Win32,59.52380952,65dbad3905fde4fe1981dc61,65dcc8074855325f246a7b57,,,,,,,,,,,442.9238,0.5,443.4135,443.4136,444.3579,left,0,0.9432,,444.3579,445.3493,1,2,10,7,1,partial,1,images/Ex4.jpg,right,training,easy,4,,,,,
,,,,,5d8cb1c93a7d5c00196eae92,001,47,Male,British,BA,2024-02-26_17h22.08.261,CRL1e,2023.2.3,Win32,59.52380952,65dbad3905fde4fe1981dc61,65dcc8074855325f246a7b57,,,,,,,,,,,445.3506,1.2,446.5473,446.5473,447.0657,right,1,0.5149,,447.0659,448.0572,1,3,11,6,1,partial,1,images/Ex4.jpg,right,training,easy,4,,,,,
,,,,,5d8cb1c93a7d5c00196eae92,001,47,Male,British,BA,2024-02-26_17h22.08.261,CRL1e,2023.2.3,Win32,59.52380952,65dbad3905fde4fe1981dc61,65dcc8074855325f246a7b57,,,,,,,,,,,448.0577,1,449.0469,449.047,449.7639,left,1,0.7096,,449.7639,450.757,1,4,12,0,1,partial,1,images/Ex1.jpg,left,training,easy,4,,,,,
,,,,,5d8cb1c93a7d5c00196eae92,001,47,Male,British,BA,2024-02-26_17h22.08.261,CRL1e,2023.2.3,Win32,59.52380952,65dbad3905fde4fe1981dc61,65dcc8074855325f246a7b57,,,,,,,,,,,450.7576,1,451.7479,451.748,452.4812,right,1,0.7272,,452.4812,453.4804,1,5,13,5,1,partial,1,images/Ex3.jpg,right,training,easy,4,,,,,
,,,,,5d8cb1c93a7d5c00196eae92,001,47,Male,British,BA,2024-02-26_17h22.08.261,CRL1e,2023.2.3,Win32,59.52380952,65dbad3905fde4fe1981dc61,65dcc8074855325f246a7b57,,,,,,,,,,,453.4813,0.7,454.1805,454.1805,455.0592,right,0,0.8765,,455.0593,456.0473,1,6,14,3,1,partial,1,images/Ex2.jpg,left,training,easy,4,,,,,
,,,,,5d8cb1c93a7d5c00196eae92,001,47,Male,British,BA,2024-02-26_17h22.08.261,CRL1e,2023.2.3,Win32,59.52380952,65dbad3905fde4fe1981dc61,65dcc8074855325f246a7b57,,,,,,,,,,,456.0481,0.6,456.6473,456.6473,457.3639,left,1,0.7105,,457.3639,458.3646,1,7,15,2,1,partial,1,images/Ex2.jpg,left,training,easy,4,,,,,
,,,,,5d8cb1c93a7d5c00196eae92,001,47,Male,British,BA,2024-02-26_17h22.08.261,CRL1e,2023.2.3,Win32,59.52380952,65dbad3905fde4fe1981dc61,65dcc8074855325f246a7b57,,,,,,,,,,,458.3656,1.2,459.5642,459.5642,460.1246,left,1,0.5594,,460.1246,461.1135,2,0,16,2,1,partial,1,images/Ex2.jpg,left,training,easy,4,,,,,
,,,,,5d8cb1c93a7d5c00196eae92,001,47,Male,British,BA,2024-02-26_17h22.08.261,CRL1e,2023.2.3,Win32,59.52380952,65dbad3905fde4fe1981dc61,65dcc8074855325f246a7b57,,,,,,,,,,,461.1142,1.5,462.6142,462.6142,463.2337,left,1,0.6107,,463.2338,464.2306,2,1,17,1,1,partial,1,images/Ex1.jpg,left,training,easy,4,,,,,
,,,,,5d8cb1c93a7d5c00196eae92,001,47,Male,British,BA,2024-02-26_17h22.08.261,CRL1e,2023.2.3,Win32,59.52380952,65dbad3905fde4fe1981dc61,65dcc8074855325f246a7b57,,,,,,,,,,,464.2314,0.7,464.9312,464.9315,465.4323,left,1,0.4951,,465.4324,466.4312,2,2,18,0,1,partial,1,images/Ex1.jpg,left,training,easy,4,,,,,
,,,,,5d8cb1c93a7d5c00196eae92,001,47,Male,British,BA,2024-02-26_17h22.08.261,CRL1e,2023.2.3,Win32,59.52380952,65dbad3905fde4fe1981dc61,65dcc8074855325f246a7b57,,,,,,,,,,,466.4324,1.3,467.7305,467.7305,468.4319,right,1,0.6992,,468.432,469.4304,2,3,19,5,1,partial,1,images/Ex3.jpg,right,training,easy,4,,,,,
,,,,,5d8cb1c93a7d5c00196eae92,001,47,Male,British,BA,2024-02-26_17h22.08.261,CRL1e,2023.2.3,Win32,59.52380952,65dbad3905fde4fe1981dc61,65dcc8074855325f246a7b57,,,,,,,,,,,469.431,1.1,470.5302,470.5303,471.1644,left,1,0.6282,,471.1644,472.1636,2,4,20,3,1,partial,1,images/Ex2.jpg,left,training,easy,4,,,,,
,,,,,5d8cb1c93a7d5c00196eae92,001,47,Male,British,BA,2024-02-26_17h22.08.261,CRL1e,2023.2.3,Win32,59.52380952,65dbad3905fde4fe1981dc61,65dcc8074855325f246a7b57,,,,,,,,,,,472.1639,1.1,473.2646,473.2646,473.9816,left,0,0.7096,,473.9818,474.9814,2,5,21,7,1,partial,1,images/Ex4.jpg,right,training,easy,4,,,,,
,,,,,5d8cb1c93a7d5c00196eae92,001,47,Male,British,BA,2024-02-26_17h22.08.261,CRL1e,2023.2.3,Win32,59.52380952,65dbad3905fde4fe1981dc61,65dcc8074855325f246a7b57,,,,,,,,,,,474.9824,0.8,475.7815,475.7817,476.7654,left,0,0.9767,,476.7655,477.7566,2,6,22,4,1,partial,1,images/Ex3.jpg,right,training,easy,4,,,,,
,,,,,5d8cb1c93a7d5c00196eae92,001,47,Male,British,BA,2024-02-26_17h22.08.261,CRL1e,2023.2.3,Win32,59.52380952,65dbad3905fde4fe1981dc61,65dcc8074855325f246a7b57,,,,,,,,,,,477.7572,1.1,478.8568,478.8568,480.0259,right,1,1.168,,480.026,481.0241,2,7,23,6,1,partial,1,images/Ex4.jpg,right,training,easy,4,,,,,
,,,,,5d8cb1c93a7d5c00196eae92,001,47,Male,British,BA,2024-02-26_17h22.08.261,CRL1e,2023.2.3,Win32,59.52380952,65dbad3905fde4fe1981dc61,65dcc8074855325f246a7b57,,,,,,,,,,,481.0246,0.8,481.8272,481.8272,482.4104,left,1,0.58,,482.4105,483.4142,3,0,24,0,1,partial,1,images/Ex1.jpg,left,training,easy,4,,,,,
,,,,,5d8cb1c93a7d5c00196eae92,001,47,Male,British,BA,2024-02-26_17h22.08.261,CRL1e,2023.2.3,Win32,59.52380952,65dbad3905fde4fe1981dc61,65dcc8074855325f246a7b57,,,,,,,,,,,483.4152,1.2,484.6141,484.6142,485.1824,left,1,0.5605,,485.1826,486.1802,3,1,25,1,1,partial,1,images/Ex1.jpg,left,training,easy,4,,,,,
,,,,,5d8cb1c93a7d5c00196eae92,001,47,Male,British,BA,2024-02-26_17h22.08.261,CRL1e,2023.2.3,Win32,59.52380952,65dbad3905fde4fe1981dc61,65dcc8074855325f246a7b57,,,,,,,,,,,486.1807,1.5,487.6804,487.6805,488.5583,right,1,0.8764,,488.5584,489.557,3,2,26,4,1,partial,1,images/Ex3.jpg,right,training,easy,4,,,,,
,,,,,5d8cb1c93a7d5c00196eae92,001,47,Male,British,BA,2024-02-26_17h22.08.261,CRL1e,2023.2.3,Win32,59.52380952,65dbad3905fde4fe1981dc61,65dcc8074855325f246a7b57,,,,,,,,,,,489.5575,1.2,490.7471,490.7471,491.7973,left,0,1.0428,,491.7973,492.7975,3,3,27,7,1,partial,1,images/Ex4.jpg,right,training,easy,4,,,,,
,,,,,5d8cb1c93a7d5c00196eae92,001,47,Male,British,BA,2024-02-26_17h22.08.261,CRL1e,2023.2.3,Win32,59.52380952,65dbad3905fde4fe1981dc61,65dcc8074855325f246a7b57,,,,,,,,,,,492.7985,1,493.7972,493.7972,494.5142,left,1,0.7124,,494.5142,495.5136,3,4,28,3,1,partial,1,images/Ex2.jpg,left,training,easy,4,,,,,
,,,,,5d8cb1c93a7d5c00196eae92,001,47,Male,British,BA,2024-02-26_17h22.08.261,CRL1e,2023.2.3,Win32,59.52380952,65dbad3905fde4fe1981dc61,65dcc8074855325f246a7b57,,,,,,,,,,,495.5143,1.3,496.8141,496.8142,497.3659,right,1,0.5438,,497.3661,498.364,3,5,29,6,1,partial,1,images/Ex4.jpg,right,training,easy,4,,,,,
,,,,,5d8cb1c93a7d5c00196eae92,001,47,Male,British,BA,2024-02-26_17h22.08.261,CRL1e,2023.2.3,Win32,59.52380952,65dbad3905fde4fe1981dc61,65dcc8074855325f246a7b57,,,,,,,,,,,498.3645,1.1,499.464,499.4641,499.9316,right,0,0.4594,,499.9317,500.9304,3,6,30,2,1,partial,1,images/Ex2.jpg,left,training,easy,4,,,,,
,,,,,5d8cb1c93a7d5c00196eae92,001,47,Male,British,BA,2024-02-26_17h22.08.261,CRL1e,2023.2.3,Win32,59.52380952,65dbad3905fde4fe1981dc61,65dcc8074855325f246a7b57,,,,,,,,,,,500.931,1.3,502.2305,502.2305,503.1824,right,1,0.9436,,503.1826,504.1808,3,7,31,5,1,partial,1,images/Ex3.jpg,right,training,easy,4,,,,,
,,,,,5d8cb1c93a7d5c00196eae92,001,47,Male,British,BA,2024-02-26_17h22.08.261,CRL1e,2023.2.3,Win32,59.52380952,65dbad3905fde4fe1981dc61,65dcc8074855325f246a7b57,,,,,,,,,,,504.1822,0.7,504.8807,504.8808,505.3806,right,0,0.4924,,505.3807,506.3803,4,0,32,2,1,partial,1,images/Ex2.jpg,left,training,easy,4,,,,,
,,,,,5d8cb1c93a7d5c00196eae92,001,47,Male,British,BA,2024-02-26_17h22.08.261,CRL1e,2023.2.3,Win32,59.52380952,65dbad3905fde4fe1981dc61,65dcc8074855325f246a7b57,,,,,,,,,,,506.381,1.5,507.8804,507.8805,508.7311,right,1,0.8445,,508.7311,509.7239,4,1,33,5,1,partial,1,images/Ex3.jpg,right,training,easy,4,,,,,
,,,,,5d8cb1c93a7d5c00196eae92,001,47,Male,British,BA,2024-02-26_17h22.08.261,CRL1e,2023.2.3,Win32,59.52380952,65dbad3905fde4fe1981dc61,65dcc8074855325f246a7b57,,,,,,,,,,,509.7243,0.7,510.4235,510.4236,511.1077,right,1,0.6833,,511.1077,512.0976,4,2,34,4,1,partial,1,images/Ex3.jpg,right,training,easy,4,,,,,
,,,,,5d8cb1c93a7d5c00196eae92,001,47,Male,British,BA,2024-02-26_17h22.08.261,CRL1e,2023.2.3,Win32,59.52380952,65dbad3905fde4fe1981dc61,65dcc8074855325f246a7b57,,,,,,,,,,,512.0987,1,513.0971,513.0972,513.6651,left,1,0.5607,,513.6652,514.6647,4,3,35,0,1,partial,1,images/Ex1.jpg,left,training,easy,4,,,,,
,,,,,5d8cb1c93a7d5c00196eae92,001,47,Male,British,BA,2024-02-26_17h22.08.261,CRL1e,2023.2.3,Win32,59.52380952,65dbad3905fde4fe1981dc61,65dcc8074855325f246a7b57,,,,,,,,,,,514.6655,0.6,515.2642,515.2642,516.2751,right,1,1.0087,,516.2751,517.2683,4,4,36,6,1,partial,1,images/Ex4.jpg,right,training,easy,4,,,,,
,,,,,5d8cb1c93a7d5c00196eae92,001,47,Male,British,BA,2024-02-26_17h22.08.261,CRL1e,2023.2.3,Win32,59.52380952,65dbad3905fde4fe1981dc61,65dcc8074855325f246a7b57,,,,,,,,,,,517.2688,0.8,518.0566,518.0566,518.7307,left,1,0.6667,,518.7307,519.7246,4,5,37,3,1,partial,1,images/Ex2.jpg,left,training,easy,4,,,,,
,,,,,5d8cb1c93a7d5c00196eae92,001,47,Male,British,BA,2024-02-26_17h22.08.261,CRL1e,2023.2.3,Win32,59.52380952,65dbad3905fde4fe1981dc61,65dcc8074855325f246a7b57,,,,,,,,,,,519.7249,0.8,520.5135,520.5136,521.0638,left,1,0.5469,,521.0639,522.0639,4,6,38,1,1,partial,1,images/Ex1.jpg,left,training,easy,4,,,,,
,,,,,5d8cb1c93a7d5c00196eae92,001,47,Male,British,BA,2024-02-26_17h22.08.261,CRL1e,2023.2.3,Win32,59.52380952,65dbad3905fde4fe1981dc61,65dcc8074855325f246a7b57,,,,,,,,,,,522.0645,1.5,523.5642,523.5642,524.3665,right,1,0.7989,,524.3667,525.3635,4,7,39,7,1,partial,1,images/Ex4.jpg,right,training,easy,4,,,,,
,,,,,5d8cb1c93a7d5c00196eae92,001,47,Male,British,BA,2024-02-26_17h22.08.261,CRL1e,2023.2.3,Win32,59.52380952,65dbad3905fde4fe1981dc61,65dcc8074855325f246a7b57,,,,,,,,,,,525.3639,1.5,526.8634,526.8634,527.5975,left,1,0.7277,,527.5976,528.5969,5,0,40,2,1,partial,1,images/Ex2.jpg,left,training,easy,4,,,,,
,,,,,5d8cb1c93a7d5c00196eae92,001,47,Male,British,BA,2024-02-26_17h22.08.261,CRL1e,2023.2.3,Win32,59.52380952,65dbad3905fde4fe1981dc61,65dcc8074855325f246a7b57,,,,,,,,,,,528.5974,0.6,529.197,529.197,529.997,right,1,0.7902,,529.9971,530.9971,5,1,41,6,1,partial,1,images/Ex4.jpg,right,training,easy,4,,,,,
,,,,,5d8cb1c93a7d5c00196eae92,001,47,Male,British,BA,2024-02-26_17h22.08.261,CRL1e,2023.2.3,Win32,59.52380952,65dbad3905fde4fe1981dc61,65dcc8074855325f246a7b57,,,,,,,,,,,530.9976,0.7,531.6968,531.6968,532.365,right,1,0.6625,,532.3651,533.3643,5,2,42,7,1,partial,1,images/Ex4.jpg,right,training,easy,4,,,,,
,,,,,5d8cb1c93a7d5c00196eae92,001,47,Male,British,BA,2024-02-26_17h22.08.261,CRL1e,2023.2.3,Win32,59.52380952,65dbad3905fde4fe1981dc61,65dcc8074855325f246a7b57,,,,,,,,,,,533.3647,1,534.3642,534.3642,535.1812,right,1,0.8101,,535.1812,536.1811,5,3,43,5,1,partial,1,images/Ex3.jpg,right,training,easy,4,,,,,
,,,,,5d8cb1c93a7d5c00196eae92,001,47,Male,British,BA,2024-02-26_17h22.08.261,CRL1e,2023.2.3,Win32,59.52380952,65dbad3905fde4fe1981dc61,65dcc8074855325f246a7b57,,,,,,,,,,,536.1822,0.5,536.6807,536.6808,537.4322,right,1,0.7457,,537.4324,538.4311,5,4,44,4,1,partial,1,images/Ex3.jpg,right,training,easy,4,,,,,
,,,,,5d8cb1c93a7d5c00196eae92,001,47,Male,British,BA,2024-02-26_17h22.08.261,CRL1e,2023.2.3,Win32,59.52380952,65dbad3905fde4fe1981dc61,65dcc8074855325f246a7b57,,,,,,,,,,,538.4323,1.4,539.8243,539.8243,540.508,left,1,0.6826,,540.5081,541.5062,5,5,45,3,1,partial,1,images/Ex2.jpg,left,training,easy,4,,,,,
,,,,,5d8cb1c93a7d5c00196eae92,001,47,Male,British,BA,2024-02-26_17h22.08.261,CRL1e,2023.2.3,Win32,59.52380952,65dbad3905fde4fe1981dc61,65dcc8074855325f246a7b57,,,,,,,,,,,541.5066,1.2,542.6989,542.699,543.3809,left,1,0.6734,,543.381,544.3739,5,6,46,0,1,partial,1,images/Ex1.jpg,left,training,easy,4,,,,,
,,,,,5d8cb1c93a7d5c00196eae92,001,47,Male,British,BA,2024-02-26_17h22.08.261,CRL1e,2023.2.3,Win32,59.52380952,65dbad3905fde4fe1981dc61,65dcc8074855325f246a7b57,,,,,,,,,,,544.3743,1.1,545.4645,545.4646,545.8816,left,1,0.4098,,545.8816,546.8815,5,7,47,1,1,partial,1,images/Ex1.jpg,left,training,easy,4,,,,,
,,,,,5d8cb1c93a7d5c00196eae92,001,47,Male,British,BA,2024-02-26_17h22.08.261,CRL1e,2023.2.3,Win32,59.52380952,65dbad3905fde4fe1981dc61,65dcc8074855325f246a7b57,,,,,,,,,,,546.8902,0.6,547.4805,547.4805,547.9978,right,0,0.5104,,547.9979,548.9906,0,0,0,3,1,partial,2,images/Ex2.jpg,left,nonreversed,easy,4,,,,,
,,,,,5d8cb1c93a7d5c00196eae92,001,47,Male,British,BA,2024-02-26_17h22.08.261,CRL1e,2023.2.3,Win32,59.52380952,65dbad3905fde4fe1981dc61,65dcc8074855325f246a7b57,,,,,,,,,,,548.9909,1.3,550.29,550.29,550.9117,right,1,0.62,,550.9118,551.914,0,1,1,6,1,partial,2,images/Ex4.jpg,right,nonreversed,easy,4,,,,,
,,,,,5d8cb1c93a7d5c00196eae92,001,47,Male,British,BA,2024-02-26_17h22.08.261,CRL1e,2023.2.3,Win32,59.52380952,65dbad3905fde4fe1981dc61,65dcc8074855325f246a7b57,,,,,,,,,,,551.9145,1.4,553.3135,553.3135,553.7806,left,0,0.4593,,553.7806,554.7802,0,2,2,0,1,partial,2,images/Ex1.jpg,right,reversed,easy,4,,,,,
,,,,,5d8cb1c93a7d5c00196eae92,001,47,Male,British,BA,2024-02-26_17h22.08.261,CRL1e,2023.2.3,Win32,59.52380952,65dbad3905fde4fe1981dc61,65dcc8074855325f246a7b57,,,,,,,,,,,554.7807,1.3,556.0813,556.0813,557.2321,right,0,1.1431,,557.2321,558.231,0,3,3,2,1,partial,2,images/Ex2.jpg,left,nonreversed,easy,4,,,,,
,,,,,5d8cb1c93a7d5c00196eae92,001,47,Male,British,BA,2024-02-26_17h22.08.261,CRL1e,2023.2.3,Win32,59.52380952,65dbad3905fde4fe1981dc61,65dcc8074855325f246a7b57,,,,,,,,,,,558.2321,0.6,558.8302,558.8302,559.7905,left,1,0.9589,,559.7906,560.7809,0,4,4,4,1,partial,2,images/Ex3.jpg,left,reversed,easy,4,,,,,
,,,,,5d8cb1c93a7d5c00196eae92,001,47,Male,British,BA,2024-02-26_17h22.08.261,CRL1e,2023.2.3,Win32,59.52380952,65dbad3905fde4fe1981dc61,65dcc8074855325f246a7b57,,,,,,,,,,,560.7812,0.7,561.4802,561.4803,562.2971,right,1,0.8133,,562.2972,563.2972,0,5,5,1,1,partial,2,images/Ex1.jpg,right,reversed,easy,4,,,,,
,,,,,5d8cb1c93a7d5c00196eae92,001,47,Male,British,BA,2024-02-26_17h22.08.261,CRL1e,2023.2.3,Win32,59.52380952,65dbad3905fde4fe1981dc61,65dcc8074855325f246a7b57,,,,,,,,,,,563.2979,1.3,564.5972,564.5972,565.5641,left,0,0.9586,,565.5642,566.5638,0,6,6,7,1,partial,2,images/Ex4.jpg,right,nonreversed,easy,4,,,,,
,,,,,5d8cb1c93a7d5c00196eae92,001,47,Male,British,BA,2024-02-26_17h22.08.261,CRL1e,2023.2.3,Win32,59.52380952,65dbad3905fde4fe1981dc61,65dcc8074855325f246a7b57,,,,,,,,,,,566.5646,1.1,567.6642,567.6643,568.6245,right,0,0.958,,568.6246,569.6148,0,7,7,5,1,partial,2,images/Ex3.jpg,left,reversed,easy,4,,,,,
,,,,,5d8cb1c93a7d5c00196eae92,001,47,Male,British,BA,2024-02-26_17h22.08.261,CRL1e,2023.2.3,Win32,59.52380952,65dbad3905fde4fe1981dc61,65dcc8074855325f246a7b57,,,,,,,,,,,569.6154,0.8,570.4241,570.4241,570.9647,left,1,0.5371,,570.9647,571.9636,1,0,8,4,1,partial,2,images/Ex3.jpg,left,reversed,easy,4,,,,,
,,,,,5d8cb1c93a7d5c00196eae92,001,47,Male,British,BA,2024-02-26_17h22.08.261,CRL1e,2023.2.3,Win32,59.52380952,65dbad3905fde4fe1981dc61,65dcc8074855325f246a7b57,,,,,,,,,,,571.964,0.9,572.8642,572.8642,573.6973,right,1,0.8284,,573.6974,574.6978,1,1,9,0,1,partial,2,images/Ex1.jpg,right,reversed,easy,4,,,,,
,,,,,5d8cb1c93a7d5c00196eae92,001,47,Male,British,BA,2024-02-26_17h22.08.261,CRL1e,2023.2.3,Win32,59.52380952,65dbad3905fde4fe1981dc61,65dcc8074855325f246a7b57,,,,,,,,,,,574.6987,1.2,575.8977,575.898,576.798,left,1,0.8904,,576.7981,577.797,1,2,10,5,1,partial,2,images/Ex3.jpg,left,reversed,easy,4,,,,,
,,,,,5d8cb1c93a7d5c00196eae92,001,47,Male,British,BA,2024-02-26_17h22.08.261,CRL1e,2023.2.3,Win32,59.52380952,65dbad3905fde4fe1981dc61,65dcc8074855325f246a7b57,,,,,,,,,,,577.7982,1.3,579.0973,579.0974,580.0082,right,0,0.9097,,580.0083,581.0068,1,3,11,3,1,partial,2,images/Ex2.jpg,left,nonreversed,easy,4,,,,,
,,,,,5d8cb1c93a7d5c00196eae92,001,47,Male,British,BA,2024-02-26_17h22.08.261,CRL1e,2023.2.3,Win32,59.52380952,65dbad3905fde4fe1981dc61,65dcc8074855325f246a7b57,,,,,,,,,,,581.0073,1.2,582.2075,582.2075,583.0143,right,1,0.8057,,583.0143,584.0137,1,4,12,1,1,partial,2,images/Ex1.jpg,right,reversed,easy,4,,,,,
,,,,,5d8cb1c93a7d5c00196eae92,001,47,Male,British,BA,2024-02-26_17h22.08.261,CRL1e,2023.2.3,Win32,59.52380952,65dbad3905fde4fe1981dc61,65dcc8074855325f246a7b57,,,,,,,,,,,584.0144,1.1,585.1138,585.1139,585.7013,left,1,0.5851,,585.7014,586.6973,1,5,13,2,1,partial,2,images/Ex2.jpg,left,nonreversed,easy,4,,,,,
,,,,,5d8cb1c93a7d5c00196eae92,001,47,Male,British,BA,2024-02-26_17h22.08.261,CRL1e,2023.2.3,Win32,59.52380952,65dbad3905fde4fe1981dc61,65dcc8074855325f246a7b57,,,,,,,,,,,586.6981,1.5,588.1979,588.1979,589.3815,left,0,1.1757,,589.3818,590.3812,1,6,14,6,1,partial,2,images/Ex4.jpg,right,nonreversed,easy,4,,,,,
,,,,,5d8cb1c93a7d5c00196eae92,001,47,Male,British,BA,2024-02-26_17h22.08.261,CRL1e,2023.2.3,Win32,59.52380952,65dbad3905fde4fe1981dc61,65dcc8074855325f246a7b57,,,,,,,,,,,590.3815,0.9,591.2759,591.276,591.8749,right,1,0.5981,,591.8749,592.8737,1,7,15,7,1,partial,2,images/Ex4.jpg,right,nonreversed,easy,4,,,,,
,,,,,5d8cb1c93a7d5c00196eae92,001,47,Male,British,BA,2024-02-26_17h22.08.261,CRL1e,2023.2.3,Win32,59.52380952,65dbad3905fde4fe1981dc61,65dcc8074855325f246a7b57,,,,,,,,,,,592.874,1.2,594.0636,594.0636,595.0305,left,1,0.9652,,595.0306,596.0307,2,0,16,3,1,partial,2,images/Ex2.jpg,left,nonreversed,easy,4,,,,,
,,,,,5d8cb1c93a7d5c00196eae92,001,47,Male,British,BA,2024-02-26_17h22.08.261,CRL1e,2023.2.3,Win32,59.52380952,65dbad3905fde4fe1981dc61,65dcc8074855325f246a7b57,,,,,,,,,,,596.0318,0.6,596.6305,596.6305,598.0933,right,0,1.4602,,598.0933,599.0969,2,1,17,5,1,partial,2,images/Ex3.jpg,left,reversed,easy,4,,,,,
,,,,,5d8cb1c93a7d5c00196eae92,001,47,Male,British,BA,2024-02-26_17h22.08.261,CRL1e,2023.2.3,Win32,59.52380952,65dbad3905fde4fe1981dc61,65dcc8074855325f246a7b57,,,,,,,,,,,599.0972,1.5,600.5968,600.5969,601.3305,right,1,0.7278,,601.3306,602.3302,2,2,18,1,1,partial,2,images/Ex1.jpg,right,reversed,easy,4,,,,,
,,,,,5d8cb1c93a7d5c00196eae92,001,47,Male,British,BA,2024-02-26_17h22.08.261,CRL1e,2023.2.3,Win32,59.52380952,65dbad3905fde4fe1981dc61,65dcc8074855325f246a7b57,,,,,,,,,,,602.3307,0.6,602.9347,602.9348,604.0314,right,1,1.095,,604.0315,605.0304,2,3,19,6,1,partial,2,images/Ex4.jpg,right,nonreversed,easy,4,,,,,
,,,,,5d8cb1c93a7d5c00196eae92,001,47,Male,British,BA,2024-02-26_17h22.08.261,CRL1e,2023.2.3,Win32,59.52380952,65dbad3905fde4fe1981dc61,65dcc8074855325f246a7b57,,,,,,,,,,,605.0311,1.5,606.5313,606.5313,607.449,left,1,0.9104,,607.4491,608.4473,2,4,20,4,1,partial,2,images/Ex3.jpg,left,reversed,easy,4,,,,,
,,,,,5d8cb1c93a7d5c00196eae92,001,47,Male,British,BA,2024-02-26_17h22.08.261,CRL1e,2023.2.3,Win32,59.52380952,65dbad3905fde4fe1981dc61,65dcc8074855325f246a7b57,,,,,,,,,,,608.4481,1.1,609.5471,609.5472,610.9426,right,1,1.393,,610.9427,611.9472,2,5,21,0,1,partial,2,images/Ex1.jpg,right,reversed,easy,4,,,,,
,,,,,5d8cb1c93a7d5c00196eae92,001,47,Male,British,BA,2024-02-26_17h22.08.261,CRL1e,2023.2.3,Win32,59.52380952,65dbad3905fde4fe1981dc61,65dcc8074855325f246a7b57,,,,,,,,,,,611.9477,0.7,612.6467,612.6468,614.0306,right,1,1.3766,,614.0307,615.0245,2,6,22,7,1,partial,2,images/Ex4.jpg,right,nonreversed,easy,4,,,,,
,,,,,5d8cb1c93a7d5c00196eae92,001,47,Male,British,BA,2024-02-26_17h22.08.261,CRL1e,2023.2.3,Win32,59.52380952,65dbad3905fde4fe1981dc61,65dcc8074855325f246a7b57,,,,,,,,,,,615.0254,0.7,615.7186,615.7187,616.5579,left,1,0.8368,,616.5579,617.5475,2,7,23,2,1,partial,2,images/Ex2.jpg,left,nonreversed,easy,4,,,,,
,,,,,5d8cb1c93a7d5c00196eae92,001,47,Male,British,BA,2024-02-26_17h22.08.261,CRL1e,2023.2.3,Win32,59.52380952,65dbad3905fde4fe1981dc61,65dcc8074855325f246a7b57,,,,,,,,,,,617.5485,1,618.5468,618.5469,619.2247,right,1,0.6761,,619.2248,620.2135,3,0,24,0,1,partial,2,images/Ex1.jpg,right,reversed,easy,4,,,,,
,,,,,5d8cb1c93a7d5c00196eae92,001,47,Male,British,BA,2024-02-26_17h22.08.261,CRL1e,2023.2.3,Win32,59.52380952,65dbad3905fde4fe1981dc61,65dcc8074855325f246a7b57,,,,,,,,,,,620.214,0.9,621.1137,621.1137,621.9656,left,1,0.8465,,621.9656,622.9565,3,1,25,5,1,partial,2,images/Ex3.jpg,left,reversed,easy,4,,,,,
,,,,,5d8cb1c93a7d5c00196eae92,001,47,Male,British,BA,2024-02-26_17h22.08.261,CRL1e,2023.2.3,Win32,59.52380952,65dbad3905fde4fe1981dc61,65dcc8074855325f246a7b57,,,,,,,,,,,622.9568,1.4,624.3572,624.3572,625.0413,right,1,0.6832,,625.0413,626.0409,3,2,26,6,1,partial,2,images/Ex4.jpg,right,nonreversed,easy,4,,,,,
,,,,,5d8cb1c93a7d5c00196eae92,001,47,Male,British,BA,2024-02-26_17h22.08.261,CRL1e,2023.2.3,Win32,59.52380952,65dbad3905fde4fe1981dc61,65dcc8074855325f246a7b57,,,,,,,,,,,626.0414,1,627.0408,627.041,627.8251,left,1,0.7824,,627.8251,628.8152,3,3,27,3,1,partial,2,images/Ex2.jpg,left,nonreversed,easy,4,,,,,
,,,,,5d8cb1c93a7d5c00196eae92,001,47,Male,British,BA,2024-02-26_17h22.08.261,CRL1e,2023.2.3,Win32,59.52380952,65dbad3905fde4fe1981dc61,65dcc8074855325f246a7b57,,,,,,,,,,,628.8158,0.7,629.5234,629.5234,630.3984,right,0,0.868,,630.3985,631.398,3,4,28,4,1,partial,2,images/Ex3.jpg,left,reversed,easy,4,,,,,
,,,,,5d8cb1c93a7d5c00196eae92,001,47,Male,British,BA,2024-02-26_17h22.08.261,CRL1e,2023.2.3,Win32,59.52380952,65dbad3905fde4fe1981dc61,65dcc8074855325f246a7b57,,,,,,,,,,,631.3992,1,632.391,632.391,633.2496,left,1,0.8571,,633.2496,634.2468,3,5,29,2,1,partial,2,images/Ex2.jpg,left,nonreversed,easy,4,,,,,
,,,,,5d8cb1c93a7d5c00196eae92,001,47,Male,British,BA,2024-02-26_17h22.08.261,CRL1e,2023.2.3,Win32,59.52380952,65dbad3905fde4fe1981dc61,65dcc8074855325f246a7b57,,,,,,,,,,,634.2473,1.2,635.4476,635.4477,636.3079,right,1,0.8578,,636.308,637.3077,3,6,30,7,1,partial,2,images/Ex4.jpg,right,nonreversed,easy,4,,,,,
,,,,,5d8cb1c93a7d5c00196eae92,001,47,Male,British,BA,2024-02-26_17h22.08.261,CRL1e,2023.2.3,Win32,59.52380952,65dbad3905fde4fe1981dc61,65dcc8074855325f246a7b57,,,,,,,,,,,637.3082,0.8,638.0968,638.0968,638.8078,right,1,0.7095,,638.8078,639.7967,3,7,31,1,1,partial,2,images/Ex1.jpg,right,reversed,easy,4,,,,,
,,,,,5d8cb1c93a7d5c00196eae92,001,47,Male,British,BA,2024-02-26_17h22.08.261,CRL1e,2023.2.3,Win32,59.52380952,65dbad3905fde4fe1981dc61,65dcc8074855325f246a7b57,,,,,,,,,,,639.7971,0.9,640.6982,640.6983,641.2483,right,1,0.5483,,641.2484,642.2399,4,0,32,1,1,partial,2,images/Ex1.jpg,right,reversed,easy,4,,,,,
,,,,,5d8cb1c93a7d5c00196eae92,001,47,Male,British,BA,2024-02-26_17h22.08.261,CRL1e,2023.2.3,Win32,59.52380952,65dbad3905fde4fe1981dc61,65dcc8074855325f246a7b57,,,,,,,,,,,642.2405,1.5,643.7404,643.7404,644.4815,left,1,0.7333,,644.4816,645.4811,4,1,33,3,1,partial,2,images/Ex2.jpg,left,nonreversed,easy,4,,,,,
,,,,,5d8cb1c93a7d5c00196eae92,001,47,Male,British,BA,2024-02-26_17h22.08.261,CRL1e,2023.2.3,Win32,59.52380952,65dbad3905fde4fe1981dc61,65dcc8074855325f246a7b57,,,,,,,,,,,645.4827,0.9,646.3803,646.3804,647.1647,right,1,0.7784,,647.1649,648.1637,4,2,34,0,1,partial,2,images/Ex1.jpg,right,reversed,easy,4,,,,,
,,,,,5d8cb1c93a7d5c00196eae92,001,47,Male,British,BA,2024-02-26_17h22.08.261,CRL1e,2023.2.3,Win32,59.52380952,65dbad3905fde4fe1981dc61,65dcc8074855325f246a7b57,,,,,,,,,,,648.1644,1.3,649.4642,649.4642,650.1667,right,1,0.6938,,650.1668,651.1646,4,3,35,6,1,partial,2,images/Ex4.jpg,right,nonreversed,easy,4,,,,,
,,,,,5d8cb1c93a7d5c00196eae92,001,47,Male,British,BA,2024-02-26_17h22.08.261,CRL1e,2023.2.3,Win32,59.52380952,65dbad3905fde4fe1981dc61,65dcc8074855325f246a7b57,,,,,,,,,,,651.1656,0.8,651.9635,651.9635,652.6976,left,1,0.729,,652.6977,653.6968,4,4,36,5,1,partial,2,images/Ex3.jpg,left,reversed,easy,4,,,,,
,,,,,5d8cb1c93a7d5c00196eae92,001,47,Male,British,BA,2024-02-26_17h22.08.261,CRL1e,2023.2.3,Win32,59.52380952,65dbad3905fde4fe1981dc61,65dcc8074855325f246a7b57,,,,,,,,,,,653.6972,1,654.697,654.697,655.331,right,1,0.6266,,655.331,656.3303,4,5,37,7,1,partial,2,images/Ex4.jpg,right,nonreversed,easy,4,,,,,
,,,,,5d8cb1c93a7d5c00196eae92,001,47,Male,British,BA,2024-02-26_17h22.08.261,CRL1e,2023.2.3,Win32,59.52380952,65dbad3905fde4fe1981dc61,65dcc8074855325f246a7b57,,,,,,,,,,,656.3307,1.5,657.8311,657.8312,664.375,left,1,6.542,,664.375,665.3738,4,6,38,2,1,partial,2,images/Ex2.jpg,left,nonreversed,easy,4,,,,,
,,,,,5d8cb1c93a7d5c00196eae92,001,47,Male,British,BA,2024-02-26_17h22.08.261,CRL1e,2023.2.3,Win32,59.52380952,65dbad3905fde4fe1981dc61,65dcc8074855325f246a7b57,,,,,,,,,,,665.3815,0.5,665.8804,665.8805,666.916,left,1,1.0271,,666.9161,667.9142,4,7,39,4,1,partial,2,images/Ex3.jpg,left,reversed,easy,4,,,,,
,,,,,5d8cb1c93a7d5c00196eae92,001,47,Male,British,BA,2024-02-26_17h22.08.261,CRL1e,2023.2.3,Win32,59.52380952,65dbad3905fde4fe1981dc61,65dcc8074855325f246a7b57,,,,,,,,,,,667.9155,0.7,668.624,668.624,669.3316,right,1,0.7022,,669.3321,670.3312,5,0,40,7,1,partial,2,images/Ex4.jpg,right,nonreversed,easy,4,,,,,
,,,,,5d8cb1c93a7d5c00196eae92,001,47,Male,British,BA,2024-02-26_17h22.08.261,CRL1e,2023.2.3,Win32,59.52380952,65dbad3905fde4fe1981dc61,65dcc8074855325f246a7b57,,,,,,,,,,,670.3321,1.3,671.6245,671.6247,672.2746,right,1,0.649,,672.2746,673.2743,5,1,41,6,1,partial,2,images/Ex4.jpg,right,nonreversed,easy,4,,,,,
,,,,,5d8cb1c93a7d5c00196eae92,001,47,Male,British,BA,2024-02-26_17h22.08.261,CRL1e,2023.2.3,Win32,59.52380952,65dbad3905fde4fe1981dc61,65dcc8074855325f246a7b57,,,,,,,,,,,673.2748,1.4,674.6741,674.6741,675.4938,left,1,0.8176,,675.4939,676.4975,5,2,42,4,1,partial,2,images/Ex3.jpg,left,reversed,easy,4,,,,,
,,,,,5d8cb1c93a7d5c00196eae92,001,47,Male,British,BA,2024-02-26_17h22.08.261,CRL1e,2023.2.3,Win32,59.52380952,65dbad3905fde4fe1981dc61,65dcc8074855325f246a7b57,,,,,,,,,,,676.4987,1.1,677.5968,677.5968,678.2835,left,1,0.6846,,678.2836,679.2805,5,3,43,3,1,partial,2,images/Ex2.jpg,left,nonreversed,easy,4,,,,,
,,,,,5d8cb1c93a7d5c00196eae92,001,47,Male,British,BA,2024-02-26_17h22.08.261,CRL1e,2023.2.3,Win32,59.52380952,65dbad3905fde4fe1981dc61,65dcc8074855325f246a7b57,,,,,,,,,,,679.2812,0.6,679.8805,679.8805,680.7145,left,1,0.8282,,680.7146,681.7137,5,4,44,5,1,partial,2,images/Ex3.jpg,left,reversed,easy,4,,,,,
,,,,,5d8cb1c93a7d5c00196eae92,001,47,Male,British,BA,2024-02-26_17h22.08.261,CRL1e,2023.2.3,Win32,59.52380952,65dbad3905fde4fe1981dc61,65dcc8074855325f246a7b57,,,,,,,,,,,681.7142,0.5,682.2071,682.2071,682.8716,right,1,0.6635,,682.8716,683.8742,5,5,45,1,1,partial,2,images/Ex1.jpg,right,reversed,easy,4,,,,,
,,,,,5d8cb1c93a7d5c00196eae92,001,47,Male,British,BA,2024-02-26_17h22.08.261,CRL1e,2023.2.3,Win32,59.52380952,65dbad3905fde4fe1981dc61,65dcc8074855325f246a7b57,,,,,,,,,,,683.8746,0.6,684.4734,684.4734,685.2638,right,0,0.7834,,685.2638,686.2642,5,6,46,2,1,partial,2,images/Ex2.jpg,left,nonreversed,easy,4,,,,,
,,,,,5d8cb1c93a7d5c00196eae92,001,47,Male,British,BA,2024-02-26_17h22.08.261,CRL1e,2023.2.3,Win32,59.52380952,65dbad3905fde4fe1981dc61,65dcc8074855325f246a7b57,,,,,,,,,,,686.2651,0.6,686.8639,686.864,687.514,right,1,0.6428,,687.5141,688.5142,5,7,47,0,1,partial,2,images/Ex1.jpg,right,reversed,easy,4,,,,,
,,,,,5d8cb1c93a7d5c00196eae92,001,47,Male,British,BA,2024-02-26_17h22.08.261,CRL1e,2023.2.3,Win32,59.52380952,65dbad3905fde4fe1981dc61,65dcc8074855325f246a7b57,,,,,,,,,,,,,,,,,,,,,,,,,,,,,,,,,,688.5161,739.932,space,51.361,