infCons.started,infCons.stopped,resp_consent.keys,resp_consent.rt,resp_consent.duration,participant,session,Age?,Gender?,Nationality?,Highest Educational Degree?,date,expName,psychopyVersion,OS,frameRate,STUDY_ID,SESSION_ID,instructions.started,instructions.stopped,resp_instructions.keys,resp_instructions.rt,resp_instructions.duration,nextTask.started,nextTask.stopped,ready_task.keys,ready_task.rt,ready_task.duration,fixation.started,ITI,fixation.stopped,stim.started,stim.stopped,response.keys,response.corr,response.rt,response.duration,feedback.started,feedback.stopped,trials.thisRepN,trials.thisTrialN,trials.thisN,trials.thisIndex,trials.ran,task,phase,Exemplars,r_correct,condition,difficulty,set,end.started,end.stopped,resp_end.keys,resp_end.rt,resp_end.duration
0.0002,2.0042,space,1.9831,,5ee683596f9b570626faa11c,001,41,male,british,bachelors,2024-02-26_01h31.39.484,CRL1e,2023.2.3,Win32,144.9275362,65dbad3905fde4fe1981dc61,65dbe9e75fde30418cc856c2,,,,,,,,,,,,,,,,,,,,,,,,,,,,,,,,,,,,,,
,,,,,5ee683596f9b570626faa11c,001,41,male,british,bachelors,2024-02-26_01h31.39.484,CRL1e,2023.2.3,Win32,144.9275362,65dbad3905fde4fe1981dc61,65dbe9e75fde30418cc856c2,2.0044,3.4922,space,1.4763,,,,,,,,,,,,,,,,,,,,,,,,,,,,,,,,,,
,,,,,5ee683596f9b570626faa11c,001,41,male,british,bachelors,2024-02-26_01h31.39.484,CRL1e,2023.2.3,Win32,144.9275362,65dbad3905fde4fe1981dc61,65dbe9e75fde30418cc856c2,,,,,,3.4947,1315.0008,space,1311.4948,,1315.0107,1,1316.0087,1316.0088,1321.0224,left,1,5.0078,,1321.0277,1322.0235,0,0,0,2,1,partial,1,images/Ex6.jpg,left,training,easy,1,,,,,
,,,,,5ee683596f9b570626faa11c,001,41,male,british,bachelors,2024-02-26_01h31.39.484,CRL1e,2023.2.3,Win32,144.9275362,65dbad3905fde4fe1981dc61,65dbe9e75fde30418cc856c2,,,,,,,,,,,1322.024,1.5,1323.5282,1323.5283,1324.4154,left,0,0.8857,,1324.4155,1325.4168,0,1,1,5,1,partial,1,images/Ex7.jpg,right,training,easy,1,,,,,
,,,,,5ee683596f9b570626faa11c,001,41,male,british,bachelors,2024-02-26_01h31.39.484,CRL1e,2023.2.3,Win32,144.9275362,65dbad3905fde4fe1981dc61,65dbe9e75fde30418cc856c2,,,,,,,,,,,1325.4171,0.7,1326.1122,1326.1122,1327.7979,left,1,1.6847,,1327.798,1328.7962,0,2,2,0,1,partial,1,images/Ex5.jpg,left,training,easy,1,,,,,
,,,,,5ee683596f9b570626faa11c,001,41,male,british,bachelors,2024-02-26_01h31.39.484,CRL1e,2023.2.3,Win32,144.9275362,65dbad3905fde4fe1981dc61,65dbe9e75fde30418cc856c2,,,,,,,,,,,1328.7966,1.4,1330.1939,1330.1939,1331.244,left,0,1.0453,,1331.2441,1332.2452,0,3,3,4,1,partial,1,images/Ex7.jpg,right,training,easy,1,,,,,
,,,,,5ee683596f9b570626faa11c,001,41,male,british,bachelors,2024-02-26_01h31.39.484,CRL1e,2023.2.3,Win32,144.9275362,65dbad3905fde4fe1981dc61,65dbe9e75fde30418cc856c2,,,,,,,,,,,1332.2455,0.5,1332.7459,1332.746,1334.0394,right,1,1.2888,,1334.0394,1335.0406,0,4,4,6,1,partial,1,images/Ex8.jpg,right,training,easy,1,,,,,
,,,,,5ee683596f9b570626faa11c,001,41,male,british,bachelors,2024-02-26_01h31.39.484,CRL1e,2023.2.3,Win32,144.9275362,65dbad3905fde4fe1981dc61,65dbe9e75fde30418cc856c2,,,,,,,,,,,1335.0408,1,1336.0419,1336.0419,1336.9181,left,1,0.8727,,1336.9182,1337.9194,0,5,5,3,1,partial,1,images/Ex6.jpg,left,training,easy,1,,,,,
,,,,,5ee683596f9b570626faa11c,001,41,male,british,bachelors,2024-02-26_01h31.39.484,CRL1e,2023.2.3,Win32,144.9275362,65dbad3905fde4fe1981dc61,65dbe9e75fde30418cc856c2,,,,,,,,,,,1337.9197,1.5,1339.4213,1339.4214,1340.1376,right,0,0.7124,,1340.1376,1341.1389,0,6,6,1,1,partial,1,images/Ex5.jpg,left,training,easy,1,,,,,
,,,,,5ee683596f9b570626faa11c,001,41,male,british,bachelors,2024-02-26_01h31.39.484,CRL1e,2023.2.3,Win32,144.9275362,65dbad3905fde4fe1981dc61,65dbe9e75fde30418cc856c2,,,,,,,,,,,1341.1392,1.4,1342.5366,1342.5366,1343.3989,left,0,0.8574,,1343.399,1344.4001,0,7,7,7,1,partial,1,images/Ex8.jpg,right,training,easy,1,,,,,
,,,,,5ee683596f9b570626faa11c,001,41,male,british,bachelors,2024-02-26_01h31.39.484,CRL1e,2023.2.3,Win32,144.9275362,65dbad3905fde4fe1981dc61,65dbe9e75fde30418cc856c2,,,,,,,,,,,1344.4004,1.1,1345.4989,1345.4989,1346.4798,right,1,0.9802,,1346.4798,1347.4806,1,0,8,7,1,partial,1,images/Ex8.jpg,right,training,easy,1,,,,,
,,,,,5ee683596f9b570626faa11c,001,41,male,british,bachelors,2024-02-26_01h31.39.484,CRL1e,2023.2.3,Win32,144.9275362,65dbad3905fde4fe1981dc61,65dbe9e75fde30418cc856c2,,,,,,,,,,,1347.4809,1.3,1348.7808,1348.7809,1349.7823,left,1,0.9988,,1349.7823,1350.7836,1,1,9,0,1,partial,1,images/Ex5.jpg,left,training,easy,1,,,,,
,,,,,5ee683596f9b570626faa11c,001,41,male,british,bachelors,2024-02-26_01h31.39.484,CRL1e,2023.2.3,Win32,144.9275362,65dbad3905fde4fe1981dc61,65dbe9e75fde30418cc856c2,,,,,,,,,,,1350.784,0.7,1351.4788,1351.4789,1352.1977,right,1,0.7181,,1352.1977,1353.1964,1,2,10,6,1,partial,1,images/Ex8.jpg,right,training,easy,1,,,,,
,,,,,5ee683596f9b570626faa11c,001,41,male,british,bachelors,2024-02-26_01h31.39.484,CRL1e,2023.2.3,Win32,144.9275362,65dbad3905fde4fe1981dc61,65dbe9e75fde30418cc856c2,,,,,,,,,,,1353.1967,0.8,1353.9961,1353.9961,1354.6915,right,0,0.6944,,1354.6915,1355.6927,1,3,11,2,1,partial,1,images/Ex6.jpg,left,training,easy,1,,,,,
,,,,,5ee683596f9b570626faa11c,001,41,male,british,bachelors,2024-02-26_01h31.39.484,CRL1e,2023.2.3,Win32,144.9275362,65dbad3905fde4fe1981dc61,65dbe9e75fde30418cc856c2,,,,,,,,,,,1355.6931,1.4,1357.0907,1357.0907,1357.8624,left,0,0.767,,1357.8624,1358.8661,1,4,12,4,1,partial,1,images/Ex7.jpg,right,training,easy,1,,,,,
,,,,,5ee683596f9b570626faa11c,001,41,male,british,bachelors,2024-02-26_01h31.39.484,CRL1e,2023.2.3,Win32,144.9275362,65dbad3905fde4fe1981dc61,65dbe9e75fde30418cc856c2,,,,,,,,,,,1358.8663,1.1,1359.9637,1359.9637,1360.4769,right,0,0.5108,,1360.4769,1361.4782,1,5,13,3,1,partial,1,images/Ex6.jpg,left,training,easy,1,,,,,
,,,,,5ee683596f9b570626faa11c,001,41,male,british,bachelors,2024-02-26_01h31.39.484,CRL1e,2023.2.3,Win32,144.9275362,65dbad3905fde4fe1981dc61,65dbe9e75fde30418cc856c2,,,,,,,,,,,1361.4786,1.1,1362.5769,1362.577,1363.3279,left,1,0.7498,,1363.3279,1364.3292,1,6,14,1,1,partial,1,images/Ex5.jpg,left,training,easy,1,,,,,
,,,,,5ee683596f9b570626faa11c,001,41,male,british,bachelors,2024-02-26_01h31.39.484,CRL1e,2023.2.3,Win32,144.9275362,65dbad3905fde4fe1981dc61,65dbe9e75fde30418cc856c2,,,,,,,,,,,1364.3295,0.8,1365.1288,1365.1288,1366.318,right,1,1.1871,,1366.318,1367.3192,1,7,15,5,1,partial,1,images/Ex7.jpg,right,training,easy,1,,,,,
,,,,,5ee683596f9b570626faa11c,001,41,male,british,bachelors,2024-02-26_01h31.39.484,CRL1e,2023.2.3,Win32,144.9275362,65dbad3905fde4fe1981dc61,65dbe9e75fde30418cc856c2,,,,,,,,,,,1367.3246,1.3,1368.6196,1368.6196,1369.4332,right,0,0.8121,,1369.4332,1370.4358,2,0,16,2,1,partial,1,images/Ex6.jpg,left,training,easy,1,,,,,
,,,,,5ee683596f9b570626faa11c,001,41,male,british,bachelors,2024-02-26_01h31.39.484,CRL1e,2023.2.3,Win32,144.9275362,65dbad3905fde4fe1981dc61,65dbe9e75fde30418cc856c2,,,,,,,,,,,1370.4361,1.3,1371.7347,1371.7347,1372.0964,left,1,0.3592,,1372.0964,1373.0976,2,1,17,1,1,partial,1,images/Ex5.jpg,left,training,easy,1,,,,,
,,,,,5ee683596f9b570626faa11c,001,41,male,british,bachelors,2024-02-26_01h31.39.484,CRL1e,2023.2.3,Win32,144.9275362,65dbad3905fde4fe1981dc61,65dbe9e75fde30418cc856c2,,,,,,,,,,,1373.098,0.5,1373.5983,1373.5983,1374.0296,left,1,0.4267,,1374.0297,1375.0308,2,2,18,3,1,partial,1,images/Ex6.jpg,left,training,easy,1,,,,,
,,,,,5ee683596f9b570626faa11c,001,41,male,british,bachelors,2024-02-26_01h31.39.484,CRL1e,2023.2.3,Win32,144.9275362,65dbad3905fde4fe1981dc61,65dbe9e75fde30418cc856c2,,,,,,,,,,,1375.031,1.5,1376.5261,1376.5261,1377.1447,right,1,0.6173,,1377.1447,1378.146,2,3,19,4,1,partial,1,images/Ex7.jpg,right,training,easy,1,,,,,
,,,,,5ee683596f9b570626faa11c,001,41,male,british,bachelors,2024-02-26_01h31.39.484,CRL1e,2023.2.3,Win32,144.9275362,65dbad3905fde4fe1981dc61,65dbe9e75fde30418cc856c2,,,,,,,,,,,1378.1463,0.6,1378.744,1378.7441,1379.5297,right,1,0.7847,,1379.5298,1380.5312,2,4,20,6,1,partial,1,images/Ex8.jpg,right,training,easy,1,,,,,
,,,,,5ee683596f9b570626faa11c,001,41,male,british,bachelors,2024-02-26_01h31.39.484,CRL1e,2023.2.3,Win32,144.9275362,65dbad3905fde4fe1981dc61,65dbe9e75fde30418cc856c2,,,,,,,,,,,1380.5315,0.6,1381.1291,1381.1291,1381.5116,left,0,0.3799,,1381.5116,1382.5129,2,5,21,5,1,partial,1,images/Ex7.jpg,right,training,easy,1,,,,,
,,,,,5ee683596f9b570626faa11c,001,41,male,british,bachelors,2024-02-26_01h31.39.484,CRL1e,2023.2.3,Win32,144.9275362,65dbad3905fde4fe1981dc61,65dbe9e75fde30418cc856c2,,,,,,,,,,,1382.5132,1.2,1383.7089,1383.7089,1384.3556,left,1,0.6411,,1384.3557,1385.357,2,6,22,0,1,partial,1,images/Ex5.jpg,left,training,easy,1,,,,,
,,,,,5ee683596f9b570626faa11c,001,41,male,british,bachelors,2024-02-26_01h31.39.484,CRL1e,2023.2.3,Win32,144.9275362,65dbad3905fde4fe1981dc61,65dbe9e75fde30418cc856c2,,,,,,,,,,,1385.3573,1,1386.3582,1386.3583,1386.8729,left,0,0.5103,,1386.8729,1387.8742,2,7,23,7,1,partial,1,images/Ex8.jpg,right,training,easy,1,,,,,
,,,,,5ee683596f9b570626faa11c,001,41,male,british,bachelors,2024-02-26_01h31.39.484,CRL1e,2023.2.3,Win32,144.9275362,65dbad3905fde4fe1981dc61,65dbe9e75fde30418cc856c2,,,,,,,,,,,1387.8744,1.2,1389.0701,1389.0701,1389.5084,left,0,0.4328,,1389.5084,1390.5095,3,0,24,4,1,partial,1,images/Ex7.jpg,right,training,easy,1,,,,,
,,,,,5ee683596f9b570626faa11c,001,41,male,british,bachelors,2024-02-26_01h31.39.484,CRL1e,2023.2.3,Win32,144.9275362,65dbad3905fde4fe1981dc61,65dbe9e75fde30418cc856c2,,,,,,,,,,,1390.5099,1.3,1391.8098,1391.8099,1392.3177,left,0,0.504,,1392.3177,1393.3188,3,1,25,7,1,partial,1,images/Ex8.jpg,right,training,easy,1,,,,,
,,,,,5ee683596f9b570626faa11c,001,41,male,british,bachelors,2024-02-26_01h31.39.484,CRL1e,2023.2.3,Win32,144.9275362,65dbad3905fde4fe1981dc61,65dbe9e75fde30418cc856c2,,,,,,,,,,,1393.3191,1.5,1394.8207,1394.8208,1395.2868,left,1,0.4602,,1395.2868,1396.288,3,2,26,2,1,partial,1,images/Ex6.jpg,left,training,easy,1,,,,,
,,,,,5ee683596f9b570626faa11c,001,41,male,british,bachelors,2024-02-26_01h31.39.484,CRL1e,2023.2.3,Win32,144.9275362,65dbad3905fde4fe1981dc61,65dbe9e75fde30418cc856c2,,,,,,,,,,,1396.2882,1.2,1397.484,1397.4841,1398.1099,left,1,0.6218,,1398.11,1399.1111,3,3,27,0,1,partial,1,images/Ex5.jpg,left,training,easy,1,,,,,
,,,,,5ee683596f9b570626faa11c,001,41,male,british,bachelors,2024-02-26_01h31.39.484,CRL1e,2023.2.3,Win32,144.9275362,65dbad3905fde4fe1981dc61,65dbe9e75fde30418cc856c2,,,,,,,,,,,1399.1115,1.2,1400.3073,1400.3073,1400.8497,left,1,0.5371,,1400.8497,1401.8509,3,4,28,3,1,partial,1,images/Ex6.jpg,left,training,easy,1,,,,,
,,,,,5ee683596f9b570626faa11c,001,41,male,british,bachelors,2024-02-26_01h31.39.484,CRL1e,2023.2.3,Win32,144.9275362,65dbad3905fde4fe1981dc61,65dbe9e75fde30418cc856c2,,,,,,,,,,,1401.8512,0.8,1402.6505,1402.6505,1403.5545,left,0,0.9006,,1403.5546,1404.5558,3,5,29,5,1,partial,1,images/Ex7.jpg,right,training,easy,1,,,,,
,,,,,5ee683596f9b570626faa11c,001,41,male,british,bachelors,2024-02-26_01h31.39.484,CRL1e,2023.2.3,Win32,144.9275362,65dbad3905fde4fe1981dc61,65dbe9e75fde30418cc856c2,,,,,,,,,,,1404.5561,1.3,1405.8562,1405.8562,1407.101,left,0,1.2394,,1407.101,1408.1022,3,6,30,6,1,partial,1,images/Ex8.jpg,right,training,easy,1,,,,,
,,,,,5ee683596f9b570626faa11c,001,41,male,british,bachelors,2024-02-26_01h31.39.484,CRL1e,2023.2.3,Win32,144.9275362,65dbad3905fde4fe1981dc61,65dbe9e75fde30418cc856c2,,,,,,,,,,,1408.1024,0.8,1408.9018,1408.9019,1409.7921,left,1,0.8851,,1409.7921,1410.7933,3,7,31,1,1,partial,1,images/Ex5.jpg,left,training,easy,1,,,,,
,,,,,5ee683596f9b570626faa11c,001,41,male,british,bachelors,2024-02-26_01h31.39.484,CRL1e,2023.2.3,Win32,144.9275362,65dbad3905fde4fe1981dc61,65dbe9e75fde30418cc856c2,,,,,,,,,,,1410.7936,0.8,1411.5931,1411.5932,1412.0171,right,1,0.4218,,1412.0171,1413.0184,4,0,32,7,1,partial,1,images/Ex8.jpg,right,training,easy,1,,,,,
,,,,,5ee683596f9b570626faa11c,001,41,male,british,bachelors,2024-02-26_01h31.39.484,CRL1e,2023.2.3,Win32,144.9275362,65dbad3905fde4fe1981dc61,65dbe9e75fde30418cc856c2,,,,,,,,,,,1413.0187,0.7,1413.7137,1413.7138,1414.9447,left,0,1.2251,,1414.9447,1415.9459,4,1,33,4,1,partial,1,images/Ex7.jpg,right,training,easy,1,,,,,
,,,,,5ee683596f9b570626faa11c,001,41,male,british,bachelors,2024-02-26_01h31.39.484,CRL1e,2023.2.3,Win32,144.9275362,65dbad3905fde4fe1981dc61,65dbe9e75fde30418cc856c2,,,,,,,,,,,1415.9461,0.9,1416.8447,1416.8447,1417.5051,right,1,0.6598,,1417.5051,1418.5049,4,2,34,5,1,partial,1,images/Ex7.jpg,right,training,easy,1,,,,,
,,,,,5ee683596f9b570626faa11c,001,41,male,british,bachelors,2024-02-26_01h31.39.484,CRL1e,2023.2.3,Win32,144.9275362,65dbad3905fde4fe1981dc61,65dbe9e75fde30418cc856c2,,,,,,,,,,,1418.5051,1.3,1419.8051,1419.8051,1420.4102,left,1,0.6004,,1420.4102,1421.4114,4,3,35,0,1,partial,1,images/Ex5.jpg,left,training,easy,1,,,,,
,,,,,5ee683596f9b570626faa11c,001,41,male,british,bachelors,2024-02-26_01h31.39.484,CRL1e,2023.2.3,Win32,144.9275362,65dbad3905fde4fe1981dc61,65dbe9e75fde30418cc856c2,,,,,,,,,,,1421.4117,0.6,1422.0095,1422.0095,1422.8788,right,1,0.864,,1422.8788,1423.88,4,4,36,6,1,partial,1,images/Ex8.jpg,right,training,easy,1,,,,,
,,,,,5ee683596f9b570626faa11c,001,41,male,british,bachelors,2024-02-26_01h31.39.484,CRL1e,2023.2.3,Win32,144.9275362,65dbad3905fde4fe1981dc61,65dbe9e75fde30418cc856c2,,,,,,,,,,,1423.8803,0.6,1424.478,1424.4781,1426.0774,left,1,1.5961,,1426.0774,1427.0786,4,5,37,1,1,partial,1,images/Ex5.jpg,left,training,easy,1,,,,,
,,,,,5ee683596f9b570626faa11c,001,41,male,british,bachelors,2024-02-26_01h31.39.484,CRL1e,2023.2.3,Win32,144.9275362,65dbad3905fde4fe1981dc61,65dbe9e75fde30418cc856c2,,,,,,,,,,,1427.0789,0.8,1427.8783,1427.8783,1429.109,right,0,1.2297,,1429.1091,1430.1056,4,6,38,3,1,partial,1,images/Ex6.jpg,left,training,easy,1,,,,,
,,,,,5ee683596f9b570626faa11c,001,41,male,british,bachelors,2024-02-26_01h31.39.484,CRL1e,2023.2.3,Win32,144.9275362,65dbad3905fde4fe1981dc61,65dbe9e75fde30418cc856c2,,,,,,,,,,,1430.106,0.6,1430.7014,1430.7015,1431.7863,left,1,1.0789,,1431.7864,1432.7875,4,7,39,2,1,partial,1,images/Ex6.jpg,left,training,easy,1,,,,,
,,,,,5ee683596f9b570626faa11c,001,41,male,british,bachelors,2024-02-26_01h31.39.484,CRL1e,2023.2.3,Win32,144.9275362,65dbad3905fde4fe1981dc61,65dbe9e75fde30418cc856c2,,,,,,,,,,,1432.7878,0.7,1433.4829,1433.483,1434.3676,right,1,0.8839,,1434.3676,1435.3675,5,0,40,4,1,partial,1,images/Ex7.jpg,right,training,easy,1,,,,,
,,,,,5ee683596f9b570626faa11c,001,41,male,british,bachelors,2024-02-26_01h31.39.484,CRL1e,2023.2.3,Win32,144.9275362,65dbad3905fde4fe1981dc61,65dbe9e75fde30418cc856c2,,,,,,,,,,,1435.3678,1.5,1436.8693,1436.8693,1437.523,left,1,0.6518,,1437.523,1438.5242,5,1,41,2,1,partial,1,images/Ex6.jpg,left,training,easy,1,,,,,
,,,,,5ee683596f9b570626faa11c,001,41,male,british,bachelors,2024-02-26_01h31.39.484,CRL1e,2023.2.3,Win32,144.9275362,65dbad3905fde4fe1981dc61,65dbe9e75fde30418cc856c2,,,,,,,,,,,1438.5245,1.5,1440.0262,1440.0263,1440.965,right,1,0.9378,,1440.965,1441.9663,5,2,42,6,1,partial,1,images/Ex8.jpg,right,training,easy,1,,,,,
,,,,,5ee683596f9b570626faa11c,001,41,male,british,bachelors,2024-02-26_01h31.39.484,CRL1e,2023.2.3,Win32,144.9275362,65dbad3905fde4fe1981dc61,65dbe9e75fde30418cc856c2,,,,,,,,,,,1441.9667,1.2,1443.1623,1443.1623,1443.7258,left,1,0.5628,,1443.7258,1444.7269,5,3,43,3,1,partial,1,images/Ex6.jpg,left,training,easy,1,,,,,
,,,,,5ee683596f9b570626faa11c,001,41,male,british,bachelors,2024-02-26_01h31.39.484,CRL1e,2023.2.3,Win32,144.9275362,65dbad3905fde4fe1981dc61,65dbe9e75fde30418cc856c2,,,,,,,,,,,1444.7272,0.9,1445.6239,1445.6239,1448.0924,left,0,2.4662,,1448.0925,1449.0938,5,4,44,7,1,partial,1,images/Ex8.jpg,right,training,easy,1,,,,,
,,,,,5ee683596f9b570626faa11c,001,41,male,british,bachelors,2024-02-26_01h31.39.484,CRL1e,2023.2.3,Win32,144.9275362,65dbad3905fde4fe1981dc61,65dbe9e75fde30418cc856c2,,,,,,,,,,,1449.0941,1,1450.0951,1450.0951,1451.7013,left,1,1.6052,,1451.7014,1452.7027,5,5,45,0,1,partial,1,images/Ex5.jpg,left,training,easy,1,,,,,
,,,,,5ee683596f9b570626faa11c,001,41,male,british,bachelors,2024-02-26_01h31.39.484,CRL1e,2023.2.3,Win32,144.9275362,65dbad3905fde4fe1981dc61,65dbe9e75fde30418cc856c2,,,,,,,,,,,1452.703,0.5,1453.2033,1453.2034,1454.2673,left,0,1.0598,,1454.2673,1455.2686,5,6,46,5,1,partial,1,images/Ex7.jpg,right,training,easy,1,,,,,
,,,,,5ee683596f9b570626faa11c,001,41,male,british,bachelors,2024-02-26_01h31.39.484,CRL1e,2023.2.3,Win32,144.9275362,65dbad3905fde4fe1981dc61,65dbe9e75fde30418cc856c2,,,,,,,,,,,1455.2688,1.4,1456.6662,1456.6662,1457.7789,left,1,1.1071,,1457.7789,1458.7802,5,7,47,1,1,partial,1,images/Ex5.jpg,left,training,easy,1,,,,,
,,,,,5ee683596f9b570626faa11c,001,41,male,british,bachelors,2024-02-26_01h31.39.484,CRL1e,2023.2.3,Win32,144.9275362,65dbad3905fde4fe1981dc61,65dbe9e75fde30418cc856c2,,,,,,,,,,,1458.7821,1.2,1459.9831,1459.9831,1460.7899,left,0,0.8017,,1460.7899,1461.7911,0,0,0,5,1,partial,2,images/Ex7.jpg,right,nonreversed,easy,1,,,,,
,,,,,5ee683596f9b570626faa11c,001,41,male,british,bachelors,2024-02-26_01h31.39.484,CRL1e,2023.2.3,Win32,144.9275362,65dbad3905fde4fe1981dc61,65dbe9e75fde30418cc856c2,,,,,,,,,,,1461.7915,0.9,1462.6881,1462.6881,1463.5644,left,1,0.8716,,1463.5644,1464.5656,0,1,1,0,1,partial,2,images/Ex5.jpg,left,nonreversed,easy,1,,,,,
,,,,,5ee683596f9b570626faa11c,001,41,male,british,bachelors,2024-02-26_01h31.39.484,CRL1e,2023.2.3,Win32,144.9275362,65dbad3905fde4fe1981dc61,65dbe9e75fde30418cc856c2,,,,,,,,,,,1464.5659,1.1,1465.6641,1465.6642,1467.4515,right,0,1.7822,,1467.4515,1468.4526,0,2,2,7,1,partial,2,images/Ex8.jpg,left,reversed,easy,1,,,,,
,,,,,5ee683596f9b570626faa11c,001,41,male,british,bachelors,2024-02-26_01h31.39.484,CRL1e,2023.2.3,Win32,144.9275362,65dbad3905fde4fe1981dc61,65dbe9e75fde30418cc856c2,,,,,,,,,,,1468.453,0.6,1469.0506,1469.0507,1469.6555,left,1,0.6037,,1469.6556,1470.6569,0,3,3,6,1,partial,2,images/Ex8.jpg,left,reversed,easy,1,,,,,
,,,,,5ee683596f9b570626faa11c,001,41,male,british,bachelors,2024-02-26_01h31.39.484,CRL1e,2023.2.3,Win32,144.9275362,65dbad3905fde4fe1981dc61,65dbe9e75fde30418cc856c2,,,,,,,,,,,1470.6571,0.7,1471.3523,1471.3523,1472.0615,right,1,0.7066,,1472.0615,1473.0629,0,4,4,3,1,partial,2,images/Ex6.jpg,right,reversed,easy,1,,,,,
,,,,,5ee683596f9b570626faa11c,001,41,male,british,bachelors,2024-02-26_01h31.39.484,CRL1e,2023.2.3,Win32,144.9275362,65dbad3905fde4fe1981dc61,65dbe9e75fde30418cc856c2,,,,,,,,,,,1473.0631,0.6,1473.6609,1473.6609,1474.711,right,1,1.046,,1474.711,1475.7122,0,5,5,4,1,partial,2,images/Ex7.jpg,right,nonreversed,easy,1,,,,,
,,,,,5ee683596f9b570626faa11c,001,41,male,british,bachelors,2024-02-26_01h31.39.484,CRL1e,2023.2.3,Win32,144.9275362,65dbad3905fde4fe1981dc61,65dbe9e75fde30418cc856c2,,,,,,,,,,,1475.7125,0.7,1476.4076,1476.4076,1477.5133,left,1,1.1,,1477.5134,1478.5145,0,6,6,1,1,partial,2,images/Ex5.jpg,left,nonreversed,easy,1,,,,,
,,,,,5ee683596f9b570626faa11c,001,41,male,british,bachelors,2024-02-26_01h31.39.484,CRL1e,2023.2.3,Win32,144.9275362,65dbad3905fde4fe1981dc61,65dbe9e75fde30418cc856c2,,,,,,,,,,,1478.5148,0.9,1479.4116,1479.4116,1480.1556,right,1,0.7409,,1480.1556,1481.1568,0,7,7,2,1,partial,2,images/Ex6.jpg,right,reversed,easy,1,,,,,
,,,,,5ee683596f9b570626faa11c,001,41,male,british,bachelors,2024-02-26_01h31.39.484,CRL1e,2023.2.3,Win32,144.9275362,65dbad3905fde4fe1981dc61,65dbe9e75fde30418cc856c2,,,,,,,,,,,1481.1572,0.5,1481.6575,1481.6576,1482.3322,right,1,0.67,,1482.3322,1483.3334,1,0,8,3,1,partial,2,images/Ex6.jpg,right,reversed,easy,1,,,,,
,,,,,5ee683596f9b570626faa11c,001,41,male,british,bachelors,2024-02-26_01h31.39.484,CRL1e,2023.2.3,Win32,144.9275362,65dbad3905fde4fe1981dc61,65dbe9e75fde30418cc856c2,,,,,,,,,,,1483.3337,1,1484.3347,1484.3348,1486.3166,left,1,1.9786,,1486.3166,1487.3178,1,1,9,6,1,partial,2,images/Ex8.jpg,left,reversed,easy,1,,,,,
,,,,,5ee683596f9b570626faa11c,001,41,male,british,bachelors,2024-02-26_01h31.39.484,CRL1e,2023.2.3,Win32,144.9275362,65dbad3905fde4fe1981dc61,65dbe9e75fde30418cc856c2,,,,,,,,,,,1487.3181,0.7,1488.0131,1488.0132,1489.1744,left,1,1.1582,,1489.1744,1490.1757,1,2,10,0,1,partial,2,images/Ex5.jpg,left,nonreversed,easy,1,,,,,
,,,,,5ee683596f9b570626faa11c,001,41,male,british,bachelors,2024-02-26_01h31.39.484,CRL1e,2023.2.3,Win32,144.9275362,65dbad3905fde4fe1981dc61,65dbe9e75fde30418cc856c2,,,,,,,,,,,1490.1759,1.1,1491.2744,1491.2745,1491.9768,right,1,0.7001,,1491.9768,1492.9781,1,3,11,2,1,partial,2,images/Ex6.jpg,right,reversed,easy,1,,,,,
,,,,,5ee683596f9b570626faa11c,001,41,male,british,bachelors,2024-02-26_01h31.39.484,CRL1e,2023.2.3,Win32,144.9275362,65dbad3905fde4fe1981dc61,65dbe9e75fde30418cc856c2,,,,,,,,,,,1492.9783,0.8,1493.7777,1493.7778,1494.6331,left,1,0.8496,,1494.6332,1495.6343,1,4,12,1,1,partial,2,images/Ex5.jpg,left,nonreversed,easy,1,,,,,
,,,,,5ee683596f9b570626faa11c,001,41,male,british,bachelors,2024-02-26_01h31.39.484,CRL1e,2023.2.3,Win32,144.9275362,65dbad3905fde4fe1981dc61,65dbe9e75fde30418cc856c2,,,,,,,,,,,1495.6346,0.8,1496.434,1496.434,1497.491,right,1,1.0509,,1497.4911,1498.4923,1,5,13,4,1,partial,2,images/Ex7.jpg,right,nonreversed,easy,1,,,,,
,,,,,5ee683596f9b570626faa11c,001,41,male,british,bachelors,2024-02-26_01h31.39.484,CRL1e,2023.2.3,Win32,144.9275362,65dbad3905fde4fe1981dc61,65dbe9e75fde30418cc856c2,,,,,,,,,,,1498.4926,1.1,1499.5909,1499.5909,1501.2876,left,1,1.6952,,1501.2877,1502.289,1,6,14,7,1,partial,2,images/Ex8.jpg,left,reversed,easy,1,,,,,
,,,,,5ee683596f9b570626faa11c,001,41,male,british,bachelors,2024-02-26_01h31.39.484,CRL1e,2023.2.3,Win32,144.9275362,65dbad3905fde4fe1981dc61,65dbe9e75fde30418cc856c2,,,,,,,,,,,1502.2892,0.8,1503.0886,1503.0886,1505.14,right,1,2.0465,,1505.14,1506.1413,1,7,15,5,1,partial,2,images/Ex7.jpg,right,nonreversed,easy,1,,,,,
,,,,,5ee683596f9b570626faa11c,001,41,male,british,bachelors,2024-02-26_01h31.39.484,CRL1e,2023.2.3,Win32,144.9275362,65dbad3905fde4fe1981dc61,65dbe9e75fde30418cc856c2,,,,,,,,,,,1506.1469,1.5,1507.6432,1507.6432,1509.2704,left,1,1.6235,,1509.2704,1510.2717,2,0,16,0,1,partial,2,images/Ex5.jpg,left,nonreversed,easy,1,,,,,
,,,,,5ee683596f9b570626faa11c,001,41,male,british,bachelors,2024-02-26_01h31.39.484,CRL1e,2023.2.3,Win32,144.9275362,65dbad3905fde4fe1981dc61,65dbe9e75fde30418cc856c2,,,,,,,,,,,1510.2719,0.5,1510.7724,1510.7724,1511.9615,right,1,1.1847,,1511.9616,1512.9627,2,1,17,4,1,partial,2,images/Ex7.jpg,right,nonreversed,easy,1,,,,,
,,,,,5ee683596f9b570626faa11c,001,41,male,british,bachelors,2024-02-26_01h31.39.484,CRL1e,2023.2.3,Win32,144.9275362,65dbad3905fde4fe1981dc61,65dbe9e75fde30418cc856c2,,,,,,,,,,,1512.963,1.4,1514.3605,1514.3605,1515.3131,right,1,0.9474,,1515.3132,1516.3146,2,2,18,2,1,partial,2,images/Ex6.jpg,right,reversed,easy,1,,,,,
,,,,,5ee683596f9b570626faa11c,001,41,male,british,bachelors,2024-02-26_01h31.39.484,CRL1e,2023.2.3,Win32,144.9275362,65dbad3905fde4fe1981dc61,65dbe9e75fde30418cc856c2,,,,,,,,,,,1516.3149,1,1517.3157,1517.3158,1519.2072,left,1,1.8859,,1519.2072,1520.2084,2,3,19,6,1,partial,2,images/Ex8.jpg,left,reversed,easy,1,,,,,
,,,,,5ee683596f9b570626faa11c,001,41,male,british,bachelors,2024-02-26_01h31.39.484,CRL1e,2023.2.3,Win32,144.9275362,65dbad3905fde4fe1981dc61,65dbe9e75fde30418cc856c2,,,,,,,,,,,1520.214,0.9,1521.1124,1521.1124,1521.7661,left,1,0.6492,,1521.7661,1522.7674,2,4,20,7,1,partial,2,images/Ex8.jpg,left,reversed,easy,1,,,,,
,,,,,5ee683596f9b570626faa11c,001,41,male,british,bachelors,2024-02-26_01h31.39.484,CRL1e,2023.2.3,Win32,144.9275362,65dbad3905fde4fe1981dc61,65dbe9e75fde30418cc856c2,,,,,,,,,,,1522.7677,1.4,1524.1649,1524.1649,1526.3903,right,0,2.2196,,1526.3903,1527.3943,2,5,21,1,1,partial,2,images/Ex5.jpg,left,nonreversed,easy,1,,,,,
,,,,,5ee683596f9b570626faa11c,001,41,male,british,bachelors,2024-02-26_01h31.39.484,CRL1e,2023.2.3,Win32,144.9275362,65dbad3905fde4fe1981dc61,65dbe9e75fde30418cc856c2,,,,,,,,,,,1527.3945,1.2,1528.5944,1528.5944,1529.7767,right,1,1.1774,,1529.7768,1530.778,2,6,22,5,1,partial,2,images/Ex7.jpg,right,nonreversed,easy,1,,,,,
,,,,,5ee683596f9b570626faa11c,001,41,male,british,bachelors,2024-02-26_01h31.39.484,CRL1e,2023.2.3,Win32,144.9275362,65dbad3905fde4fe1981dc61,65dbe9e75fde30418cc856c2,,,,,,,,,,,1530.7783,0.8,1531.5775,1531.5776,1532.3981,right,1,0.8182,,1532.3981,1533.3995,2,7,23,3,1,partial,2,images/Ex6.jpg,right,reversed,easy,1,,,,,
,,,,,5ee683596f9b570626faa11c,001,41,male,british,bachelors,2024-02-26_01h31.39.484,CRL1e,2023.2.3,Win32,144.9275362,65dbad3905fde4fe1981dc61,65dbe9e75fde30418cc856c2,,,,,,,,,,,1533.3997,1.1,1534.4981,1534.4981,1535.1379,right,1,0.6347,,1535.138,1536.1391,3,0,24,3,1,partial,2,images/Ex6.jpg,right,reversed,easy,1,,,,,
,,,,,5ee683596f9b570626faa11c,001,41,male,british,bachelors,2024-02-26_01h31.39.484,CRL1e,2023.2.3,Win32,144.9275362,65dbad3905fde4fe1981dc61,65dbe9e75fde30418cc856c2,,,,,,,,,,,1536.1394,0.6,1536.7374,1536.7374,1537.3159,right,1,0.5781,,1537.316,1538.3156,3,1,25,2,1,partial,2,images/Ex6.jpg,right,reversed,easy,1,,,,,
,,,,,5ee683596f9b570626faa11c,001,41,male,british,bachelors,2024-02-26_01h31.39.484,CRL1e,2023.2.3,Win32,144.9275362,65dbad3905fde4fe1981dc61,65dbe9e75fde30418cc856c2,,,,,,,,,,,1538.3159,1.2,1539.5117,1539.5117,1540.6035,right,1,1.087,,1540.6035,1541.6071,3,2,26,4,1,partial,2,images/Ex7.jpg,right,nonreversed,easy,1,,,,,
,,,,,5ee683596f9b570626faa11c,001,41,male,british,bachelors,2024-02-26_01h31.39.484,CRL1e,2023.2.3,Win32,144.9275362,65dbad3905fde4fe1981dc61,65dbe9e75fde30418cc856c2,,,,,,,,,,,1541.6074,0.9,1542.5086,1542.5087,1543.3362,left,1,0.8223,,1543.3362,1544.3375,3,3,27,1,1,partial,2,images/Ex5.jpg,left,nonreversed,easy,1,,,,,
,,,,,5ee683596f9b570626faa11c,001,41,male,british,bachelors,2024-02-26_01h31.39.484,CRL1e,2023.2.3,Win32,144.9275362,65dbad3905fde4fe1981dc61,65dbe9e75fde30418cc856c2,,,,,,,,,,,1544.3377,1.3,1545.6378,1545.6379,1547.119,left,1,1.4766,,1547.1191,1548.1202,3,4,28,6,1,partial,2,images/Ex8.jpg,left,reversed,easy,1,,,,,
,,,,,5ee683596f9b570626faa11c,001,41,male,british,bachelors,2024-02-26_01h31.39.484,CRL1e,2023.2.3,Win32,144.9275362,65dbad3905fde4fe1981dc61,65dbe9e75fde30418cc856c2,,,,,,,,,,,1548.1204,0.9,1549.0173,1549.0174,1549.7196,left,1,0.6974,,1549.7197,1550.721,3,5,29,0,1,partial,2,images/Ex5.jpg,left,nonreversed,easy,1,,,,,
,,,,,5ee683596f9b570626faa11c,001,41,male,british,bachelors,2024-02-26_01h31.39.484,CRL1e,2023.2.3,Win32,144.9275362,65dbad3905fde4fe1981dc61,65dbe9e75fde30418cc856c2,,,,,,,,,,,1550.7212,1.1,1551.8196,1551.8196,1552.5081,left,1,0.6838,,1552.5081,1553.5023,3,6,30,7,1,partial,2,images/Ex8.jpg,left,reversed,easy,1,,,,,
,,,,,5ee683596f9b570626faa11c,001,41,male,british,bachelors,2024-02-26_01h31.39.484,CRL1e,2023.2.3,Win32,144.9275362,65dbad3905fde4fe1981dc61,65dbe9e75fde30418cc856c2,,,,,,,,,,,1553.5026,0.6,1554.1003,1554.1004,1556.555,right,1,2.4517,,1556.555,1557.5563,3,7,31,5,1,partial,2,images/Ex7.jpg,right,nonreversed,easy,1,,,,,
,,,,,5ee683596f9b570626faa11c,001,41,male,british,bachelors,2024-02-26_01h31.39.484,CRL1e,2023.2.3,Win32,144.9275362,65dbad3905fde4fe1981dc61,65dbe9e75fde30418cc856c2,,,,,,,,,,,1557.5617,0.9,1558.4602,1558.4602,1559.2671,right,1,0.8011,,1559.2671,1560.2682,4,0,32,4,1,partial,2,images/Ex7.jpg,right,nonreversed,easy,1,,,,,
,,,,,5ee683596f9b570626faa11c,001,41,male,british,bachelors,2024-02-26_01h31.39.484,CRL1e,2023.2.3,Win32,144.9275362,65dbad3905fde4fe1981dc61,65dbe9e75fde30418cc856c2,,,,,,,,,,,1560.2684,0.7,1560.9635,1560.9635,1561.7147,left,1,0.7462,,1561.7147,1562.7158,4,1,33,7,1,partial,2,images/Ex8.jpg,left,reversed,easy,1,,,,,
,,,,,5ee683596f9b570626faa11c,001,41,male,british,bachelors,2024-02-26_01h31.39.484,CRL1e,2023.2.3,Win32,144.9275362,65dbad3905fde4fe1981dc61,65dbe9e75fde30418cc856c2,,,,,,,,,,,1562.7161,0.8,1563.5155,1563.5155,1564.5448,right,1,1.0233,,1564.5448,1565.5459,4,2,34,5,1,partial,2,images/Ex7.jpg,right,nonreversed,easy,1,,,,,
,,,,,5ee683596f9b570626faa11c,001,41,male,british,bachelors,2024-02-26_01h31.39.484,CRL1e,2023.2.3,Win32,144.9275362,65dbad3905fde4fe1981dc61,65dbe9e75fde30418cc856c2,,,,,,,,,,,1565.5514,1.1,1566.6516,1566.6516,1567.5486,right,1,0.8962,,1567.5487,1568.55,4,3,35,3,1,partial,2,images/Ex6.jpg,right,reversed,easy,1,,,,,
,,,,,5ee683596f9b570626faa11c,001,41,male,british,bachelors,2024-02-26_01h31.39.484,CRL1e,2023.2.3,Win32,144.9275362,65dbad3905fde4fe1981dc61,65dbe9e75fde30418cc856c2,,,,,,,,,,,1568.5502,1.5,1570.0519,1570.052,1570.789,left,1,0.7348,,1570.789,1571.7903,4,4,36,1,1,partial,2,images/Ex5.jpg,left,nonreversed,easy,1,,,,,
,,,,,5ee683596f9b570626faa11c,001,41,male,british,bachelors,2024-02-26_01h31.39.484,CRL1e,2023.2.3,Win32,144.9275362,65dbad3905fde4fe1981dc61,65dbe9e75fde30418cc856c2,,,,,,,,,,,1571.7906,0.5,1572.291,1572.291,1573.0838,right,1,0.7889,,1573.0838,1574.0851,4,5,37,2,1,partial,2,images/Ex6.jpg,right,reversed,easy,1,,,,,
,,,,,5ee683596f9b570626faa11c,001,41,male,british,bachelors,2024-02-26_01h31.39.484,CRL1e,2023.2.3,Win32,144.9275362,65dbad3905fde4fe1981dc61,65dbe9e75fde30418cc856c2,,,,,,,,,,,1574.0853,0.5,1574.5856,1574.5857,1575.5736,left,1,0.9869,,1575.5737,1576.5745,4,6,38,0,1,partial,2,images/Ex5.jpg,left,nonreversed,easy,1,,,,,
,,,,,5ee683596f9b570626faa11c,001,41,male,british,bachelors,2024-02-26_01h31.39.484,CRL1e,2023.2.3,Win32,144.9275362,65dbad3905fde4fe1981dc61,65dbe9e75fde30418cc856c2,,,,,,,,,,,1576.5747,1.1,1577.673,1577.6731,1578.6953,left,1,1.0189,,1578.6953,1579.6966,4,7,39,6,1,partial,2,images/Ex8.jpg,left,reversed,easy,1,,,,,
,,,,,5ee683596f9b570626faa11c,001,41,male,british,bachelors,2024-02-26_01h31.39.484,CRL1e,2023.2.3,Win32,144.9275362,65dbad3905fde4fe1981dc61,65dbe9e75fde30418cc856c2,,,,,,,,,,,1579.6969,1.1,1580.7952,1580.7953,1581.4143,left,1,0.6165,,1581.4143,1582.4154,5,0,40,6,1,partial,2,images/Ex8.jpg,left,reversed,easy,1,,,,,
,,,,,5ee683596f9b570626faa11c,001,41,male,british,bachelors,2024-02-26_01h31.39.484,CRL1e,2023.2.3,Win32,144.9275362,65dbad3905fde4fe1981dc61,65dbe9e75fde30418cc856c2,,,,,,,,,,,1582.4157,0.9,1583.3125,1583.3125,1584.1192,right,1,0.8018,,1584.1193,1585.1204,5,1,41,2,1,partial,2,images/Ex6.jpg,right,reversed,easy,1,,,,,
,,,,,5ee683596f9b570626faa11c,001,41,male,british,bachelors,2024-02-26_01h31.39.484,CRL1e,2023.2.3,Win32,144.9275362,65dbad3905fde4fe1981dc61,65dbe9e75fde30418cc856c2,,,,,,,,,,,1585.1207,0.7,1585.8158,1585.8158,1586.3374,right,1,0.5183,,1586.3374,1587.333,5,2,42,3,1,partial,2,images/Ex6.jpg,right,reversed,easy,1,,,,,
,,,,,5ee683596f9b570626faa11c,001,41,male,british,bachelors,2024-02-26_01h31.39.484,CRL1e,2023.2.3,Win32,144.9275362,65dbad3905fde4fe1981dc61,65dbe9e75fde30418cc856c2,,,,,,,,,,,1587.3333,1,1588.3329,1588.333,1589.0911,right,1,0.7529,,1589.0911,1590.0922,5,3,43,5,1,partial,2,images/Ex7.jpg,right,nonreversed,easy,1,,,,,
,,,,,5ee683596f9b570626faa11c,001,41,male,british,bachelors,2024-02-26_01h31.39.484,CRL1e,2023.2.3,Win32,144.9275362,65dbad3905fde4fe1981dc61,65dbe9e75fde30418cc856c2,,,,,,,,,,,1590.0925,0.9,1590.9893,1590.9894,1591.9142,left,1,0.9204,,1591.9143,1592.9154,5,4,44,0,1,partial,2,images/Ex5.jpg,left,nonreversed,easy,1,,,,,
,,,,,5ee683596f9b570626faa11c,001,41,male,british,bachelors,2024-02-26_01h31.39.484,CRL1e,2023.2.3,Win32,144.9275362,65dbad3905fde4fe1981dc61,65dbe9e75fde30418cc856c2,,,,,,,,,,,1592.9157,1.1,1594.0142,1594.0142,1594.779,right,1,0.7626,,1594.779,1595.7803,5,5,45,4,1,partial,2,images/Ex7.jpg,right,nonreversed,easy,1,,,,,
,,,,,5ee683596f9b570626faa11c,001,41,male,british,bachelors,2024-02-26_01h31.39.484,CRL1e,2023.2.3,Win32,144.9275362,65dbad3905fde4fe1981dc61,65dbe9e75fde30418cc856c2,,,,,,,,,,,1595.7805,1.5,1597.2823,1597.2823,1598.3393,left,1,1.0522,,1598.3394,1599.3405,5,6,46,1,1,partial,2,images/Ex5.jpg,left,nonreversed,easy,1,,,,,
,,,,,5ee683596f9b570626faa11c,001,41,male,british,bachelors,2024-02-26_01h31.39.484,CRL1e,2023.2.3,Win32,144.9275362,65dbad3905fde4fe1981dc61,65dbe9e75fde30418cc856c2,,,,,,,,,,,1599.3408,1,1600.3419,1600.3419,1601.1972,left,1,0.8532,,1601.1972,1602.1985,5,7,47,7,1,partial,2,images/Ex8.jpg,left,reversed,easy,1,,,,,
,,,,,5ee683596f9b570626faa11c,001,41,male,british,bachelors,2024-02-26_01h31.39.484,CRL1e,2023.2.3,Win32,144.9275362,65dbad3905fde4fe1981dc61,65dbe9e75fde30418cc856c2,,,,,,1602.1992,1604.6114,space,2.4031,,1604.6133,0.7,1605.3137,1605.3137,1608.1787,left,1,2.8601,,1608.1787,1609.1799,0,0,0,0,1,total,1,images/Ex1.jpg,left,training,easy,1,,,,,
,,,,,5ee683596f9b570626faa11c,001,41,male,british,bachelors,2024-02-26_01h31.39.484,CRL1e,2023.2.3,Win32,144.9275362,65dbad3905fde4fe1981dc61,65dbe9e75fde30418cc856c2,,,,,,,,,,,1609.1854,0.8,1609.9865,1609.9866,1610.8976,right,0,0.9061,,1610.8976,1611.8988,0,1,1,3,1,total,1,images/Ex2.jpg,left,training,easy,1,,,,,
,,,,,5ee683596f9b570626faa11c,001,41,male,british,bachelors,2024-02-26_01h31.39.484,CRL1e,2023.2.3,Win32,144.9275362,65dbad3905fde4fe1981dc61,65dbe9e75fde30418cc856c2,,,,,,,,,,,1611.8991,0.6,1612.4978,1612.4978,1613.4078,left,0,0.9054,,1613.4078,1614.409,0,2,2,4,1,total,1,images/Ex3.jpg,right,training,easy,1,,,,,
,,,,,5ee683596f9b570626faa11c,001,41,male,british,bachelors,2024-02-26_01h31.39.484,CRL1e,2023.2.3,Win32,144.9275362,65dbad3905fde4fe1981dc61,65dbe9e75fde30418cc856c2,,,,,,,,,,,1614.4093,0.8,1615.2087,1615.2087,1615.7929,left,0,0.5803,,1615.7929,1616.7942,0,3,3,5,1,total,1,images/Ex3.jpg,right,training,easy,1,,,,,
,,,,,5ee683596f9b570626faa11c,001,41,male,british,bachelors,2024-02-26_01h31.39.484,CRL1e,2023.2.3,Win32,144.9275362,65dbad3905fde4fe1981dc61,65dbe9e75fde30418cc856c2,,,,,,,,,,,1616.7944,0.5,1617.2948,1617.2948,1618.3656,left,0,1.0681,,1618.3656,1619.3669,0,4,4,7,1,total,1,images/Ex4.jpg,right,training,easy,1,,,,,
,,,,,5ee683596f9b570626faa11c,001,41,male,british,bachelors,2024-02-26_01h31.39.484,CRL1e,2023.2.3,Win32,144.9275362,65dbad3905fde4fe1981dc61,65dbe9e75fde30418cc856c2,,,,,,,,,,,1619.3672,0.8,1620.1666,1620.1667,1621.634,left,1,1.4622,,1621.634,1622.6352,0,5,5,1,1,total,1,images/Ex1.jpg,left,training,easy,1,,,,,
,,,,,5ee683596f9b570626faa11c,001,41,male,british,bachelors,2024-02-26_01h31.39.484,CRL1e,2023.2.3,Win32,144.9275362,65dbad3905fde4fe1981dc61,65dbe9e75fde30418cc856c2,,,,,,,,,,,1622.6355,0.9,1623.5323,1623.5323,1624.3946,right,0,0.8573,,1624.3947,1625.3957,0,6,6,2,1,total,1,images/Ex2.jpg,left,training,easy,1,,,,,
,,,,,5ee683596f9b570626faa11c,001,41,male,british,bachelors,2024-02-26_01h31.39.484,CRL1e,2023.2.3,Win32,144.9275362,65dbad3905fde4fe1981dc61,65dbe9e75fde30418cc856c2,,,,,,,,,,,1625.396,0.6,1625.9937,1625.9938,1627.7252,right,1,1.7281,,1627.7252,1628.7266,0,7,7,6,1,total,1,images/Ex4.jpg,right,training,easy,1,,,,,
,,,,,5ee683596f9b570626faa11c,001,41,male,british,bachelors,2024-02-26_01h31.39.484,CRL1e,2023.2.3,Win32,144.9275362,65dbad3905fde4fe1981dc61,65dbe9e75fde30418cc856c2,,,,,,,,,,,1628.7269,0.6,1629.3245,1629.3245,1629.9713,right,1,0.6455,,1629.9713,1630.9726,1,0,8,7,1,total,1,images/Ex4.jpg,right,training,easy,1,,,,,
,,,,,5ee683596f9b570626faa11c,001,41,male,british,bachelors,2024-02-26_01h31.39.484,CRL1e,2023.2.3,Win32,144.9275362,65dbad3905fde4fe1981dc61,65dbe9e75fde30418cc856c2,,,,,,,,,,,1630.9728,0.9,1631.8694,1631.8695,1632.8779,left,1,1.0045,,1632.8779,1633.8793,1,1,9,3,1,total,1,images/Ex2.jpg,left,training,easy,1,,,,,
,,,,,5ee683596f9b570626faa11c,001,41,male,british,bachelors,2024-02-26_01h31.39.484,CRL1e,2023.2.3,Win32,144.9275362,65dbad3905fde4fe1981dc61,65dbe9e75fde30418cc856c2,,,,,,,,,,,1633.8796,1.2,1635.0751,1635.0752,1636.3553,left,1,1.2769,,1636.3553,1637.3559,1,2,10,1,1,total,1,images/Ex1.jpg,left,training,easy,1,,,,,
,,,,,5ee683596f9b570626faa11c,001,41,male,british,bachelors,2024-02-26_01h31.39.484,CRL1e,2023.2.3,Win32,144.9275362,65dbad3905fde4fe1981dc61,65dbe9e75fde30418cc856c2,,,,,,,,,,,1637.3562,0.7,1638.0513,1638.0513,1638.8927,right,0,0.8388,,1638.8927,1639.8941,1,3,11,2,1,total,1,images/Ex2.jpg,left,training,easy,1,,,,,
,,,,,5ee683596f9b570626faa11c,001,41,male,british,bachelors,2024-02-26_01h31.39.484,CRL1e,2023.2.3,Win32,144.9275362,65dbad3905fde4fe1981dc61,65dbe9e75fde30418cc856c2,,,,,,,,,,,1639.8943,1.3,1641.1943,1641.1944,1643.1762,left,0,1.9787,,1643.1763,1644.1775,1,4,12,4,1,total,1,images/Ex3.jpg,right,training,easy,1,,,,,
,,,,,5ee683596f9b570626faa11c,001,41,male,british,bachelors,2024-02-26_01h31.39.484,CRL1e,2023.2.3,Win32,144.9275362,65dbad3905fde4fe1981dc61,65dbe9e75fde30418cc856c2,,,,,,,,,,,1644.183,1.2,1645.3805,1645.3805,1646.0897,left,0,0.7085,,1646.0898,1647.0911,1,5,13,5,1,total,1,images/Ex3.jpg,right,training,easy,1,,,,,
,,,,,5ee683596f9b570626faa11c,001,41,male,british,bachelors,2024-02-26_01h31.39.484,CRL1e,2023.2.3,Win32,144.9275362,65dbad3905fde4fe1981dc61,65dbe9e75fde30418cc856c2,,,,,,,,,,,1647.0914,1.3,1648.3915,1648.3915,1649.6014,left,0,1.2075,,1649.6014,1650.6026,1,6,14,6,1,total,1,images/Ex4.jpg,right,training,easy,1,,,,,
,,,,,5ee683596f9b570626faa11c,001,41,male,british,bachelors,2024-02-26_01h31.39.484,CRL1e,2023.2.3,Win32,144.9275362,65dbad3905fde4fe1981dc61,65dbe9e75fde30418cc856c2,,,,,,,,,,,1650.603,0.6,1651.2008,1651.2009,1652.2386,left,1,1.0371,,1652.2387,1653.2381,1,7,15,0,1,total,1,images/Ex1.jpg,left,training,easy,1,,,,,
,,,,,5ee683596f9b570626faa11c,001,41,male,british,bachelors,2024-02-26_01h31.39.484,CRL1e,2023.2.3,Win32,144.9275362,65dbad3905fde4fe1981dc61,65dbe9e75fde30418cc856c2,,,,,,,,,,,1653.2383,0.9,1654.1375,1654.1376,1655.3241,left,1,1.1844,,1655.3242,1656.3254,2,0,16,3,1,total,1,images/Ex2.jpg,left,training,easy,1,,,,,
,,,,,5ee683596f9b570626faa11c,001,41,male,british,bachelors,2024-02-26_01h31.39.484,CRL1e,2023.2.3,Win32,144.9275362,65dbad3905fde4fe1981dc61,65dbe9e75fde30418cc856c2,,,,,,,,,,,1656.3258,1.4,1657.7231,1657.7231,1658.2726,left,1,0.5451,,1658.2726,1659.2737,2,1,17,2,1,total,1,images/Ex2.jpg,left,training,easy,1,,,,,
,,,,,5ee683596f9b570626faa11c,001,41,male,british,bachelors,2024-02-26_01h31.39.484,CRL1e,2023.2.3,Win32,144.9275362,65dbad3905fde4fe1981dc61,65dbe9e75fde30418cc856c2,,,,,,,,,,,1659.274,1.1,1660.3724,1660.3725,1661.0541,left,1,0.6763,,1661.0542,1662.0552,2,2,18,1,1,total,1,images/Ex1.jpg,left,training,easy,1,,,,,
,,,,,5ee683596f9b570626faa11c,001,41,male,british,bachelors,2024-02-26_01h31.39.484,CRL1e,2023.2.3,Win32,144.9275362,65dbad3905fde4fe1981dc61,65dbe9e75fde30418cc856c2,,,,,,,,,,,1662.0555,1.1,1663.1538,1663.1539,1663.6546,left,1,0.4983,,1663.6546,1664.6559,2,3,19,0,1,total,1,images/Ex1.jpg,left,training,easy,1,,,,,
,,,,,5ee683596f9b570626faa11c,001,41,male,british,bachelors,2024-02-26_01h31.39.484,CRL1e,2023.2.3,Win32,144.9275362,65dbad3905fde4fe1981dc61,65dbe9e75fde30418cc856c2,,,,,,,,,,,1664.6562,1.2,1665.852,1665.852,1666.4986,right,1,0.6447,,1666.4986,1667.4999,2,4,20,7,1,total,1,images/Ex4.jpg,right,training,easy,1,,,,,
,,,,,5ee683596f9b570626faa11c,001,41,male,british,bachelors,2024-02-26_01h31.39.484,CRL1e,2023.2.3,Win32,144.9275362,65dbad3905fde4fe1981dc61,65dbe9e75fde30418cc856c2,,,,,,,,,,,1667.5002,0.9,1668.3969,1668.3969,1669.1549,right,1,0.7562,,1669.1549,1670.1561,2,5,21,6,1,total,1,images/Ex4.jpg,right,training,easy,1,,,,,
,,,,,5ee683596f9b570626faa11c,001,41,male,british,bachelors,2024-02-26_01h31.39.484,CRL1e,2023.2.3,Win32,144.9275362,65dbad3905fde4fe1981dc61,65dbe9e75fde30418cc856c2,,,,,,,,,,,1670.1564,0.5,1670.6569,1670.6569,1671.4009,right,1,0.7423,,1671.4009,1672.4021,2,6,22,4,1,total,1,images/Ex3.jpg,right,training,easy,1,,,,,
,,,,,5ee683596f9b570626faa11c,001,41,male,british,bachelors,2024-02-26_01h31.39.484,CRL1e,2023.2.3,Win32,144.9275362,65dbad3905fde4fe1981dc61,65dbe9e75fde30418cc856c2,,,,,,,,,,,1672.4025,0.6,1673.0002,1673.0003,1673.6261,right,1,0.6201,,1673.6261,1674.6273,2,7,23,5,1,total,1,images/Ex3.jpg,right,training,easy,1,,,,,
,,,,,5ee683596f9b570626faa11c,001,41,male,british,bachelors,2024-02-26_01h31.39.484,CRL1e,2023.2.3,Win32,144.9275362,65dbad3905fde4fe1981dc61,65dbe9e75fde30418cc856c2,,,,,,,,,,,1674.6276,0.6,1675.2253,1675.2254,1675.8444,left,1,0.6133,,1675.8445,1676.8456,3,0,24,2,1,total,1,images/Ex2.jpg,left,training,easy,1,,,,,
,,,,,5ee683596f9b570626faa11c,001,41,male,british,bachelors,2024-02-26_01h31.39.484,CRL1e,2023.2.3,Win32,144.9275362,65dbad3905fde4fe1981dc61,65dbe9e75fde30418cc856c2,,,,,,,,,,,1676.8458,0.5,1677.3462,1677.3463,1678.299,right,1,0.9479,,1678.299,1679.3002,3,1,25,4,1,total,1,images/Ex3.jpg,right,training,easy,1,,,,,
,,,,,5ee683596f9b570626faa11c,001,41,male,british,bachelors,2024-02-26_01h31.39.484,CRL1e,2023.2.3,Win32,144.9275362,65dbad3905fde4fe1981dc61,65dbe9e75fde30418cc856c2,,,,,,,,,,,1679.3004,0.8,1680.0998,1680.0998,1681.1013,left,1,0.9956,,1681.1013,1682.1025,3,2,26,3,1,total,1,images/Ex2.jpg,left,training,easy,1,,,,,
,,,,,5ee683596f9b570626faa11c,001,41,male,british,bachelors,2024-02-26_01h31.39.484,CRL1e,2023.2.3,Win32,144.9275362,65dbad3905fde4fe1981dc61,65dbe9e75fde30418cc856c2,,,,,,,,,,,1682.1028,1.1,1683.2012,1683.2012,1683.8549,left,1,0.6481,,1683.8549,1684.8561,3,3,27,0,1,total,1,images/Ex1.jpg,left,training,easy,1,,,,,
,,,,,5ee683596f9b570626faa11c,001,41,male,british,bachelors,2024-02-26_01h31.39.484,CRL1e,2023.2.3,Win32,144.9275362,65dbad3905fde4fe1981dc61,65dbe9e75fde30418cc856c2,,,,,,,,,,,1684.8564,0.5,1685.3568,1685.3569,1686.4486,right,1,1.0873,,1686.4486,1687.4499,3,4,28,7,1,total,1,images/Ex4.jpg,right,training,easy,1,,,,,
,,,,,5ee683596f9b570626faa11c,001,41,male,british,bachelors,2024-02-26_01h31.39.484,CRL1e,2023.2.3,Win32,144.9275362,65dbad3905fde4fe1981dc61,65dbe9e75fde30418cc856c2,,,,,,,,,,,1687.4502,1.3,1688.7501,1688.7502,1689.4178,left,0,0.6649,,1689.4178,1690.4192,3,5,29,5,1,total,1,images/Ex3.jpg,right,training,easy,1,,,,,
,,,,,5ee683596f9b570626faa11c,001,41,male,british,bachelors,2024-02-26_01h31.39.484,CRL1e,2023.2.3,Win32,144.9275362,65dbad3905fde4fe1981dc61,65dbe9e75fde30418cc856c2,,,,,,,,,,,1690.4195,1,1691.4231,1691.4232,1693.9515,right,1,2.5262,,1693.9516,1694.9527,3,6,30,6,1,total,1,images/Ex4.jpg,right,training,easy,1,,,,,
,,,,,5ee683596f9b570626faa11c,001,41,male,british,bachelors,2024-02-26_01h31.39.484,CRL1e,2023.2.3,Win32,144.9275362,65dbad3905fde4fe1981dc61,65dbe9e75fde30418cc856c2,,,,,,,,,,,1694.9583,1.4,1696.3575,1696.3575,1697.0389,left,1,0.6797,,1697.039,1698.0402,3,7,31,1,1,total,1,images/Ex1.jpg,left,training,easy,1,,,,,
,,,,,5ee683596f9b570626faa11c,001,41,male,british,bachelors,2024-02-26_01h31.39.484,CRL1e,2023.2.3,Win32,144.9275362,65dbad3905fde4fe1981dc61,65dbe9e75fde30418cc856c2,,,,,,,,,,,1698.0406,0.6,1698.6383,1698.6383,1699.3283,left,1,0.6894,,1699.3284,1700.3237,4,0,32,3,1,total,1,images/Ex2.jpg,left,training,easy,1,,,,,
,,,,,5ee683596f9b570626faa11c,001,41,male,british,bachelors,2024-02-26_01h31.39.484,CRL1e,2023.2.3,Win32,144.9275362,65dbad3905fde4fe1981dc61,65dbe9e75fde30418cc856c2,,,,,,,,,,,1700.324,1.4,1701.7256,1701.7256,1702.581,right,1,0.8525,,1702.581,1703.5822,4,1,33,5,1,total,1,images/Ex3.jpg,right,training,easy,1,,,,,
,,,,,5ee683596f9b570626faa11c,001,41,male,british,bachelors,2024-02-26_01h31.39.484,CRL1e,2023.2.3,Win32,144.9275362,65dbad3905fde4fe1981dc61,65dbe9e75fde30418cc856c2,,,,,,,,,,,1703.5825,0.8,1704.3819,1704.382,1705.0216,right,1,0.6368,,1705.0216,1706.0229,4,2,34,4,1,total,1,images/Ex3.jpg,right,training,easy,1,,,,,
,,,,,5ee683596f9b570626faa11c,001,41,male,british,bachelors,2024-02-26_01h31.39.484,CRL1e,2023.2.3,Win32,144.9275362,65dbad3905fde4fe1981dc61,65dbe9e75fde30418cc856c2,,,,,,,,,,,1706.0233,1.2,1707.2189,1707.219,1708.1091,right,1,0.8846,,1708.1092,1709.1104,4,3,35,6,1,total,1,images/Ex4.jpg,right,training,easy,1,,,,,
,,,,,5ee683596f9b570626faa11c,001,41,male,british,bachelors,2024-02-26_01h31.39.484,CRL1e,2023.2.3,Win32,144.9275362,65dbad3905fde4fe1981dc61,65dbe9e75fde30418cc856c2,,,,,,,,,,,1709.1106,0.5,1709.6065,1709.6066,1710.2717,right,1,0.6607,,1710.2717,1711.2729,4,4,36,7,1,total,1,images/Ex4.jpg,right,training,easy,1,,,,,
,,,,,5ee683596f9b570626faa11c,001,41,male,british,bachelors,2024-02-26_01h31.39.484,CRL1e,2023.2.3,Win32,144.9275362,65dbad3905fde4fe1981dc61,65dbe9e75fde30418cc856c2,,,,,,,,,,,1711.2732,1.4,1712.6707,1712.6707,1713.2408,left,1,0.5678,,1713.2408,1714.2421,4,5,37,1,1,total,1,images/Ex1.jpg,left,training,easy,1,,,,,
,,,,,5ee683596f9b570626faa11c,001,41,male,british,bachelors,2024-02-26_01h31.39.484,CRL1e,2023.2.3,Win32,144.9275362,65dbad3905fde4fe1981dc61,65dbe9e75fde30418cc856c2,,,,,,,,,,,1714.2424,0.5,1714.7427,1714.7428,1715.2522,left,1,0.5088,,1715.2522,1716.2517,4,6,38,0,1,total,1,images/Ex1.jpg,left,training,easy,1,,,,,
,,,,,5ee683596f9b570626faa11c,001,41,male,british,bachelors,2024-02-26_01h31.39.484,CRL1e,2023.2.3,Win32,144.9275362,65dbad3905fde4fe1981dc61,65dbe9e75fde30418cc856c2,,,,,,,,,,,1716.252,0.9,1717.1487,1717.1487,1717.5659,left,1,0.4136,,1717.5659,1718.5673,4,7,39,2,1,total,1,images/Ex2.jpg,left,training,easy,1,,,,,
,,,,,5ee683596f9b570626faa11c,001,41,male,british,bachelors,2024-02-26_01h31.39.484,CRL1e,2023.2.3,Win32,144.9275362,65dbad3905fde4fe1981dc61,65dbe9e75fde30418cc856c2,,,,,,,,,,,1718.5675,0.9,1719.4643,1719.4643,1719.9928,left,1,0.5261,,1719.9928,1720.9941,5,0,40,0,1,total,1,images/Ex1.jpg,left,training,easy,1,,,,,
,,,,,5ee683596f9b570626faa11c,001,41,male,british,bachelors,2024-02-26_01h31.39.484,CRL1e,2023.2.3,Win32,144.9275362,65dbad3905fde4fe1981dc61,65dbe9e75fde30418cc856c2,,,,,,,,,,,1720.9944,1,1721.9953,1721.9954,1722.4127,left,1,0.4127,,1722.4128,1723.4139,5,1,41,1,1,total,1,images/Ex1.jpg,left,training,easy,1,,,,,
,,,,,5ee683596f9b570626faa11c,001,41,male,british,bachelors,2024-02-26_01h31.39.484,CRL1e,2023.2.3,Win32,144.9275362,65dbad3905fde4fe1981dc61,65dbe9e75fde30418cc856c2,,,,,,,,,,,1723.4142,1.1,1724.5126,1724.5126,1725.1037,right,1,0.5889,,1725.1037,1726.1066,5,2,42,7,1,total,1,images/Ex4.jpg,right,training,easy,1,,,,,
,,,,,5ee683596f9b570626faa11c,001,41,male,british,bachelors,2024-02-26_01h31.39.484,CRL1e,2023.2.3,Win32,144.9275362,65dbad3905fde4fe1981dc61,65dbe9e75fde30418cc856c2,,,,,,,,,,,1726.107,1.2,1727.308,1727.308,1727.913,left,1,0.6036,,1727.913,1728.9142,5,3,43,3,1,total,1,images/Ex2.jpg,left,training,easy,1,,,,,
,,,,,5ee683596f9b570626faa11c,001,41,male,british,bachelors,2024-02-26_01h31.39.484,CRL1e,2023.2.3,Win32,144.9275362,65dbad3905fde4fe1981dc61,65dbe9e75fde30418cc856c2,,,,,,,,,,,1728.9145,0.6,1729.5123,1729.5123,1730.3258,right,1,0.8101,,1730.3259,1731.3272,5,4,44,6,1,total,1,images/Ex4.jpg,right,training,easy,1,,,,,
,,,,,5ee683596f9b570626faa11c,001,41,male,british,bachelors,2024-02-26_01h31.39.484,CRL1e,2023.2.3,Win32,144.9275362,65dbad3905fde4fe1981dc61,65dbe9e75fde30418cc856c2,,,,,,,,,,,1731.3274,1.3,1732.6275,1732.6275,1733.4342,right,1,0.8029,,1733.4342,1734.4354,5,5,45,5,1,total,1,images/Ex3.jpg,right,training,easy,1,,,,,
,,,,,5ee683596f9b570626faa11c,001,41,male,british,bachelors,2024-02-26_01h31.39.484,CRL1e,2023.2.3,Win32,144.9275362,65dbad3905fde4fe1981dc61,65dbe9e75fde30418cc856c2,,,,,,,,,,,1734.4357,0.8,1735.235,1735.2351,1735.7915,left,1,0.5515,,1735.7915,1736.7927,5,6,46,2,1,total,1,images/Ex2.jpg,left,training,easy,1,,,,,
,,,,,5ee683596f9b570626faa11c,001,41,male,british,bachelors,2024-02-26_01h31.39.484,CRL1e,2023.2.3,Win32,144.9275362,65dbad3905fde4fe1981dc61,65dbe9e75fde30418cc856c2,,,,,,,,,,,1736.793,1.2,1737.9887,1737.9887,1738.7052,right,1,0.7158,,1738.7053,1739.7064,5,7,47,4,1,total,1,images/Ex3.jpg,right,training,easy,1,,,,,
,,,,,5ee683596f9b570626faa11c,001,41,male,british,bachelors,2024-02-26_01h31.39.484,CRL1e,2023.2.3,Win32,144.9275362,65dbad3905fde4fe1981dc61,65dbe9e75fde30418cc856c2,,,,,,,,,,,1739.7081,1,1740.7076,1740.7076,1741.3542,left,0,0.6456,,1741.3543,1742.3556,0,0,0,2,1,total,2,images/Ex2.jpg,right,reversed,easy,1,,,,,
,,,,,5ee683596f9b570626faa11c,001,41,male,british,bachelors,2024-02-26_01h31.39.484,CRL1e,2023.2.3,Win32,144.9275362,65dbad3905fde4fe1981dc61,65dbe9e75fde30418cc856c2,,,,,,,,,,,1742.3559,1.2,1743.5517,1743.5517,1745.8602,left,0,2.3078,,1745.8602,1746.864,0,1,1,3,1,total,2,images/Ex2.jpg,right,reversed,easy,1,,,,,
,,,,,5ee683596f9b570626faa11c,001,41,male,british,bachelors,2024-02-26_01h31.39.484,CRL1e,2023.2.3,Win32,144.9275362,65dbad3905fde4fe1981dc61,65dbe9e75fde30418cc856c2,,,,,,,,,,,1746.8691,1.5,1748.3705,1748.3705,1749.65,left,1,1.2751,,1749.6501,1750.6513,0,2,2,4,1,total,2,images/Ex3.jpg,left,reversed,easy,1,,,,,
,,,,,5ee683596f9b570626faa11c,001,41,male,british,bachelors,2024-02-26_01h31.39.484,CRL1e,2023.2.3,Win32,144.9275362,65dbad3905fde4fe1981dc61,65dbe9e75fde30418cc856c2,,,,,,,,,,,1750.6515,1.4,1752.049,1752.049,1753.9889,right,1,1.9374,,1753.989,1754.9928,0,3,3,1,1,total,2,images/Ex1.jpg,right,reversed,easy,1,,,,,
,,,,,5ee683596f9b570626faa11c,001,41,male,british,bachelors,2024-02-26_01h31.39.484,CRL1e,2023.2.3,Win32,144.9275362,65dbad3905fde4fe1981dc61,65dbe9e75fde30418cc856c2,,,,,,,,,,,1754.9931,1.1,1756.0891,1756.0891,1756.9721,left,1,0.8813,,1756.9721,1757.968,0,4,4,7,1,total,2,images/Ex4.jpg,left,reversed,easy,1,,,,,
,,,,,5ee683596f9b570626faa11c,001,41,male,british,bachelors,2024-02-26_01h31.39.484,CRL1e,2023.2.3,Win32,144.9275362,65dbad3905fde4fe1981dc61,65dbe9e75fde30418cc856c2,,,,,,,,,,,1757.9684,0.7,1758.6687,1758.6688,1759.5033,right,1,0.8294,,1759.5033,1760.5046,0,5,5,0,1,total,2,images/Ex1.jpg,right,reversed,easy,1,,,,,
,,,,,5ee683596f9b570626faa11c,001,41,male,british,bachelors,2024-02-26_01h31.39.484,CRL1e,2023.2.3,Win32,144.9275362,65dbad3905fde4fe1981dc61,65dbe9e75fde30418cc856c2,,,,,,,,,,,1760.5048,0.8,1761.3042,1761.3042,1762.1177,left,1,0.8125,,1762.1178,1763.1202,0,6,6,5,1,total,2,images/Ex3.jpg,left,reversed,easy,1,,,,,
,,,,,5ee683596f9b570626faa11c,001,41,male,british,bachelors,2024-02-26_01h31.39.484,CRL1e,2023.2.3,Win32,144.9275362,65dbad3905fde4fe1981dc61,65dbe9e75fde30418cc856c2,,,,,,,,,,,1763.1206,1.2,1764.3158,1764.3158,1765.0871,left,1,0.7656,,1765.0871,1766.0883,0,7,7,6,1,total,2,images/Ex4.jpg,left,reversed,easy,1,,,,,
,,,,,5ee683596f9b570626faa11c,001,41,male,british,bachelors,2024-02-26_01h31.39.484,CRL1e,2023.2.3,Win32,144.9275362,65dbad3905fde4fe1981dc61,65dbe9e75fde30418cc856c2,,,,,,,,,,,1766.0886,1.4,1767.4862,1767.4862,1768.0978,right,1,0.6103,,1768.0978,1769.0992,1,0,8,2,1,total,2,images/Ex2.jpg,right,reversed,easy,1,,,,,
,,,,,5ee683596f9b570626faa11c,001,41,male,british,bachelors,2024-02-26_01h31.39.484,CRL1e,2023.2.3,Win32,144.9275362,65dbad3905fde4fe1981dc61,65dbe9e75fde30418cc856c2,,,,,,,,,,,1769.0995,0.6,1769.6973,1769.6973,1770.5279,left,1,0.8298,,1770.5279,1771.5259,1,1,9,6,1,total,2,images/Ex4.jpg,left,reversed,easy,1,,,,,
,,,,,5ee683596f9b570626faa11c,001,41,male,british,bachelors,2024-02-26_01h31.39.484,CRL1e,2023.2.3,Win32,144.9275362,65dbad3905fde4fe1981dc61,65dbe9e75fde30418cc856c2,,,,,,,,,,,1771.5263,0.6,1772.1241,1772.1241,1772.7081,left,1,0.5819,,1772.7081,1773.7095,1,2,10,7,1,total,2,images/Ex4.jpg,left,reversed,easy,1,,,,,
,,,,,5ee683596f9b570626faa11c,001,41,male,british,bachelors,2024-02-26_01h31.39.484,CRL1e,2023.2.3,Win32,144.9275362,65dbad3905fde4fe1981dc61,65dbe9e75fde30418cc856c2,,,,,,,,,,,1773.7098,0.5,1774.2119,1774.212,1775.2254,right,1,1.0095,,1775.2255,1776.2267,1,3,11,0,1,total,2,images/Ex1.jpg,right,reversed,easy,1,,,,,
,,,,,5ee683596f9b570626faa11c,001,41,male,british,bachelors,2024-02-26_01h31.39.484,CRL1e,2023.2.3,Win32,144.9275362,65dbad3905fde4fe1981dc61,65dbe9e75fde30418cc856c2,,,,,,,,,,,1776.227,0.9,1777.1238,1777.1238,1777.5897,right,1,0.4607,,1777.5898,1778.5909,1,4,12,1,1,total,2,images/Ex1.jpg,right,reversed,easy,1,,,,,
,,,,,5ee683596f9b570626faa11c,001,41,male,british,bachelors,2024-02-26_01h31.39.484,CRL1e,2023.2.3,Win32,144.9275362,65dbad3905fde4fe1981dc61,65dbe9e75fde30418cc856c2,,,,,,,,,,,1778.5912,1.2,1779.787,1779.787,1780.4059,right,1,0.6137,,1780.4059,1781.4071,1,5,13,3,1,total,2,images/Ex2.jpg,right,reversed,easy,1,,,,,
,,,,,5ee683596f9b570626faa11c,001,41,male,british,bachelors,2024-02-26_01h31.39.484,CRL1e,2023.2.3,Win32,144.9275362,65dbad3905fde4fe1981dc61,65dbe9e75fde30418cc856c2,,,,,,,,,,,1781.4074,1,1782.404,1782.404,1782.9787,left,1,0.5708,,1782.9787,1783.9755,1,6,14,5,1,total,2,images/Ex3.jpg,left,reversed,easy,1,,,,,
,,,,,5ee683596f9b570626faa11c,001,41,male,british,bachelors,2024-02-26_01h31.39.484,CRL1e,2023.2.3,Win32,144.9275362,65dbad3905fde4fe1981dc61,65dbe9e75fde30418cc856c2,,,,,,,,,,,1783.9758,1.2,1785.176,1785.176,1785.8018,left,1,0.6246,,1785.8018,1786.8043,1,7,15,4,1,total,2,images/Ex3.jpg,left,reversed,easy,1,,,,,
,,,,,5ee683596f9b570626faa11c,001,41,male,british,bachelors,2024-02-26_01h31.39.484,CRL1e,2023.2.3,Win32,144.9275362,65dbad3905fde4fe1981dc61,65dbe9e75fde30418cc856c2,,,,,,,,,,,1786.8046,0.6,1787.4011,1787.4012,1788.1869,left,1,0.7825,,1788.1869,1789.1908,2,0,16,7,1,total,2,images/Ex4.jpg,left,reversed,easy,1,,,,,
,,,,,5ee683596f9b570626faa11c,001,41,male,british,bachelors,2024-02-26_01h31.39.484,CRL1e,2023.2.3,Win32,144.9275362,65dbad3905fde4fe1981dc61,65dbe9e75fde30418cc856c2,,,,,,,,,,,1789.1911,1,1790.1918,1790.1919,1790.732,right,1,0.5359,,1790.732,1791.7333,2,1,17,2,1,total,2,images/Ex2.jpg,right,reversed,easy,1,,,,,
,,,,,5ee683596f9b570626faa11c,001,41,male,british,bachelors,2024-02-26_01h31.39.484,CRL1e,2023.2.3,Win32,144.9275362,65dbad3905fde4fe1981dc61,65dbe9e75fde30418cc856c2,,,,,,,,,,,1791.7335,1.3,1793.0336,1793.0336,1793.576,left,1,0.5382,,1793.576,1794.5773,2,2,18,4,1,total,2,images/Ex3.jpg,left,reversed,easy,1,,,,,
,,,,,5ee683596f9b570626faa11c,001,41,male,british,bachelors,2024-02-26_01h31.39.484,CRL1e,2023.2.3,Win32,144.9275362,65dbad3905fde4fe1981dc61,65dbe9e75fde30418cc856c2,,,,,,,,,,,1794.5775,0.5,1795.0778,1795.0779,1795.5507,left,0,0.4718,,1795.5507,1796.5521,2,3,19,0,1,total,2,images/Ex1.jpg,right,reversed,easy,1,,,,,
,,,,,5ee683596f9b570626faa11c,001,41,male,british,bachelors,2024-02-26_01h31.39.484,CRL1e,2023.2.3,Win32,144.9275362,65dbad3905fde4fe1981dc61,65dbe9e75fde30418cc856c2,,,,,,,,,,,1796.5524,1.4,1797.9497,1797.9498,1798.6731,left,1,0.7175,,1798.6731,1799.6743,2,4,20,5,1,total,2,images/Ex3.jpg,left,reversed,easy,1,,,,,
,,,,,5ee683596f9b570626faa11c,001,41,male,british,bachelors,2024-02-26_01h31.39.484,CRL1e,2023.2.3,Win32,144.9275362,65dbad3905fde4fe1981dc61,65dbe9e75fde30418cc856c2,,,,,,,,,,,1799.6746,0.6,1800.2723,1800.2724,1800.8286,right,1,0.5517,,1800.8286,1801.8317,2,5,21,1,1,total,2,images/Ex1.jpg,right,reversed,easy,1,,,,,
,,,,,5ee683596f9b570626faa11c,001,41,male,british,bachelors,2024-02-26_01h31.39.484,CRL1e,2023.2.3,Win32,144.9275362,65dbad3905fde4fe1981dc61,65dbe9e75fde30418cc856c2,,,,,,,,,,,1801.832,0.7,1802.5339,1802.534,1803.1373,right,1,0.5986,,1803.1373,1804.1384,2,6,22,3,1,total,2,images/Ex2.jpg,right,reversed,easy,1,,,,,
,,,,,5ee683596f9b570626faa11c,001,41,male,british,bachelors,2024-02-26_01h31.39.484,CRL1e,2023.2.3,Win32,144.9275362,65dbad3905fde4fe1981dc61,65dbe9e75fde30418cc856c2,,,,,,,,,,,1804.1387,0.7,1804.8339,1804.8339,1805.411,left,1,0.573,,1805.4111,1806.4125,2,7,23,6,1,total,2,images/Ex4.jpg,left,reversed,easy,1,,,,,
,,,,,5ee683596f9b570626faa11c,001,41,male,british,bachelors,2024-02-26_01h31.39.484,CRL1e,2023.2.3,Win32,144.9275362,65dbad3905fde4fe1981dc61,65dbe9e75fde30418cc856c2,,,,,,,,,,,1806.4127,0.7,1807.1077,1807.1077,1807.8749,left,1,0.7665,,1807.875,1808.8739,3,0,24,4,1,total,2,images/Ex3.jpg,left,reversed,easy,1,,,,,
,,,,,5ee683596f9b570626faa11c,001,41,male,british,bachelors,2024-02-26_01h31.39.484,CRL1e,2023.2.3,Win32,144.9275362,65dbad3905fde4fe1981dc61,65dbe9e75fde30418cc856c2,,,,,,,,,,,1808.8742,1.3,1810.1742,1810.1742,1811.1826,left,1,1.0065,,1811.1826,1812.1839,3,1,25,7,1,total,2,images/Ex4.jpg,left,reversed,easy,1,,,,,
,,,,,5ee683596f9b570626faa11c,001,41,male,british,bachelors,2024-02-26_01h31.39.484,CRL1e,2023.2.3,Win32,144.9275362,65dbad3905fde4fe1981dc61,65dbe9e75fde30418cc856c2,,,,,,,,,,,1812.1842,1,1813.1852,1813.1853,1813.7901,right,1,0.6025,,1813.7902,1814.7927,3,2,26,0,1,total,2,images/Ex1.jpg,right,reversed,easy,1,,,,,
,,,,,5ee683596f9b570626faa11c,001,41,male,british,bachelors,2024-02-26_01h31.39.484,CRL1e,2023.2.3,Win32,144.9275362,65dbad3905fde4fe1981dc61,65dbe9e75fde30418cc856c2,,,,,,,,,,,1814.7931,0.8,1815.5911,1815.5911,1816.4743,right,1,0.879,,1816.4743,1817.4754,3,3,27,2,1,total,2,images/Ex2.jpg,right,reversed,easy,1,,,,,
,,,,,5ee683596f9b570626faa11c,001,41,male,british,bachelors,2024-02-26_01h31.39.484,CRL1e,2023.2.3,Win32,144.9275362,65dbad3905fde4fe1981dc61,65dbe9e75fde30418cc856c2,,,,,,,,,,,1817.4757,0.6,1818.0736,1818.0736,1818.6297,left,1,0.5542,,1818.6298,1819.6311,3,4,28,6,1,total,2,images/Ex4.jpg,left,reversed,easy,1,,,,,
,,,,,5ee683596f9b570626faa11c,001,41,male,british,bachelors,2024-02-26_01h31.39.484,CRL1e,2023.2.3,Win32,144.9275362,65dbad3905fde4fe1981dc61,65dbe9e75fde30418cc856c2,,,,,,,,,,,1819.6314,0.9,1820.5282,1820.5282,1821.1682,right,1,0.6356,,1821.1682,1822.1692,3,5,29,1,1,total,2,images/Ex1.jpg,right,reversed,easy,1,,,,,
,,,,,5ee683596f9b570626faa11c,001,41,male,british,bachelors,2024-02-26_01h31.39.484,CRL1e,2023.2.3,Win32,144.9275362,65dbad3905fde4fe1981dc61,65dbe9e75fde30418cc856c2,,,,,,,,,,,1822.1694,1.5,1823.6668,1823.6668,1824.3597,right,1,0.689,,1824.3597,1825.3553,3,6,30,3,1,total,2,images/Ex2.jpg,right,reversed,easy,1,,,,,
,,,,,5ee683596f9b570626faa11c,001,41,male,british,bachelors,2024-02-26_01h31.39.484,CRL1e,2023.2.3,Win32,144.9275362,65dbad3905fde4fe1981dc61,65dbe9e75fde30418cc856c2,,,,,,,,,,,1825.3557,1.4,1826.7517,1826.7517,1827.294,left,1,0.5413,,1827.294,1828.2956,3,7,31,5,1,total,2,images/Ex3.jpg,left,reversed,easy,1,,,,,
,,,,,5ee683596f9b570626faa11c,001,41,male,british,bachelors,2024-02-26_01h31.39.484,CRL1e,2023.2.3,Win32,144.9275362,65dbad3905fde4fe1981dc61,65dbe9e75fde30418cc856c2,,,,,,,,,,,1828.2959,1.2,1829.4914,1829.4914,1830.1798,left,1,0.6853,,1830.1799,1831.1811,4,0,32,7,1,total,2,images/Ex4.jpg,left,reversed,easy,1,,,,,
,,,,,5ee683596f9b570626faa11c,001,41,male,british,bachelors,2024-02-26_01h31.39.484,CRL1e,2023.2.3,Win32,144.9275362,65dbad3905fde4fe1981dc61,65dbe9e75fde30418cc856c2,,,,,,,,,,,1831.1813,0.5,1831.6818,1831.6818,1832.2102,left,1,0.5271,,1832.2103,1833.2115,4,1,33,6,1,total,2,images/Ex4.jpg,left,reversed,easy,1,,,,,
,,,,,5ee683596f9b570626faa11c,001,41,male,british,bachelors,2024-02-26_01h31.39.484,CRL1e,2023.2.3,Win32,144.9275362,65dbad3905fde4fe1981dc61,65dbe9e75fde30418cc856c2,,,,,,,,,,,1833.2118,1.3,1834.5119,1834.5119,1835.0961,right,1,0.5798,,1835.0961,1836.0973,4,2,34,2,1,total,2,images/Ex2.jpg,right,reversed,easy,1,,,,,
,,,,,5ee683596f9b570626faa11c,001,41,male,british,bachelors,2024-02-26_01h31.39.484,CRL1e,2023.2.3,Win32,144.9275362,65dbad3905fde4fe1981dc61,65dbe9e75fde30418cc856c2,,,,,,,,,,,1836.0976,0.8,1836.897,1836.8971,1837.4533,left,1,0.551,,1837.4534,1838.4547,4,3,35,4,1,total,2,images/Ex3.jpg,left,reversed,easy,1,,,,,
,,,,,5ee683596f9b570626faa11c,001,41,male,british,bachelors,2024-02-26_01h31.39.484,CRL1e,2023.2.3,Win32,144.9275362,65dbad3905fde4fe1981dc61,65dbe9e75fde30418cc856c2,,,,,,,,,,,1838.4549,0.8,1839.2542,1839.2542,1839.8523,right,1,0.5957,,1839.8523,1840.8535,4,4,36,0,1,total,2,images/Ex1.jpg,right,reversed,easy,1,,,,,
,,,,,5ee683596f9b570626faa11c,001,41,male,british,bachelors,2024-02-26_01h31.39.484,CRL1e,2023.2.3,Win32,144.9275362,65dbad3905fde4fe1981dc61,65dbe9e75fde30418cc856c2,,,,,,,,,,,1840.8539,0.7,1841.549,1841.549,1842.2931,right,1,0.7408,,1842.2932,1843.2943,4,5,37,3,1,total,2,images/Ex2.jpg,right,reversed,easy,1,,,,,
,,,,,5ee683596f9b570626faa11c,001,41,male,british,bachelors,2024-02-26_01h31.39.484,CRL1e,2023.2.3,Win32,144.9275362,65dbad3905fde4fe1981dc61,65dbe9e75fde30418cc856c2,,,,,,,,,,,1843.2946,1.4,1844.6921,1844.6921,1845.3526,left,1,0.6558,,1845.3527,1846.3538,4,6,38,5,1,total,2,images/Ex3.jpg,left,reversed,easy,1,,,,,
,,,,,5ee683596f9b570626faa11c,001,41,male,british,bachelors,2024-02-26_01h31.39.484,CRL1e,2023.2.3,Win32,144.9275362,65dbad3905fde4fe1981dc61,65dbe9e75fde30418cc856c2,,,,,,,,,,,1846.3541,0.6,1846.9519,1846.9519,1847.6195,right,1,0.6618,,1847.6195,1848.6208,4,7,39,1,1,total,2,images/Ex1.jpg,right,reversed,easy,1,,,,,
,,,,,5ee683596f9b570626faa11c,001,41,male,british,bachelors,2024-02-26_01h31.39.484,CRL1e,2023.2.3,Win32,144.9275362,65dbad3905fde4fe1981dc61,65dbe9e75fde30418cc856c2,,,,,,,,,,,1848.6211,0.7,1849.3161,1849.3162,1849.9073,left,1,0.5878,,1849.9073,1850.9085,5,0,40,6,1,total,2,images/Ex4.jpg,left,reversed,easy,1,,,,,
,,,,,5ee683596f9b570626faa11c,001,41,male,british,bachelors,2024-02-26_01h31.39.484,CRL1e,2023.2.3,Win32,144.9275362,65dbad3905fde4fe1981dc61,65dbe9e75fde30418cc856c2,,,,,,,,,,,1850.9088,1.4,1852.3062,1852.3063,1853.0086,left,1,0.6976,,1853.0086,1854.0098,5,1,41,5,1,total,2,images/Ex3.jpg,left,reversed,easy,1,,,,,
,,,,,5ee683596f9b570626faa11c,001,41,male,british,bachelors,2024-02-26_01h31.39.484,CRL1e,2023.2.3,Win32,144.9275362,65dbad3905fde4fe1981dc61,65dbe9e75fde30418cc856c2,,,,,,,,,,,1854.01,0.9,1854.9068,1854.9069,1855.4241,right,1,0.5165,,1855.4241,1856.4228,5,2,42,1,1,total,2,images/Ex1.jpg,right,reversed,easy,1,,,,,
,,,,,5ee683596f9b570626faa11c,001,41,male,british,bachelors,2024-02-26_01h31.39.484,CRL1e,2023.2.3,Win32,144.9275362,65dbad3905fde4fe1981dc61,65dbe9e75fde30418cc856c2,,,,,,,,,,,1856.4231,0.8,1857.2224,1857.2224,1857.7321,right,1,0.509,,1857.7321,1858.7313,5,3,43,0,1,total,2,images/Ex1.jpg,right,reversed,easy,1,,,,,
,,,,,5ee683596f9b570626faa11c,001,41,male,british,bachelors,2024-02-26_01h31.39.484,CRL1e,2023.2.3,Win32,144.9275362,65dbad3905fde4fe1981dc61,65dbe9e75fde30418cc856c2,,,,,,,,,,,1858.7316,1.2,1859.9274,1859.9274,1860.4142,left,1,0.4814,,1860.4142,1861.4154,5,4,44,7,1,total,2,images/Ex4.jpg,left,reversed,easy,1,,,,,
,,,,,5ee683596f9b570626faa11c,001,41,male,british,bachelors,2024-02-26_01h31.39.484,CRL1e,2023.2.3,Win32,144.9275362,65dbad3905fde4fe1981dc61,65dbe9e75fde30418cc856c2,,,,,,,,,,,1861.4157,0.7,1862.1109,1862.1109,1862.7436,left,1,0.632,,1862.7436,1863.7449,5,5,45,4,1,total,2,images/Ex3.jpg,left,reversed,easy,1,,,,,
,,,,,5ee683596f9b570626faa11c,001,41,male,british,bachelors,2024-02-26_01h31.39.484,CRL1e,2023.2.3,Win32,144.9275362,65dbad3905fde4fe1981dc61,65dbe9e75fde30418cc856c2,,,,,,,,,,,1863.7453,1,1864.7478,1864.7478,1865.3304,right,1,0.5776,,1865.3305,1866.3317,5,6,46,3,1,total,2,images/Ex2.jpg,right,reversed,easy,1,,,,,
,,,,,5ee683596f9b570626faa11c,001,41,male,british,bachelors,2024-02-26_01h31.39.484,CRL1e,2023.2.3,Win32,144.9275362,65dbad3905fde4fe1981dc61,65dbe9e75fde30418cc856c2,,,,,,,,,,,1866.3319,0.8,1867.1313,1867.1313,1867.6389,right,1,0.5048,,1867.639,1868.6402,5,7,47,2,1,total,2,images/Ex2.jpg,right,reversed,easy,1,,,,,
,,,,,5ee683596f9b570626faa11c,001,41,male,british,bachelors,2024-02-26_01h31.39.484,CRL1e,2023.2.3,Win32,144.9275362,65dbad3905fde4fe1981dc61,65dbe9e75fde30418cc856c2,,,,,,,,,,,,,,,,,,,,,,,,,,,,,,,,,,1868.6406,1895.0019,space,26.3455,