infCons.started,infCons.stopped,resp_consent.keys,resp_consent.rt,resp_consent.duration,participant,session,Age?,Gender?,Nationality?,Highest Educational Degree?,date,expName,psychopyVersion,OS,frameRate,STUDY_ID,SESSION_ID,instructions.started,instructions.stopped,resp_instructions.keys,resp_instructions.rt,resp_instructions.duration,nextTask.started,nextTask.stopped,ready_task.keys,ready_task.rt,ready_task.duration,fixation.started,ITI,fixation.stopped,stim.started,stim.stopped,response.keys,response.corr,response.rt,response.duration,feedback.started,feedback.stopped,trials.thisRepN,trials.thisTrialN,trials.thisN,trials.thisIndex,trials.ran,task,phase,Exemplars,r_correct,condition,difficulty,set,end.started,end.stopped,resp_end.keys,resp_end.rt,resp_end.duration
0,1623.85,space,1623.748,,5f262b3018c68e27aebdd170,001,,,,,2024-02-26_16h26.16.218,CRL1e,2023.2.3,MacIntel,58.82352941,65dbad3905fde4fe1981dc61,65dcba485744a02a9046a211,,,,,,,,,,,,,,,,,,,,,,,,,,,,,,,,,,,,,,
,,,,,5f262b3018c68e27aebdd170,001,,,,,2024-02-26_16h26.16.218,CRL1e,2023.2.3,MacIntel,58.82352941,65dbad3905fde4fe1981dc61,65dcba485744a02a9046a211,1623.85,1625.961,space,2.07,,,,,,,,,,,,,,,,,,,,,,,,,,,,,,,,,,
,,,,,5f262b3018c68e27aebdd170,001,,,,,2024-02-26_16h26.16.218,CRL1e,2023.2.3,MacIntel,58.82352941,65dbad3905fde4fe1981dc61,65dcba485744a02a9046a211,,,,,,1625.971,1629.429,space,3.443,,1629.435,1.2,1630.629,1630.629,1636.128,right,1,5.488,,1636.129,1637.129,0,0,0,7,1,partial,1,images/Ex4.jpg,right,training,easy,3,,,,,
,,,,,5f262b3018c68e27aebdd170,001,,,,,2024-02-26_16h26.16.218,CRL1e,2023.2.3,MacIntel,58.82352941,65dbad3905fde4fe1981dc61,65dcba485744a02a9046a211,,,,,,,,,,,1637.132,1.2,1638.329,1638.329,1639.663,left,0,1.32,,1639.663,1640.661,0,1,1,4,1,partial,1,images/Ex3.jpg,right,training,easy,3,,,,,
,,,,,5f262b3018c68e27aebdd170,001,,,,,2024-02-26_16h26.16.218,CRL1e,2023.2.3,MacIntel,58.82352941,65dbad3905fde4fe1981dc61,65dcba485744a02a9046a211,,,,,,,,,,,1640.662,0.9,1641.562,1641.562,1641.929,right,1,0.361,,1641.929,1642.929,0,2,2,5,1,partial,1,images/Ex3.jpg,right,training,easy,3,,,,,
,,,,,5f262b3018c68e27aebdd170,001,,,,,2024-02-26_16h26.16.218,CRL1e,2023.2.3,MacIntel,58.82352941,65dbad3905fde4fe1981dc61,65dcba485744a02a9046a211,,,,,,,,,,,1642.93,1.4,1644.329,1644.329,1644.729,left,1,0.387,,1644.729,1645.729,0,3,3,1,1,partial,1,images/Ex1.jpg,left,training,easy,3,,,,,
,,,,,5f262b3018c68e27aebdd170,001,,,,,2024-02-26_16h26.16.218,CRL1e,2023.2.3,MacIntel,58.82352941,65dbad3905fde4fe1981dc61,65dcba485744a02a9046a211,,,,,,,,,,,1645.73,0.9,1646.629,1646.629,1646.929,left,1,0.294,,1646.929,1647.929,0,4,4,2,1,partial,1,images/Ex2.jpg,left,training,easy,3,,,,,
,,,,,5f262b3018c68e27aebdd170,001,,,,,2024-02-26_16h26.16.218,CRL1e,2023.2.3,MacIntel,58.82352941,65dbad3905fde4fe1981dc61,65dcba485744a02a9046a211,,,,,,,,,,,1647.93,0.9,1648.829,1648.829,1649.096,right,1,0.254,,1649.096,1650.096,0,5,5,6,1,partial,1,images/Ex4.jpg,right,training,easy,3,,,,,
,,,,,5f262b3018c68e27aebdd170,001,,,,,2024-02-26_16h26.16.218,CRL1e,2023.2.3,MacIntel,58.82352941,65dbad3905fde4fe1981dc61,65dcba485744a02a9046a211,,,,,,,,,,,1650.097,0.7,1650.795,1650.795,1651.078,left,1,0.268,,1651.078,1652.081,0,6,6,0,1,partial,1,images/Ex1.jpg,left,training,easy,3,,,,,
,,,,,5f262b3018c68e27aebdd170,001,,,,,2024-02-26_16h26.16.218,CRL1e,2023.2.3,MacIntel,58.82352941,65dbad3905fde4fe1981dc61,65dcba485744a02a9046a211,,,,,,,,,,,1652.082,0.7,1652.779,1652.779,1653.046,left,1,0.254,,1653.046,1654.045,0,7,7,3,1,partial,1,images/Ex2.jpg,left,training,easy,3,,,,,
,,,,,5f262b3018c68e27aebdd170,001,,,,,2024-02-26_16h26.16.218,CRL1e,2023.2.3,MacIntel,58.82352941,65dbad3905fde4fe1981dc61,65dcba485744a02a9046a211,,,,,,,,,,,1654.046,0.6,1654.646,1654.646,1654.895,right,0,0.244,,1654.896,1655.895,1,0,8,2,1,partial,1,images/Ex2.jpg,left,training,easy,3,,,,,
,,,,,5f262b3018c68e27aebdd170,001,,,,,2024-02-26_16h26.16.218,CRL1e,2023.2.3,MacIntel,58.82352941,65dbad3905fde4fe1981dc61,65dcba485744a02a9046a211,,,,,,,,,,,1655.896,1,1656.896,1656.896,1657.179,left,1,0.272,,1657.179,1658.178,1,1,9,0,1,partial,1,images/Ex1.jpg,left,training,easy,3,,,,,
,,,,,5f262b3018c68e27aebdd170,001,,,,,2024-02-26_16h26.16.218,CRL1e,2023.2.3,MacIntel,58.82352941,65dbad3905fde4fe1981dc61,65dcba485744a02a9046a211,,,,,,,,,,,1658.179,1.1,1659.279,1659.279,1659.645,right,1,0.355,,1659.645,1660.646,1,2,10,4,1,partial,1,images/Ex3.jpg,right,training,easy,3,,,,,
,,,,,5f262b3018c68e27aebdd170,001,,,,,2024-02-26_16h26.16.218,CRL1e,2023.2.3,MacIntel,58.82352941,65dbad3905fde4fe1981dc61,65dcba485744a02a9046a211,,,,,,,,,,,1660.647,0.9,1661.546,1661.546,1661.896,left,1,0.337,,1661.896,1662.895,1,3,11,1,1,partial,1,images/Ex1.jpg,left,training,easy,3,,,,,
,,,,,5f262b3018c68e27aebdd170,001,,,,,2024-02-26_16h26.16.218,CRL1e,2023.2.3,MacIntel,58.82352941,65dbad3905fde4fe1981dc61,65dcba485744a02a9046a211,,,,,,,,,,,1662.897,1.4,1664.296,1664.296,1664.612,left,0,0.304,,1664.612,1665.612,1,4,12,6,1,partial,1,images/Ex4.jpg,right,training,easy,3,,,,,
,,,,,5f262b3018c68e27aebdd170,001,,,,,2024-02-26_16h26.16.218,CRL1e,2023.2.3,MacIntel,58.82352941,65dbad3905fde4fe1981dc61,65dcba485744a02a9046a211,,,,,,,,,,,1665.614,1.5,1667.113,1667.113,1667.396,right,1,0.281,,1667.396,1668.396,1,5,13,7,1,partial,1,images/Ex4.jpg,right,training,easy,3,,,,,
,,,,,5f262b3018c68e27aebdd170,001,,,,,2024-02-26_16h26.16.218,CRL1e,2023.2.3,MacIntel,58.82352941,65dbad3905fde4fe1981dc61,65dcba485744a02a9046a211,,,,,,,,,,,1668.397,1,1669.396,1669.396,1669.696,right,0,0.288,,1669.696,1670.696,1,6,14,3,1,partial,1,images/Ex2.jpg,left,training,easy,3,,,,,
,,,,,5f262b3018c68e27aebdd170,001,,,,,2024-02-26_16h26.16.218,CRL1e,2023.2.3,MacIntel,58.82352941,65dbad3905fde4fe1981dc61,65dcba485744a02a9046a211,,,,,,,,,,,1670.697,1.5,1672.196,1672.196,1672.479,left,0,0.276,,1672.479,1673.479,1,7,15,5,1,partial,1,images/Ex3.jpg,right,training,easy,3,,,,,
,,,,,5f262b3018c68e27aebdd170,001,,,,,2024-02-26_16h26.16.218,CRL1e,2023.2.3,MacIntel,58.82352941,65dbad3905fde4fe1981dc61,65dcba485744a02a9046a211,,,,,,,,,,,1673.48,1.3,1674.779,1674.779,1675.129,right,1,0.337,,1675.129,1676.129,2,0,16,7,1,partial,1,images/Ex4.jpg,right,training,easy,3,,,,,
,,,,,5f262b3018c68e27aebdd170,001,,,,,2024-02-26_16h26.16.218,CRL1e,2023.2.3,MacIntel,58.82352941,65dbad3905fde4fe1981dc61,65dcba485744a02a9046a211,,,,,,,,,,,1676.13,1.2,1677.329,1677.329,1677.646,right,0,0.303,,1677.646,1678.646,2,1,17,1,1,partial,1,images/Ex1.jpg,left,training,easy,3,,,,,
,,,,,5f262b3018c68e27aebdd170,001,,,,,2024-02-26_16h26.16.218,CRL1e,2023.2.3,MacIntel,58.82352941,65dbad3905fde4fe1981dc61,65dcba485744a02a9046a211,,,,,,,,,,,1678.647,1.3,1679.946,1679.946,1680.513,left,1,0.557,,1680.513,1681.513,2,2,18,2,1,partial,1,images/Ex2.jpg,left,training,easy,3,,,,,
,,,,,5f262b3018c68e27aebdd170,001,,,,,2024-02-26_16h26.16.218,CRL1e,2023.2.3,MacIntel,58.82352941,65dbad3905fde4fe1981dc61,65dcba485744a02a9046a211,,,,,,,,,,,1681.514,0.9,1682.413,1682.413,1682.979,right,1,0.554,,1682.979,1683.979,2,3,19,5,1,partial,1,images/Ex3.jpg,right,training,easy,3,,,,,
,,,,,5f262b3018c68e27aebdd170,001,,,,,2024-02-26_16h26.16.218,CRL1e,2023.2.3,MacIntel,58.82352941,65dbad3905fde4fe1981dc61,65dcba485744a02a9046a211,,,,,,,,,,,1683.981,1.4,1685.38,1685.38,1686.08,left,0,0.69,,1686.08,1687.079,2,4,20,6,1,partial,1,images/Ex4.jpg,right,training,easy,3,,,,,
,,,,,5f262b3018c68e27aebdd170,001,,,,,2024-02-26_16h26.16.218,CRL1e,2023.2.3,MacIntel,58.82352941,65dbad3905fde4fe1981dc61,65dcba485744a02a9046a211,,,,,,,,,,,1687.081,1.2,1688.279,1688.279,1688.863,left,1,0.57,,1688.863,1689.862,2,5,21,3,1,partial,1,images/Ex2.jpg,left,training,easy,3,,,,,
,,,,,5f262b3018c68e27aebdd170,001,,,,,2024-02-26_16h26.16.218,CRL1e,2023.2.3,MacIntel,58.82352941,65dbad3905fde4fe1981dc61,65dcba485744a02a9046a211,,,,,,,,,,,1689.863,1.2,1691.063,1691.063,1691.696,right,1,0.62,,1691.696,1692.696,2,6,22,4,1,partial,1,images/Ex3.jpg,right,training,easy,3,,,,,
,,,,,5f262b3018c68e27aebdd170,001,,,,,2024-02-26_16h26.16.218,CRL1e,2023.2.3,MacIntel,58.82352941,65dbad3905fde4fe1981dc61,65dcba485744a02a9046a211,,,,,,,,,,,1692.697,1.4,1694.097,1694.097,1694.43,right,0,0.322,,1694.43,1695.43,2,7,23,0,1,partial,1,images/Ex1.jpg,left,training,easy,3,,,,,
,,,,,5f262b3018c68e27aebdd170,001,,,,,2024-02-26_16h26.16.218,CRL1e,2023.2.3,MacIntel,58.82352941,65dbad3905fde4fe1981dc61,65dcba485744a02a9046a211,,,,,,,,,,,1695.431,0.9,1696.33,1696.33,1696.763,left,1,0.421,,1696.763,1698.888,3,0,24,1,1,partial,1,images/Ex1.jpg,left,training,easy,3,,,,,
,,,,,5f262b3018c68e27aebdd170,001,,,,,2024-02-26_16h26.16.218,CRL1e,2023.2.3,MacIntel,58.82352941,65dbad3905fde4fe1981dc61,65dcba485744a02a9046a211,,,,,,,,,,,1698.889,1.2,1700.08,1700.08,1700.43,right,0,0.343,,1700.43,1701.429,3,1,25,3,1,partial,1,images/Ex2.jpg,left,training,easy,3,,,,,
,,,,,5f262b3018c68e27aebdd170,001,,,,,2024-02-26_16h26.16.218,CRL1e,2023.2.3,MacIntel,58.82352941,65dbad3905fde4fe1981dc61,65dcba485744a02a9046a211,,,,,,,,,,,1701.43,1.3,1702.73,1702.73,1702.88,left,1,0.139,,1702.88,1703.879,3,2,26,2,1,partial,1,images/Ex2.jpg,left,training,easy,3,,,,,
,,,,,5f262b3018c68e27aebdd170,001,,,,,2024-02-26_16h26.16.218,CRL1e,2023.2.3,MacIntel,58.82352941,65dbad3905fde4fe1981dc61,65dcba485744a02a9046a211,,,,,,,,,,,1703.879,1.2,1705.08,1705.08,1705.713,left,0,0.62,,1705.714,1706.712,3,3,27,6,1,partial,1,images/Ex4.jpg,right,training,easy,3,,,,,
,,,,,5f262b3018c68e27aebdd170,001,,,,,2024-02-26_16h26.16.218,CRL1e,2023.2.3,MacIntel,58.82352941,65dbad3905fde4fe1981dc61,65dcba485744a02a9046a211,,,,,,,,,,,1706.713,1.4,1708.113,1708.114,1708.796,right,1,0.677,,1708.796,1709.8,3,4,28,7,1,partial,1,images/Ex4.jpg,right,training,easy,3,,,,,
,,,,,5f262b3018c68e27aebdd170,001,,,,,2024-02-26_16h26.16.218,CRL1e,2023.2.3,MacIntel,58.82352941,65dbad3905fde4fe1981dc61,65dcba485744a02a9046a211,,,,,,,,,,,1709.8,0.9,1710.697,1710.697,1711.214,left,0,0.506,,1711.214,1712.214,3,5,29,5,1,partial,1,images/Ex3.jpg,right,training,easy,3,,,,,
,,,,,5f262b3018c68e27aebdd170,001,,,,,2024-02-26_16h26.16.218,CRL1e,2023.2.3,MacIntel,58.82352941,65dbad3905fde4fe1981dc61,65dcba485744a02a9046a211,,,,,,,,,,,1712.215,0.7,1712.913,1712.913,1713.363,right,1,0.439,,1713.363,1714.363,3,6,30,4,1,partial,1,images/Ex3.jpg,right,training,easy,3,,,,,
,,,,,5f262b3018c68e27aebdd170,001,,,,,2024-02-26_16h26.16.218,CRL1e,2023.2.3,MacIntel,58.82352941,65dbad3905fde4fe1981dc61,65dcba485744a02a9046a211,,,,,,,,,,,1714.364,1.3,1715.664,1715.664,1716.213,left,1,0.538,,1716.213,1717.214,3,7,31,0,1,partial,1,images/Ex1.jpg,left,training,easy,3,,,,,
,,,,,5f262b3018c68e27aebdd170,001,,,,,2024-02-26_16h26.16.218,CRL1e,2023.2.3,MacIntel,58.82352941,65dbad3905fde4fe1981dc61,65dcba485744a02a9046a211,,,,,,,,,,,1717.215,1,1718.213,1718.213,1718.697,left,1,0.471,,1718.697,1719.697,4,0,32,2,1,partial,1,images/Ex2.jpg,left,training,easy,3,,,,,
,,,,,5f262b3018c68e27aebdd170,001,,,,,2024-02-26_16h26.16.218,CRL1e,2023.2.3,MacIntel,58.82352941,65dbad3905fde4fe1981dc61,65dcba485744a02a9046a211,,,,,,,,,,,1719.698,0.8,1720.496,1720.496,1721.063,left,0,0.557,,1721.063,1722.064,4,1,33,5,1,partial,1,images/Ex3.jpg,right,training,easy,3,,,,,
,,,,,5f262b3018c68e27aebdd170,001,,,,,2024-02-26_16h26.16.218,CRL1e,2023.2.3,MacIntel,58.82352941,65dbad3905fde4fe1981dc61,65dcba485744a02a9046a211,,,,,,,,,,,1722.065,0.6,1722.663,1722.663,1722.964,right,1,0.29,,1722.964,1723.963,4,2,34,4,1,partial,1,images/Ex3.jpg,right,training,easy,3,,,,,
,,,,,5f262b3018c68e27aebdd170,001,,,,,2024-02-26_16h26.16.218,CRL1e,2023.2.3,MacIntel,58.82352941,65dbad3905fde4fe1981dc61,65dcba485744a02a9046a211,,,,,,,,,,,1723.964,1.4,1725.363,1725.363,1725.63,left,1,0.258,,1725.631,1726.63,4,3,35,1,1,partial,1,images/Ex1.jpg,left,training,easy,3,,,,,
,,,,,5f262b3018c68e27aebdd170,001,,,,,2024-02-26_16h26.16.218,CRL1e,2023.2.3,MacIntel,58.82352941,65dbad3905fde4fe1981dc61,65dcba485744a02a9046a211,,,,,,,,,,,1726.631,1.5,1728.131,1728.132,1728.43,right,1,0.292,,1728.43,1729.43,4,4,36,7,1,partial,1,images/Ex4.jpg,right,training,easy,3,,,,,
,,,,,5f262b3018c68e27aebdd170,001,,,,,2024-02-26_16h26.16.218,CRL1e,2023.2.3,MacIntel,58.82352941,65dbad3905fde4fe1981dc61,65dcba485744a02a9046a211,,,,,,,,,,,1729.431,0.5,1729.93,1729.93,1730.398,right,0,0.458,,1730.399,1731.397,4,5,37,0,1,partial,1,images/Ex1.jpg,left,training,easy,3,,,,,
,,,,,5f262b3018c68e27aebdd170,001,,,,,2024-02-26_16h26.16.218,CRL1e,2023.2.3,MacIntel,58.82352941,65dbad3905fde4fe1981dc61,65dcba485744a02a9046a211,,,,,,,,,,,1731.398,1.2,1732.597,1732.598,1732.897,left,1,0.286,,1732.897,1733.897,4,6,38,3,1,partial,1,images/Ex2.jpg,left,training,easy,3,,,,,
,,,,,5f262b3018c68e27aebdd170,001,,,,,2024-02-26_16h26.16.218,CRL1e,2023.2.3,MacIntel,58.82352941,65dbad3905fde4fe1981dc61,65dcba485744a02a9046a211,,,,,,,,,,,1733.898,1.1,1734.998,1734.999,1735.63,left,0,0.618,,1735.63,1736.63,4,7,39,6,1,partial,1,images/Ex4.jpg,right,training,easy,3,,,,,
,,,,,5f262b3018c68e27aebdd170,001,,,,,2024-02-26_16h26.16.218,CRL1e,2023.2.3,MacIntel,58.82352941,65dbad3905fde4fe1981dc61,65dcba485744a02a9046a211,,,,,,,,,,,1736.631,0.5,1737.132,1737.132,1737.63,right,1,0.486,,1737.63,1738.629,5,0,40,6,1,partial,1,images/Ex4.jpg,right,training,easy,3,,,,,
,,,,,5f262b3018c68e27aebdd170,001,,,,,2024-02-26_16h26.16.218,CRL1e,2023.2.3,MacIntel,58.82352941,65dbad3905fde4fe1981dc61,65dcba485744a02a9046a211,,,,,,,,,,,1738.63,0.6,1739.23,1739.23,1739.73,right,1,0.489,,1739.731,1740.73,5,1,41,5,1,partial,1,images/Ex3.jpg,right,training,easy,3,,,,,
,,,,,5f262b3018c68e27aebdd170,001,,,,,2024-02-26_16h26.16.218,CRL1e,2023.2.3,MacIntel,58.82352941,65dbad3905fde4fe1981dc61,65dcba485744a02a9046a211,,,,,,,,,,,1740.731,1.4,1742.13,1742.13,1742.396,left,0,0.257,,1742.397,1743.397,5,2,42,4,1,partial,1,images/Ex3.jpg,right,training,easy,3,,,,,
,,,,,5f262b3018c68e27aebdd170,001,,,,,2024-02-26_16h26.16.218,CRL1e,2023.2.3,MacIntel,58.82352941,65dbad3905fde4fe1981dc61,65dcba485744a02a9046a211,,,,,,,,,,,1743.398,0.9,1744.297,1744.297,1744.597,right,1,0.288,,1744.597,1745.603,5,3,43,7,1,partial,1,images/Ex4.jpg,right,training,easy,3,,,,,
,,,,,5f262b3018c68e27aebdd170,001,,,,,2024-02-26_16h26.16.218,CRL1e,2023.2.3,MacIntel,58.82352941,65dbad3905fde4fe1981dc61,65dcba485744a02a9046a211,,,,,,,,,,,1745.604,0.8,1746.397,1746.397,1746.718,left,1,0.305,,1746.718,1747.713,5,4,44,2,1,partial,1,images/Ex2.jpg,left,training,easy,3,,,,,
,,,,,5f262b3018c68e27aebdd170,001,,,,,2024-02-26_16h26.16.218,CRL1e,2023.2.3,MacIntel,58.82352941,65dbad3905fde4fe1981dc61,65dcba485744a02a9046a211,,,,,,,,,,,1747.714,1.5,1749.215,1749.215,1749.98,left,1,0.754,,1749.98,1750.981,5,5,45,3,1,partial,1,images/Ex2.jpg,left,training,easy,3,,,,,
,,,,,5f262b3018c68e27aebdd170,001,,,,,2024-02-26_16h26.16.218,CRL1e,2023.2.3,MacIntel,58.82352941,65dbad3905fde4fe1981dc61,65dcba485744a02a9046a211,,,,,,,,,,,1750.982,0.5,1751.48,1751.48,1753.197,right,0,1.707,,1753.198,1754.198,5,6,46,0,1,partial,1,images/Ex1.jpg,left,training,easy,3,,,,,
,,,,,5f262b3018c68e27aebdd170,001,,,,,2024-02-26_16h26.16.218,CRL1e,2023.2.3,MacIntel,58.82352941,65dbad3905fde4fe1981dc61,65dcba485744a02a9046a211,,,,,,,,,,,1754.198,1,1755.197,1755.197,1755.581,left,1,0.373,,1755.581,1756.581,5,7,47,1,1,partial,1,images/Ex1.jpg,left,training,easy,3,,,,,
,,,,,5f262b3018c68e27aebdd170,001,,,,,2024-02-26_16h26.16.218,CRL1e,2023.2.3,MacIntel,58.82352941,65dbad3905fde4fe1981dc61,65dcba485744a02a9046a211,,,,,,,,,,,1756.593,0.7,1757.297,1757.298,1757.714,left,0,0.408,,1757.714,1758.714,0,0,0,3,1,partial,2,images/Ex2.jpg,right,reversed,easy,3,,,,,
,,,,,5f262b3018c68e27aebdd170,001,,,,,2024-02-26_16h26.16.218,CRL1e,2023.2.3,MacIntel,58.82352941,65dbad3905fde4fe1981dc61,65dcba485744a02a9046a211,,,,,,,,,,,1758.715,0.9,1759.614,1759.615,1759.964,right,0,0.336,,1759.964,1760.964,0,1,1,0,1,partial,2,images/Ex1.jpg,left,nonreversed,easy,3,,,,,
,,,,,5f262b3018c68e27aebdd170,001,,,,,2024-02-26_16h26.16.218,CRL1e,2023.2.3,MacIntel,58.82352941,65dbad3905fde4fe1981dc61,65dcba485744a02a9046a211,,,,,,,,,,,1760.964,1.1,1762.064,1762.064,1762.381,right,1,0.302,,1762.381,1763.383,0,2,2,4,1,partial,2,images/Ex3.jpg,right,nonreversed,easy,3,,,,,
,,,,,5f262b3018c68e27aebdd170,001,,,,,2024-02-26_16h26.16.218,CRL1e,2023.2.3,MacIntel,58.82352941,65dbad3905fde4fe1981dc61,65dcba485744a02a9046a211,,,,,,,,,,,1763.383,1.1,1764.481,1764.481,1764.914,right,1,0.42,,1764.914,1765.914,0,3,3,2,1,partial,2,images/Ex2.jpg,right,reversed,easy,3,,,,,
,,,,,5f262b3018c68e27aebdd170,001,,,,,2024-02-26_16h26.16.218,CRL1e,2023.2.3,MacIntel,58.82352941,65dbad3905fde4fe1981dc61,65dcba485744a02a9046a211,,,,,,,,,,,1765.915,1.1,1767.017,1767.018,1767.297,left,0,0.268,,1767.298,1768.298,0,4,4,5,1,partial,2,images/Ex3.jpg,right,nonreversed,easy,3,,,,,
,,,,,5f262b3018c68e27aebdd170,001,,,,,2024-02-26_16h26.16.218,CRL1e,2023.2.3,MacIntel,58.82352941,65dbad3905fde4fe1981dc61,65dcba485744a02a9046a211,,,,,,,,,,,1768.298,1.2,1769.498,1769.498,1769.897,right,0,0.395,,1769.898,1770.897,0,5,5,6,1,partial,2,images/Ex4.jpg,left,reversed,easy,3,,,,,
,,,,,5f262b3018c68e27aebdd170,001,,,,,2024-02-26_16h26.16.218,CRL1e,2023.2.3,MacIntel,58.82352941,65dbad3905fde4fe1981dc61,65dcba485744a02a9046a211,,,,,,,,,,,1770.897,1,1771.898,1771.898,1772.148,right,0,0.246,,1772.148,1773.148,0,6,6,7,1,partial,2,images/Ex4.jpg,left,reversed,easy,3,,,,,
,,,,,5f262b3018c68e27aebdd170,001,,,,,2024-02-26_16h26.16.218,CRL1e,2023.2.3,MacIntel,58.82352941,65dbad3905fde4fe1981dc61,65dcba485744a02a9046a211,,,,,,,,,,,1773.149,1.3,1774.449,1774.449,1775.531,right,0,1.072,,1775.531,1776.535,0,7,7,1,1,partial,2,images/Ex1.jpg,left,nonreversed,easy,3,,,,,
,,,,,5f262b3018c68e27aebdd170,001,,,,,2024-02-26_16h26.16.218,CRL1e,2023.2.3,MacIntel,58.82352941,65dbad3905fde4fe1981dc61,65dcba485744a02a9046a211,,,,,,,,,,,1776.535,0.7,1777.231,1777.231,1777.67,left,1,0.424,,1777.67,1778.665,1,0,8,7,1,partial,2,images/Ex4.jpg,left,reversed,easy,3,,,,,
,,,,,5f262b3018c68e27aebdd170,001,,,,,2024-02-26_16h26.16.218,CRL1e,2023.2.3,MacIntel,58.82352941,65dbad3905fde4fe1981dc61,65dcba485744a02a9046a211,,,,,,,,,,,1778.665,1.1,1779.765,1779.765,1780.114,left,0,0.337,,1780.115,1781.115,1,1,9,4,1,partial,2,images/Ex3.jpg,right,nonreversed,easy,3,,,,,
,,,,,5f262b3018c68e27aebdd170,001,,,,,2024-02-26_16h26.16.218,CRL1e,2023.2.3,MacIntel,58.82352941,65dbad3905fde4fe1981dc61,65dcba485744a02a9046a211,,,,,,,,,,,1781.115,1.3,1782.414,1782.414,1782.915,right,1,0.489,,1782.915,1783.914,1,2,10,2,1,partial,2,images/Ex2.jpg,right,reversed,easy,3,,,,,
,,,,,5f262b3018c68e27aebdd170,001,,,,,2024-02-26_16h26.16.218,CRL1e,2023.2.3,MacIntel,58.82352941,65dbad3905fde4fe1981dc61,65dcba485744a02a9046a211,,,,,,,,,,,1783.915,0.9,1784.815,1784.815,1785.098,left,1,0.271,,1785.098,1786.098,1,3,11,6,1,partial,2,images/Ex4.jpg,left,reversed,easy,3,,,,,
,,,,,5f262b3018c68e27aebdd170,001,,,,,2024-02-26_16h26.16.218,CRL1e,2023.2.3,MacIntel,58.82352941,65dbad3905fde4fe1981dc61,65dcba485744a02a9046a211,,,,,,,,,,,1786.098,1.2,1787.298,1787.298,1790.998,right,1,3.692,,1790.998,1791.998,1,4,12,3,1,partial,2,images/Ex2.jpg,right,reversed,easy,3,,,,,
,,,,,5f262b3018c68e27aebdd170,001,,,,,2024-02-26_16h26.16.218,CRL1e,2023.2.3,MacIntel,58.82352941,65dbad3905fde4fe1981dc61,65dcba485744a02a9046a211,,,,,,,,,,,1791.999,1.4,1793.402,1793.402,1794.065,left,0,0.651,,1794.065,1795.065,1,5,13,5,1,partial,2,images/Ex3.jpg,right,nonreversed,easy,3,,,,,
,,,,,5f262b3018c68e27aebdd170,001,,,,,2024-02-26_16h26.16.218,CRL1e,2023.2.3,MacIntel,58.82352941,65dbad3905fde4fe1981dc61,65dcba485744a02a9046a211,,,,,,,,,,,1795.066,1,1796.065,1796.065,1797.098,right,0,1.022,,1797.098,1798.098,1,6,14,1,1,partial,2,images/Ex1.jpg,left,nonreversed,easy,3,,,,,
,,,,,5f262b3018c68e27aebdd170,001,,,,,2024-02-26_16h26.16.218,CRL1e,2023.2.3,MacIntel,58.82352941,65dbad3905fde4fe1981dc61,65dcba485744a02a9046a211,,,,,,,,,,,1798.099,0.9,1798.998,1798.998,1800.265,left,1,1.259,,1800.265,1801.265,1,7,15,0,1,partial,2,images/Ex1.jpg,left,nonreversed,easy,3,,,,,
,,,,,5f262b3018c68e27aebdd170,001,,,,,2024-02-26_16h26.16.218,CRL1e,2023.2.3,MacIntel,58.82352941,65dbad3905fde4fe1981dc61,65dcba485744a02a9046a211,,,,,,,,,,,1801.266,0.7,1801.965,1801.965,1803.115,left,0,1.144,,1803.115,1804.115,2,0,16,3,1,partial,2,images/Ex2.jpg,right,reversed,easy,3,,,,,
,,,,,5f262b3018c68e27aebdd170,001,,,,,2024-02-26_16h26.16.218,CRL1e,2023.2.3,MacIntel,58.82352941,65dbad3905fde4fe1981dc61,65dcba485744a02a9046a211,,,,,,,,,,,1804.117,0.9,1805.015,1805.015,1806.314,right,0,1.289,,1806.314,1807.315,2,1,17,7,1,partial,2,images/Ex4.jpg,left,reversed,easy,3,,,,,
,,,,,5f262b3018c68e27aebdd170,001,,,,,2024-02-26_16h26.16.218,CRL1e,2023.2.3,MacIntel,58.82352941,65dbad3905fde4fe1981dc61,65dcba485744a02a9046a211,,,,,,,,,,,1807.316,1.3,1808.615,1808.615,1809.382,left,1,0.755,,1809.382,1810.382,2,2,18,6,1,partial,2,images/Ex4.jpg,left,reversed,easy,3,,,,,
,,,,,5f262b3018c68e27aebdd170,001,,,,,2024-02-26_16h26.16.218,CRL1e,2023.2.3,MacIntel,58.82352941,65dbad3905fde4fe1981dc61,65dcba485744a02a9046a211,,,,,,,,,,,1810.383,0.6,1810.982,1810.982,1812.048,left,1,1.055,,1812.048,1813.049,2,3,19,0,1,partial,2,images/Ex1.jpg,left,nonreversed,easy,3,,,,,
,,,,,5f262b3018c68e27aebdd170,001,,,,,2024-02-26_16h26.16.218,CRL1e,2023.2.3,MacIntel,58.82352941,65dbad3905fde4fe1981dc61,65dcba485744a02a9046a211,,,,,,,,,,,1813.05,1.1,1814.149,1814.149,1814.848,right,1,0.686,,1814.849,1815.848,2,4,20,2,1,partial,2,images/Ex2.jpg,right,reversed,easy,3,,,,,
,,,,,5f262b3018c68e27aebdd170,001,,,,,2024-02-26_16h26.16.218,CRL1e,2023.2.3,MacIntel,58.82352941,65dbad3905fde4fe1981dc61,65dcba485744a02a9046a211,,,,,,,,,,,1815.849,1.3,1817.149,1817.149,1817.615,left,1,0.461,,1817.615,1818.615,2,5,21,1,1,partial,2,images/Ex1.jpg,left,nonreversed,easy,3,,,,,
,,,,,5f262b3018c68e27aebdd170,001,,,,,2024-02-26_16h26.16.218,CRL1e,2023.2.3,MacIntel,58.82352941,65dbad3905fde4fe1981dc61,65dcba485744a02a9046a211,,,,,,,,,,,1818.616,1.4,1820.015,1820.015,1820.682,left,0,0.657,,1820.682,1821.682,2,6,22,4,1,partial,2,images/Ex3.jpg,right,nonreversed,easy,3,,,,,
,,,,,5f262b3018c68e27aebdd170,001,,,,,2024-02-26_16h26.16.218,CRL1e,2023.2.3,MacIntel,58.82352941,65dbad3905fde4fe1981dc61,65dcba485744a02a9046a211,,,,,,,,,,,1821.682,0.6,1822.282,1822.282,1823.532,right,1,1.239,,1823.532,1824.532,2,7,23,5,1,partial,2,images/Ex3.jpg,right,nonreversed,easy,3,,,,,
,,,,,5f262b3018c68e27aebdd170,001,,,,,2024-02-26_16h26.16.218,CRL1e,2023.2.3,MacIntel,58.82352941,65dbad3905fde4fe1981dc61,65dcba485744a02a9046a211,,,,,,,,,,,1824.533,0.9,1825.431,1825.431,1825.882,left,1,0.44,,1825.882,1826.882,3,0,24,0,1,partial,2,images/Ex1.jpg,left,nonreversed,easy,3,,,,,
,,,,,5f262b3018c68e27aebdd170,001,,,,,2024-02-26_16h26.16.218,CRL1e,2023.2.3,MacIntel,58.82352941,65dbad3905fde4fe1981dc61,65dcba485744a02a9046a211,,,,,,,,,,,1826.883,0.8,1827.682,1827.682,1828.815,left,0,1.121,,1828.815,1829.815,3,1,25,4,1,partial,2,images/Ex3.jpg,right,nonreversed,easy,3,,,,,
,,,,,5f262b3018c68e27aebdd170,001,,,,,2024-02-26_16h26.16.218,CRL1e,2023.2.3,MacIntel,58.82352941,65dbad3905fde4fe1981dc61,65dcba485744a02a9046a211,,,,,,,,,,,1829.816,1.1,1830.916,1830.916,1831.883,left,1,0.965,,1831.883,1832.882,3,2,26,6,1,partial,2,images/Ex4.jpg,left,reversed,easy,3,,,,,
,,,,,5f262b3018c68e27aebdd170,001,,,,,2024-02-26_16h26.16.218,CRL1e,2023.2.3,MacIntel,58.82352941,65dbad3905fde4fe1981dc61,65dcba485744a02a9046a211,,,,,,,,,,,1832.882,0.7,1833.582,1833.582,1835.016,left,1,1.423,,1835.016,1836.015,3,3,27,7,1,partial,2,images/Ex4.jpg,left,reversed,easy,3,,,,,
,,,,,5f262b3018c68e27aebdd170,001,,,,,2024-02-26_16h26.16.218,CRL1e,2023.2.3,MacIntel,58.82352941,65dbad3905fde4fe1981dc61,65dcba485744a02a9046a211,,,,,,,,,,,1836.016,1.2,1837.216,1837.216,1838.249,right,1,1.027,,1838.249,1839.249,3,4,28,5,1,partial,2,images/Ex3.jpg,right,nonreversed,easy,3,,,,,
,,,,,5f262b3018c68e27aebdd170,001,,,,,2024-02-26_16h26.16.218,CRL1e,2023.2.3,MacIntel,58.82352941,65dbad3905fde4fe1981dc61,65dcba485744a02a9046a211,,,,,,,,,,,1839.25,1.1,1840.352,1840.352,1840.999,left,0,0.639,,1840.999,1841.998,3,5,29,3,1,partial,2,images/Ex2.jpg,right,reversed,easy,3,,,,,
,,,,,5f262b3018c68e27aebdd170,001,,,,,2024-02-26_16h26.16.218,CRL1e,2023.2.3,MacIntel,58.82352941,65dbad3905fde4fe1981dc61,65dcba485744a02a9046a211,,,,,,,,,,,1841.999,1.4,1843.399,1843.399,1844.116,right,1,0.705,,1844.116,1845.115,3,6,30,2,1,partial,2,images/Ex2.jpg,right,reversed,easy,3,,,,,
,,,,,5f262b3018c68e27aebdd170,001,,,,,2024-02-26_16h26.16.218,CRL1e,2023.2.3,MacIntel,58.82352941,65dbad3905fde4fe1981dc61,65dcba485744a02a9046a211,,,,,,,,,,,1845.116,0.7,1845.815,1845.815,1846.882,left,1,1.058,,1846.883,1847.882,3,7,31,1,1,partial,2,images/Ex1.jpg,left,nonreversed,easy,3,,,,,
,,,,,5f262b3018c68e27aebdd170,001,,,,,2024-02-26_16h26.16.218,CRL1e,2023.2.3,MacIntel,58.82352941,65dbad3905fde4fe1981dc61,65dcba485744a02a9046a211,,,,,,,,,,,1847.883,1.1,1848.982,1848.983,1849.682,right,1,0.692,,1849.682,1850.682,4,0,32,3,1,partial,2,images/Ex2.jpg,right,reversed,easy,3,,,,,
,,,,,5f262b3018c68e27aebdd170,001,,,,,2024-02-26_16h26.16.218,CRL1e,2023.2.3,MacIntel,58.82352941,65dbad3905fde4fe1981dc61,65dcba485744a02a9046a211,,,,,,,,,,,1850.683,1.3,1851.982,1851.983,1852.933,right,0,0.949,,1852.933,1853.933,4,1,33,6,1,partial,2,images/Ex4.jpg,left,reversed,easy,3,,,,,
,,,,,5f262b3018c68e27aebdd170,001,,,,,2024-02-26_16h26.16.218,CRL1e,2023.2.3,MacIntel,58.82352941,65dbad3905fde4fe1981dc61,65dcba485744a02a9046a211,,,,,,,,,,,1853.933,1.4,1855.333,1855.333,1856.249,left,0,0.906,,1856.249,1857.25,4,2,34,2,1,partial,2,images/Ex2.jpg,right,reversed,easy,3,,,,,
,,,,,5f262b3018c68e27aebdd170,001,,,,,2024-02-26_16h26.16.218,CRL1e,2023.2.3,MacIntel,58.82352941,65dbad3905fde4fe1981dc61,65dcba485744a02a9046a211,,,,,,,,,,,1857.25,1.2,1858.449,1858.449,1858.915,right,0,0.459,,1858.915,1859.916,4,3,35,0,1,partial,2,images/Ex1.jpg,left,nonreversed,easy,3,,,,,
,,,,,5f262b3018c68e27aebdd170,001,,,,,2024-02-26_16h26.16.218,CRL1e,2023.2.3,MacIntel,58.82352941,65dbad3905fde4fe1981dc61,65dcba485744a02a9046a211,,,,,,,,,,,1859.917,1.3,1861.216,1861.216,1861.833,left,0,0.604,,1861.833,1862.833,4,4,36,4,1,partial,2,images/Ex3.jpg,right,nonreversed,easy,3,,,,,
,,,,,5f262b3018c68e27aebdd170,001,,,,,2024-02-26_16h26.16.218,CRL1e,2023.2.3,MacIntel,58.82352941,65dbad3905fde4fe1981dc61,65dcba485744a02a9046a211,,,,,,,,,,,1862.833,1.4,1864.233,1864.233,1865.049,right,0,0.804,,1865.05,1866.049,4,5,37,1,1,partial,2,images/Ex1.jpg,left,nonreversed,easy,3,,,,,
,,,,,5f262b3018c68e27aebdd170,001,,,,,2024-02-26_16h26.16.218,CRL1e,2023.2.3,MacIntel,58.82352941,65dbad3905fde4fe1981dc61,65dcba485744a02a9046a211,,,,,,,,,,,1866.05,1.3,1867.35,1867.35,1869.683,left,0,2.327,,1869.683,1870.683,4,6,38,5,1,partial,2,images/Ex3.jpg,right,nonreversed,easy,3,,,,,
,,,,,5f262b3018c68e27aebdd170,001,,,,,2024-02-26_16h26.16.218,CRL1e,2023.2.3,MacIntel,58.82352941,65dbad3905fde4fe1981dc61,65dcba485744a02a9046a211,,,,,,,,,,,1870.684,0.8,1871.483,1871.483,1871.933,right,0,0.437,,1871.933,1872.933,4,7,39,7,1,partial,2,images/Ex4.jpg,left,reversed,easy,3,,,,,
,,,,,5f262b3018c68e27aebdd170,001,,,,,2024-02-26_16h26.16.218,CRL1e,2023.2.3,MacIntel,58.82352941,65dbad3905fde4fe1981dc61,65dcba485744a02a9046a211,,,,,,,,,,,1872.934,1.3,1874.232,1874.232,1874.633,left,0,0.389,,1874.633,1875.633,5,0,40,4,1,partial,2,images/Ex3.jpg,right,nonreversed,easy,3,,,,,
,,,,,5f262b3018c68e27aebdd170,001,,,,,2024-02-26_16h26.16.218,CRL1e,2023.2.3,MacIntel,58.82352941,65dbad3905fde4fe1981dc61,65dcba485744a02a9046a211,,,,,,,,,,,1875.634,1.1,1876.733,1876.733,1877.233,right,1,0.488,,1877.233,1878.233,5,1,41,5,1,partial,2,images/Ex3.jpg,right,nonreversed,easy,3,,,,,
,,,,,5f262b3018c68e27aebdd170,001,,,,,2024-02-26_16h26.16.218,CRL1e,2023.2.3,MacIntel,58.82352941,65dbad3905fde4fe1981dc61,65dcba485744a02a9046a211,,,,,,,,,,,1878.234,1.2,1879.433,1879.433,1880.516,left,1,1.069,,1880.516,1881.515,5,2,42,1,1,partial,2,images/Ex1.jpg,left,nonreversed,easy,3,,,,,
,,,,,5f262b3018c68e27aebdd170,001,,,,,2024-02-26_16h26.16.218,CRL1e,2023.2.3,MacIntel,58.82352941,65dbad3905fde4fe1981dc61,65dcba485744a02a9046a211,,,,,,,,,,,1881.516,1.2,1882.716,1882.716,1885.182,right,1,2.455,,1885.182,1886.183,5,3,43,2,1,partial,2,images/Ex2.jpg,right,reversed,easy,3,,,,,
,,,,,5f262b3018c68e27aebdd170,001,,,,,2024-02-26_16h26.16.218,CRL1e,2023.2.3,MacIntel,58.82352941,65dbad3905fde4fe1981dc61,65dcba485744a02a9046a211,,,,,,,,,,,1886.184,0.8,1886.983,1886.983,1887.982,left,1,0.996,,1887.983,1888.983,5,4,44,0,1,partial,2,images/Ex1.jpg,left,nonreversed,easy,3,,,,,
,,,,,5f262b3018c68e27aebdd170,001,,,,,2024-02-26_16h26.16.218,CRL1e,2023.2.3,MacIntel,58.82352941,65dbad3905fde4fe1981dc61,65dcba485744a02a9046a211,,,,,,,,,,,1888.984,0.9,1889.883,1889.884,1890.817,left,1,0.924,,1890.817,1891.816,5,5,45,6,1,partial,2,images/Ex4.jpg,left,reversed,easy,3,,,,,
,,,,,5f262b3018c68e27aebdd170,001,,,,,2024-02-26_16h26.16.218,CRL1e,2023.2.3,MacIntel,58.82352941,65dbad3905fde4fe1981dc61,65dcba485744a02a9046a211,,,,,,,,,,,1891.817,1.4,1893.217,1893.217,1893.65,right,0,0.423,,1893.65,1894.654,5,6,46,7,1,partial,2,images/Ex4.jpg,left,reversed,easy,3,,,,,
,,,,,5f262b3018c68e27aebdd170,001,,,,,2024-02-26_16h26.16.218,CRL1e,2023.2.3,MacIntel,58.82352941,65dbad3905fde4fe1981dc61,65dcba485744a02a9046a211,,,,,,,,,,,1894.654,1.2,1895.85,1895.85,1897,left,0,1.143,,1897,1898,5,7,47,3,1,partial,2,images/Ex2.jpg,right,reversed,easy,3,,,,,
,,,,,5f262b3018c68e27aebdd170,001,,,,,2024-02-26_16h26.16.218,CRL1e,2023.2.3,MacIntel,58.82352941,65dbad3905fde4fe1981dc61,65dcba485744a02a9046a211,,,,,,1898.002,1901.033,space,3.015,,1901.037,0.8,1901.833,1901.833,1902.45,right,0,0.605,,1902.45,1903.45,0,0,0,3,1,total,1,images/Ex6.jpg,left,training,easy,3,,,,,
,,,,,5f262b3018c68e27aebdd170,001,,,,,2024-02-26_16h26.16.218,CRL1e,2023.2.3,MacIntel,58.82352941,65dbad3905fde4fe1981dc61,65dcba485744a02a9046a211,,,,,,,,,,,1903.451,1,1904.45,1904.45,1904.867,left,1,0.405,,1904.867,1905.866,0,1,1,0,1,total,1,images/Ex5.jpg,left,training,easy,3,,,,,
,,,,,5f262b3018c68e27aebdd170,001,,,,,2024-02-26_16h26.16.218,CRL1e,2023.2.3,MacIntel,58.82352941,65dbad3905fde4fe1981dc61,65dcba485744a02a9046a211,,,,,,,,,,,1905.867,0.7,1906.567,1906.567,1907.067,left,0,0.495,,1907.067,1908.067,0,2,2,7,1,total,1,images/Ex8.jpg,right,training,easy,3,,,,,
,,,,,5f262b3018c68e27aebdd170,001,,,,,2024-02-26_16h26.16.218,CRL1e,2023.2.3,MacIntel,58.82352941,65dbad3905fde4fe1981dc61,65dcba485744a02a9046a211,,,,,,,,,,,1908.067,0.6,1908.667,1908.667,1909.317,right,1,0.641,,1909.317,1910.317,0,3,3,4,1,total,1,images/Ex7.jpg,right,training,easy,3,,,,,
,,,,,5f262b3018c68e27aebdd170,001,,,,,2024-02-26_16h26.16.218,CRL1e,2023.2.3,MacIntel,58.82352941,65dbad3905fde4fe1981dc61,65dcba485744a02a9046a211,,,,,,,,,,,1910.317,1.1,1911.417,1911.417,1912.05,right,1,0.622,,1912.05,1913.05,0,4,4,6,1,total,1,images/Ex8.jpg,right,training,easy,3,,,,,
,,,,,5f262b3018c68e27aebdd170,001,,,,,2024-02-26_16h26.16.218,CRL1e,2023.2.3,MacIntel,58.82352941,65dbad3905fde4fe1981dc61,65dcba485744a02a9046a211,,,,,,,,,,,1913.05,0.7,1913.75,1913.75,1914.25,left,0,0.489,,1914.25,1915.25,0,5,5,5,1,total,1,images/Ex7.jpg,right,training,easy,3,,,,,
,,,,,5f262b3018c68e27aebdd170,001,,,,,2024-02-26_16h26.16.218,CRL1e,2023.2.3,MacIntel,58.82352941,65dbad3905fde4fe1981dc61,65dcba485744a02a9046a211,,,,,,,,,,,1915.251,1.2,1916.45,1916.45,1916.95,right,0,0.491,,1916.951,1917.95,0,6,6,2,1,total,1,images/Ex6.jpg,left,training,easy,3,,,,,
,,,,,5f262b3018c68e27aebdd170,001,,,,,2024-02-26_16h26.16.218,CRL1e,2023.2.3,MacIntel,58.82352941,65dbad3905fde4fe1981dc61,65dcba485744a02a9046a211,,,,,,,,,,,1917.95,1.5,1919.451,1919.451,1919.934,left,1,0.478,,1919.934,1920.934,0,7,7,1,1,total,1,images/Ex5.jpg,left,training,easy,3,,,,,
,,,,,5f262b3018c68e27aebdd170,001,,,,,2024-02-26_16h26.16.218,CRL1e,2023.2.3,MacIntel,58.82352941,65dbad3905fde4fe1981dc61,65dcba485744a02a9046a211,,,,,,,,,,,1920.934,0.9,1921.834,1921.835,1922.367,left,0,0.526,,1922.367,1923.367,1,0,8,4,1,total,1,images/Ex7.jpg,right,training,easy,3,,,,,
,,,,,5f262b3018c68e27aebdd170,001,,,,,2024-02-26_16h26.16.218,CRL1e,2023.2.3,MacIntel,58.82352941,65dbad3905fde4fe1981dc61,65dcba485744a02a9046a211,,,,,,,,,,,1923.368,1,1924.367,1924.367,1924.933,right,0,0.555,,1924.934,1925.934,1,1,9,3,1,total,1,images/Ex6.jpg,left,training,easy,3,,,,,
,,,,,5f262b3018c68e27aebdd170,001,,,,,2024-02-26_16h26.16.218,CRL1e,2023.2.3,MacIntel,58.82352941,65dbad3905fde4fe1981dc61,65dcba485744a02a9046a211,,,,,,,,,,,1925.935,1.4,1927.334,1927.334,1928.017,left,0,0.666,,1928.017,1929.02,1,2,10,7,1,total,1,images/Ex8.jpg,right,training,easy,3,,,,,
,,,,,5f262b3018c68e27aebdd170,001,,,,,2024-02-26_16h26.16.218,CRL1e,2023.2.3,MacIntel,58.82352941,65dbad3905fde4fe1981dc61,65dcba485744a02a9046a211,,,,,,,,,,,1929.021,0.7,1929.717,1929.717,1930.084,right,1,0.356,,1930.084,1931.083,1,3,11,6,1,total,1,images/Ex8.jpg,right,training,easy,3,,,,,
,,,,,5f262b3018c68e27aebdd170,001,,,,,2024-02-26_16h26.16.218,CRL1e,2023.2.3,MacIntel,58.82352941,65dbad3905fde4fe1981dc61,65dcba485744a02a9046a211,,,,,,,,,,,1931.084,0.7,1931.784,1931.784,1932.067,right,1,0.272,,1932.067,1933.067,1,4,12,5,1,total,1,images/Ex7.jpg,right,training,easy,3,,,,,
,,,,,5f262b3018c68e27aebdd170,001,,,,,2024-02-26_16h26.16.218,CRL1e,2023.2.3,MacIntel,58.82352941,65dbad3905fde4fe1981dc61,65dcba485744a02a9046a211,,,,,,,,,,,1933.068,0.6,1933.668,1933.668,1933.917,left,1,0.236,,1933.917,1934.917,1,5,13,0,1,total,1,images/Ex5.jpg,left,training,easy,3,,,,,
,,,,,5f262b3018c68e27aebdd170,001,,,,,2024-02-26_16h26.16.218,CRL1e,2023.2.3,MacIntel,58.82352941,65dbad3905fde4fe1981dc61,65dcba485744a02a9046a211,,,,,,,,,,,1934.918,0.8,1935.721,1935.721,1936.084,right,0,0.352,,1936.084,1937.085,1,6,14,2,1,total,1,images/Ex6.jpg,left,training,easy,3,,,,,
,,,,,5f262b3018c68e27aebdd170,001,,,,,2024-02-26_16h26.16.218,CRL1e,2023.2.3,MacIntel,58.82352941,65dbad3905fde4fe1981dc61,65dcba485744a02a9046a211,,,,,,,,,,,1937.086,1.1,1938.184,1938.184,1938.467,left,1,0.278,,1938.467,1939.467,1,7,15,1,1,total,1,images/Ex5.jpg,left,training,easy,3,,,,,
,,,,,5f262b3018c68e27aebdd170,001,,,,,2024-02-26_16h26.16.218,CRL1e,2023.2.3,MacIntel,58.82352941,65dbad3905fde4fe1981dc61,65dcba485744a02a9046a211,,,,,,,,,,,1939.468,1,1940.471,1940.471,1940.734,left,1,0.254,,1940.734,1941.734,2,0,16,3,1,total,1,images/Ex6.jpg,left,training,easy,3,,,,,
,,,,,5f262b3018c68e27aebdd170,001,,,,,2024-02-26_16h26.16.218,CRL1e,2023.2.3,MacIntel,58.82352941,65dbad3905fde4fe1981dc61,65dcba485744a02a9046a211,,,,,,,,,,,1941.735,1.4,1943.134,1943.134,1943.4,right,0,0.255,,1943.4,1944.4,2,1,17,0,1,total,1,images/Ex5.jpg,left,training,easy,3,,,,,
,,,,,5f262b3018c68e27aebdd170,001,,,,,2024-02-26_16h26.16.218,CRL1e,2023.2.3,MacIntel,58.82352941,65dbad3905fde4fe1981dc61,65dcba485744a02a9046a211,,,,,,,,,,,1944.4,1.3,1945.71,1945.71,1945.95,left,0,0.22,,1945.951,1946.952,2,2,18,4,1,total,1,images/Ex7.jpg,right,training,easy,3,,,,,
,,,,,5f262b3018c68e27aebdd170,001,,,,,2024-02-26_16h26.16.218,CRL1e,2023.2.3,MacIntel,58.82352941,65dbad3905fde4fe1981dc61,65dcba485744a02a9046a211,,,,,,,,,,,1946.952,0.5,1947.454,1947.455,1947.918,left,0,0.452,,1947.918,1948.918,2,3,19,5,1,total,1,images/Ex7.jpg,right,training,easy,3,,,,,
,,,,,5f262b3018c68e27aebdd170,001,,,,,2024-02-26_16h26.16.218,CRL1e,2023.2.3,MacIntel,58.82352941,65dbad3905fde4fe1981dc61,65dcba485744a02a9046a211,,,,,,,,,,,1948.918,0.8,1949.718,1949.718,1950.118,left,0,0.388,,1950.118,1951.118,2,4,20,6,1,total,1,images/Ex8.jpg,right,training,easy,3,,,,,
,,,,,5f262b3018c68e27aebdd170,001,,,,,2024-02-26_16h26.16.218,CRL1e,2023.2.3,MacIntel,58.82352941,65dbad3905fde4fe1981dc61,65dcba485744a02a9046a211,,,,,,,,,,,1951.119,1,1952.118,1952.118,1952.351,right,1,0.223,,1952.351,1953.351,2,5,21,7,1,total,1,images/Ex8.jpg,right,training,easy,3,,,,,
,,,,,5f262b3018c68e27aebdd170,001,,,,,2024-02-26_16h26.16.218,CRL1e,2023.2.3,MacIntel,58.82352941,65dbad3905fde4fe1981dc61,65dcba485744a02a9046a211,,,,,,,,,,,1953.351,1.1,1954.451,1954.451,1954.918,right,0,0.455,,1954.918,1955.917,2,6,22,1,1,total,1,images/Ex5.jpg,left,training,easy,3,,,,,
,,,,,5f262b3018c68e27aebdd170,001,,,,,2024-02-26_16h26.16.218,CRL1e,2023.2.3,MacIntel,58.82352941,65dbad3905fde4fe1981dc61,65dcba485744a02a9046a211,,,,,,,,,,,1955.918,0.6,1956.522,1956.522,1956.968,left,1,0.435,,1956.968,1957.968,2,7,23,2,1,total,1,images/Ex6.jpg,left,training,easy,3,,,,,
,,,,,5f262b3018c68e27aebdd170,001,,,,,2024-02-26_16h26.16.218,CRL1e,2023.2.3,MacIntel,58.82352941,65dbad3905fde4fe1981dc61,65dcba485744a02a9046a211,,,,,,,,,,,1957.969,1.3,1959.268,1959.268,1959.534,left,0,0.253,,1959.534,1960.534,3,0,24,5,1,total,1,images/Ex7.jpg,right,training,easy,3,,,,,
,,,,,5f262b3018c68e27aebdd170,001,,,,,2024-02-26_16h26.16.218,CRL1e,2023.2.3,MacIntel,58.82352941,65dbad3905fde4fe1981dc61,65dcba485744a02a9046a211,,,,,,,,,,,1960.535,0.8,1961.334,1961.335,1961.618,right,1,0.271,,1961.618,1962.618,3,1,25,7,1,total,1,images/Ex8.jpg,right,training,easy,3,,,,,
,,,,,5f262b3018c68e27aebdd170,001,,,,,2024-02-26_16h26.16.218,CRL1e,2023.2.3,MacIntel,58.82352941,65dbad3905fde4fe1981dc61,65dcba485744a02a9046a211,,,,,,,,,,,1962.619,1.3,1963.917,1963.917,1963.985,left,1,0.055,,1963.985,1964.985,3,2,26,0,1,total,1,images/Ex5.jpg,left,training,easy,3,,,,,
,,,,,5f262b3018c68e27aebdd170,001,,,,,2024-02-26_16h26.16.218,CRL1e,2023.2.3,MacIntel,58.82352941,65dbad3905fde4fe1981dc61,65dcba485744a02a9046a211,,,,,,,,,,,1964.986,1,1965.985,1965.985,1966.285,right,0,0.291,,1966.285,1967.285,3,3,27,1,1,total,1,images/Ex5.jpg,left,training,easy,3,,,,,
,,,,,5f262b3018c68e27aebdd170,001,,,,,2024-02-26_16h26.16.218,CRL1e,2023.2.3,MacIntel,58.82352941,65dbad3905fde4fe1981dc61,65dcba485744a02a9046a211,,,,,,,,,,,1967.285,0.6,1967.885,1967.885,1968.418,left,1,0.522,,1968.418,1969.418,3,4,28,3,1,total,1,images/Ex6.jpg,left,training,easy,3,,,,,
,,,,,5f262b3018c68e27aebdd170,001,,,,,2024-02-26_16h26.16.218,CRL1e,2023.2.3,MacIntel,58.82352941,65dbad3905fde4fe1981dc61,65dcba485744a02a9046a211,,,,,,,,,,,1969.419,0.6,1970.018,1970.018,1970.35,left,0,0.319,,1970.35,1971.353,3,5,29,4,1,total,1,images/Ex7.jpg,right,training,easy,3,,,,,
,,,,,5f262b3018c68e27aebdd170,001,,,,,2024-02-26_16h26.16.218,CRL1e,2023.2.3,MacIntel,58.82352941,65dbad3905fde4fe1981dc61,65dcba485744a02a9046a211,,,,,,,,,,,1971.354,1.5,1972.851,1972.851,1973.118,right,1,0.256,,1973.118,1974.118,3,6,30,6,1,total,1,images/Ex8.jpg,right,training,easy,3,,,,,
,,,,,5f262b3018c68e27aebdd170,001,,,,,2024-02-26_16h26.16.218,CRL1e,2023.2.3,MacIntel,58.82352941,65dbad3905fde4fe1981dc61,65dcba485744a02a9046a211,,,,,,,,,,,1974.119,0.7,1974.818,1974.818,1975.485,right,0,0.663,,1975.485,1976.484,3,7,31,2,1,total,1,images/Ex6.jpg,left,training,easy,3,,,,,
,,,,,5f262b3018c68e27aebdd170,001,,,,,2024-02-26_16h26.16.218,CRL1e,2023.2.3,MacIntel,58.82352941,65dbad3905fde4fe1981dc61,65dcba485744a02a9046a211,,,,,,,,,,,1976.485,1.3,1977.785,1977.785,1978.051,left,0,0.254,,1978.051,1979.051,4,0,32,6,1,total,1,images/Ex8.jpg,right,training,easy,3,,,,,
,,,,,5f262b3018c68e27aebdd170,001,,,,,2024-02-26_16h26.16.218,CRL1e,2023.2.3,MacIntel,58.82352941,65dbad3905fde4fe1981dc61,65dcba485744a02a9046a211,,,,,,,,,,,1979.052,1.3,1980.352,1980.352,1980.951,right,1,0.591,,1980.951,1981.951,4,1,33,7,1,total,1,images/Ex8.jpg,right,training,easy,3,,,,,
,,,,,5f262b3018c68e27aebdd170,001,,,,,2024-02-26_16h26.16.218,CRL1e,2023.2.3,MacIntel,58.82352941,65dbad3905fde4fe1981dc61,65dcba485744a02a9046a211,,,,,,,,,,,1981.952,1.2,1983.152,1983.152,1983.501,left,1,0.342,,1983.502,1984.501,4,2,34,1,1,total,1,images/Ex5.jpg,left,training,easy,3,,,,,
,,,,,5f262b3018c68e27aebdd170,001,,,,,2024-02-26_16h26.16.218,CRL1e,2023.2.3,MacIntel,58.82352941,65dbad3905fde4fe1981dc61,65dcba485744a02a9046a211,,,,,,,,,,,1984.502,1.1,1985.602,1985.602,1985.868,right,1,0.26,,1985.868,1986.868,4,3,35,4,1,total,1,images/Ex7.jpg,right,training,easy,3,,,,,
,,,,,5f262b3018c68e27aebdd170,001,,,,,2024-02-26_16h26.16.218,CRL1e,2023.2.3,MacIntel,58.82352941,65dbad3905fde4fe1981dc61,65dcba485744a02a9046a211,,,,,,,,,,,1986.869,1.1,1987.969,1987.969,1988.251,left,0,0.273,,1988.251,1989.251,4,4,36,5,1,total,1,images/Ex7.jpg,right,training,easy,3,,,,,
,,,,,5f262b3018c68e27aebdd170,001,,,,,2024-02-26_16h26.16.218,CRL1e,2023.2.3,MacIntel,58.82352941,65dbad3905fde4fe1981dc61,65dcba485744a02a9046a211,,,,,,,,,,,1989.252,1.3,1990.552,1990.552,1990.818,right,0,0.255,,1990.818,1991.818,4,5,37,3,1,total,1,images/Ex6.jpg,left,training,easy,3,,,,,
,,,,,5f262b3018c68e27aebdd170,001,,,,,2024-02-26_16h26.16.218,CRL1e,2023.2.3,MacIntel,58.82352941,65dbad3905fde4fe1981dc61,65dcba485744a02a9046a211,,,,,,,,,,,1991.819,1.3,1993.119,1993.119,1993.486,right,0,0.354,,1993.486,1994.485,4,6,38,0,1,total,1,images/Ex5.jpg,left,training,easy,3,,,,,
,,,,,5f262b3018c68e27aebdd170,001,,,,,2024-02-26_16h26.16.218,CRL1e,2023.2.3,MacIntel,58.82352941,65dbad3905fde4fe1981dc61,65dcba485744a02a9046a211,,,,,,,,,,,1994.486,1.1,1995.585,1995.585,1995.885,left,1,0.289,,1995.885,1996.885,4,7,39,2,1,total,1,images/Ex6.jpg,left,training,easy,3,,,,,
,,,,,5f262b3018c68e27aebdd170,001,,,,,2024-02-26_16h26.16.218,CRL1e,2023.2.3,MacIntel,58.82352941,65dbad3905fde4fe1981dc61,65dcba485744a02a9046a211,,,,,,,,,,,1996.886,1.2,1998.085,1998.085,1998.535,right,0,0.443,,1998.535,1999.535,5,0,40,2,1,total,1,images/Ex6.jpg,left,training,easy,3,,,,,
,,,,,5f262b3018c68e27aebdd170,001,,,,,2024-02-26_16h26.16.218,CRL1e,2023.2.3,MacIntel,58.82352941,65dbad3905fde4fe1981dc61,65dcba485744a02a9046a211,,,,,,,,,,,1999.535,0.7,2000.235,2000.235,2000.568,left,0,0.328,,2000.568,2001.568,5,1,41,4,1,total,1,images/Ex7.jpg,right,training,easy,3,,,,,
,,,,,5f262b3018c68e27aebdd170,001,,,,,2024-02-26_16h26.16.218,CRL1e,2023.2.3,MacIntel,58.82352941,65dbad3905fde4fe1981dc61,65dcba485744a02a9046a211,,,,,,,,,,,2001.569,0.6,2002.169,2002.169,2002.484,left,0,0.305,,2002.485,2003.485,5,2,42,5,1,total,1,images/Ex7.jpg,right,training,easy,3,,,,,
,,,,,5f262b3018c68e27aebdd170,001,,,,,2024-02-26_16h26.16.218,CRL1e,2023.2.3,MacIntel,58.82352941,65dbad3905fde4fe1981dc61,65dcba485744a02a9046a211,,,,,,,,,,,2003.486,1,2004.485,2004.486,2004.785,right,0,0.288,,2004.785,2005.785,5,3,43,1,1,total,1,images/Ex5.jpg,left,training,easy,3,,,,,
,,,,,5f262b3018c68e27aebdd170,001,,,,,2024-02-26_16h26.16.218,CRL1e,2023.2.3,MacIntel,58.82352941,65dbad3905fde4fe1981dc61,65dcba485744a02a9046a211,,,,,,,,,,,2005.786,0.6,2006.385,2006.385,2006.652,left,0,0.255,,2006.652,2007.651,5,4,44,7,1,total,1,images/Ex8.jpg,right,training,easy,3,,,,,
,,,,,5f262b3018c68e27aebdd170,001,,,,,2024-02-26_16h26.16.218,CRL1e,2023.2.3,MacIntel,58.82352941,65dbad3905fde4fe1981dc61,65dcba485744a02a9046a211,,,,,,,,,,,2007.652,1,2008.656,2008.656,2008.668,right,0,0.011,,2008.668,2009.668,5,5,45,3,1,total,1,images/Ex6.jpg,left,training,easy,3,,,,,
,,,,,5f262b3018c68e27aebdd170,001,,,,,2024-02-26_16h26.16.218,CRL1e,2023.2.3,MacIntel,58.82352941,65dbad3905fde4fe1981dc61,65dcba485744a02a9046a211,,,,,,,,,,,2009.669,1.2,2010.868,2010.868,2011.484,left,0,0.606,,2011.484,2012.485,5,6,46,6,1,total,1,images/Ex8.jpg,right,training,easy,3,,,,,
,,,,,5f262b3018c68e27aebdd170,001,,,,,2024-02-26_16h26.16.218,CRL1e,2023.2.3,MacIntel,58.82352941,65dbad3905fde4fe1981dc61,65dcba485744a02a9046a211,,,,,,,,,,,2012.486,1.3,2013.786,2013.786,2013.834,left,1,0.042,,2013.834,2014.835,5,7,47,0,1,total,1,images/Ex5.jpg,left,training,easy,3,,,,,
,,,,,5f262b3018c68e27aebdd170,001,,,,,2024-02-26_16h26.16.218,CRL1e,2023.2.3,MacIntel,58.82352941,65dbad3905fde4fe1981dc61,65dcba485744a02a9046a211,,,,,,,,,,,2014.842,0.8,2015.636,2015.636,2016.002,left,0,0.354,,2016.002,2017.002,0,0,0,3,1,total,2,images/Ex6.jpg,right,reversed,easy,3,,,,,
,,,,,5f262b3018c68e27aebdd170,001,,,,,2024-02-26_16h26.16.218,CRL1e,2023.2.3,MacIntel,58.82352941,65dbad3905fde4fe1981dc61,65dcba485744a02a9046a211,,,,,,,,,,,2017.003,1.4,2018.402,2018.402,2018.719,right,0,0.304,,2018.719,2019.718,0,1,1,4,1,total,2,images/Ex7.jpg,left,reversed,easy,3,,,,,
,,,,,5f262b3018c68e27aebdd170,001,,,,,2024-02-26_16h26.16.218,CRL1e,2023.2.3,MacIntel,58.82352941,65dbad3905fde4fe1981dc61,65dcba485744a02a9046a211,,,,,,,,,,,2019.719,1.1,2020.819,2020.819,2021.152,left,1,0.325,,2021.152,2022.152,0,2,2,6,1,total,2,images/Ex8.jpg,left,reversed,easy,3,,,,,
,,,,,5f262b3018c68e27aebdd170,001,,,,,2024-02-26_16h26.16.218,CRL1e,2023.2.3,MacIntel,58.82352941,65dbad3905fde4fe1981dc61,65dcba485744a02a9046a211,,,,,,,,,,,2022.153,0.8,2022.952,2022.952,2023.086,left,0,0.121,,2023.086,2024.085,0,3,3,0,1,total,2,images/Ex5.jpg,right,reversed,easy,3,,,,,
,,,,,5f262b3018c68e27aebdd170,001,,,,,2024-02-26_16h26.16.218,CRL1e,2023.2.3,MacIntel,58.82352941,65dbad3905fde4fe1981dc61,65dcba485744a02a9046a211,,,,,,,,,,,2024.086,1.3,2025.386,2025.386,2025.669,right,0,0.271,,2025.669,2026.669,0,4,4,5,1,total,2,images/Ex7.jpg,left,reversed,easy,3,,,,,
,,,,,5f262b3018c68e27aebdd170,001,,,,,2024-02-26_16h26.16.218,CRL1e,2023.2.3,MacIntel,58.82352941,65dbad3905fde4fe1981dc61,65dcba485744a02a9046a211,,,,,,,,,,,2026.67,0.9,2027.569,2027.569,2027.936,left,1,0.355,,2027.936,2028.935,0,5,5,7,1,total,2,images/Ex8.jpg,left,reversed,easy,3,,,,,
,,,,,5f262b3018c68e27aebdd170,001,,,,,2024-02-26_16h26.16.218,CRL1e,2023.2.3,MacIntel,58.82352941,65dbad3905fde4fe1981dc61,65dcba485744a02a9046a211,,,,,,,,,,,2028.936,0.7,2029.636,2029.636,2029.986,left,0,0.339,,2029.986,2030.986,0,6,6,1,1,total,2,images/Ex5.jpg,right,reversed,easy,3,,,,,
,,,,,5f262b3018c68e27aebdd170,001,,,,,2024-02-26_16h26.16.218,CRL1e,2023.2.3,MacIntel,58.82352941,65dbad3905fde4fe1981dc61,65dcba485744a02a9046a211,,,,,,,,,,,2030.987,0.6,2031.585,2031.585,2031.902,right,1,0.312,,2031.902,2032.903,0,7,7,2,1,total,2,images/Ex6.jpg,right,reversed,easy,3,,,,,
,,,,,5f262b3018c68e27aebdd170,001,,,,,2024-02-26_16h26.16.218,CRL1e,2023.2.3,MacIntel,58.82352941,65dbad3905fde4fe1981dc61,65dcba485744a02a9046a211,,,,,,,,,,,2032.903,0.7,2033.602,2033.603,2034.086,left,1,0.476,,2034.086,2035.086,1,0,8,6,1,total,2,images/Ex8.jpg,left,reversed,easy,3,,,,,
,,,,,5f262b3018c68e27aebdd170,001,,,,,2024-02-26_16h26.16.218,CRL1e,2023.2.3,MacIntel,58.82352941,65dbad3905fde4fe1981dc61,65dcba485744a02a9046a211,,,,,,,,,,,2035.086,1,2036.243,2036.243,2036.836,right,1,0.588,,2036.836,2037.836,1,1,9,1,1,total,2,images/Ex5.jpg,right,reversed,easy,3,,,,,
,,,,,5f262b3018c68e27aebdd170,001,,,,,2024-02-26_16h26.16.218,CRL1e,2023.2.3,MacIntel,58.82352941,65dbad3905fde4fe1981dc61,65dcba485744a02a9046a211,,,,,,,,,,,2037.837,1.4,2039.236,2039.236,2039.553,right,1,0.305,,2039.553,2040.553,1,2,10,0,1,total,2,images/Ex5.jpg,right,reversed,easy,3,,,,,
,,,,,5f262b3018c68e27aebdd170,001,,,,,2024-02-26_16h26.16.218,CRL1e,2023.2.3,MacIntel,58.82352941,65dbad3905fde4fe1981dc61,65dcba485744a02a9046a211,,,,,,,,,,,2040.553,1.1,2041.652,2041.652,2041.986,right,1,0.322,,2041.986,2042.986,1,3,11,3,1,total,2,images/Ex6.jpg,right,reversed,easy,3,,,,,
,,,,,5f262b3018c68e27aebdd170,001,,,,,2024-02-26_16h26.16.218,CRL1e,2023.2.3,MacIntel,58.82352941,65dbad3905fde4fe1981dc61,65dcba485744a02a9046a211,,,,,,,,,,,2042.987,1,2043.986,2043.986,2044.236,left,1,0.239,,2044.236,2045.236,1,4,12,4,1,total,2,images/Ex7.jpg,left,reversed,easy,3,,,,,
,,,,,5f262b3018c68e27aebdd170,001,,,,,2024-02-26_16h26.16.218,CRL1e,2023.2.3,MacIntel,58.82352941,65dbad3905fde4fe1981dc61,65dcba485744a02a9046a211,,,,,,,,,,,2045.237,0.5,2045.736,2045.736,2046.436,left,0,0.689,,2046.436,2047.437,1,5,13,2,1,total,2,images/Ex6.jpg,right,reversed,easy,3,,,,,
,,,,,5f262b3018c68e27aebdd170,001,,,,,2024-02-26_16h26.16.218,CRL1e,2023.2.3,MacIntel,58.82352941,65dbad3905fde4fe1981dc61,65dcba485744a02a9046a211,,,,,,,,,,,2047.437,1.5,2048.936,2048.936,2049.203,right,0,0.256,,2049.203,2050.203,1,6,14,7,1,total,2,images/Ex8.jpg,left,reversed,easy,3,,,,,
,,,,,5f262b3018c68e27aebdd170,001,,,,,2024-02-26_16h26.16.218,CRL1e,2023.2.3,MacIntel,58.82352941,65dbad3905fde4fe1981dc61,65dcba485744a02a9046a211,,,,,,,,,,,2050.203,1.3,2051.503,2051.503,2052.436,left,1,0.922,,2052.436,2053.436,1,7,15,5,1,total,2,images/Ex7.jpg,left,reversed,easy,3,,,,,
,,,,,5f262b3018c68e27aebdd170,001,,,,,2024-02-26_16h26.16.218,CRL1e,2023.2.3,MacIntel,58.82352941,65dbad3905fde4fe1981dc61,65dcba485744a02a9046a211,,,,,,,,,,,2053.437,0.8,2054.236,2054.236,2055.055,right,0,0.804,,2055.055,2056.053,2,0,16,7,1,total,2,images/Ex8.jpg,left,reversed,easy,3,,,,,
,,,,,5f262b3018c68e27aebdd170,001,,,,,2024-02-26_16h26.16.218,CRL1e,2023.2.3,MacIntel,58.82352941,65dbad3905fde4fe1981dc61,65dcba485744a02a9046a211,,,,,,,,,,,2056.054,0.7,2056.752,2056.752,2058.219,left,0,1.455,,2058.219,2059.22,2,1,17,0,1,total,2,images/Ex5.jpg,right,reversed,easy,3,,,,,
,,,,,5f262b3018c68e27aebdd170,001,,,,,2024-02-26_16h26.16.218,CRL1e,2023.2.3,MacIntel,58.82352941,65dbad3905fde4fe1981dc61,65dcba485744a02a9046a211,,,,,,,,,,,2059.22,1,2060.22,2060.22,2062.52,right,0,2.289,,2062.52,2063.52,2,2,18,4,1,total,2,images/Ex7.jpg,left,reversed,easy,3,,,,,
,,,,,5f262b3018c68e27aebdd170,001,,,,,2024-02-26_16h26.16.218,CRL1e,2023.2.3,MacIntel,58.82352941,65dbad3905fde4fe1981dc61,65dcba485744a02a9046a211,,,,,,,,,,,2063.52,1,2064.525,2064.525,2066.253,left,0,1.722,,2066.253,2067.253,2,3,19,2,1,total,2,images/Ex6.jpg,right,reversed,easy,3,,,,,
,,,,,5f262b3018c68e27aebdd170,001,,,,,2024-02-26_16h26.16.218,CRL1e,2023.2.3,MacIntel,58.82352941,65dbad3905fde4fe1981dc61,65dcba485744a02a9046a211,,,,,,,,,,,2067.254,1.2,2068.453,2068.453,2070.72,right,1,2.256,,2070.72,2071.72,2,4,20,3,1,total,2,images/Ex6.jpg,right,reversed,easy,3,,,,,
,,,,,5f262b3018c68e27aebdd170,001,,,,,2024-02-26_16h26.16.218,CRL1e,2023.2.3,MacIntel,58.82352941,65dbad3905fde4fe1981dc61,65dcba485744a02a9046a211,,,,,,,,,,,2071.72,1.1,2072.82,2072.82,2073.44,right,0,0.605,,2073.44,2074.437,2,5,21,6,1,total,2,images/Ex8.jpg,left,reversed,easy,3,,,,,
,,,,,5f262b3018c68e27aebdd170,001,,,,,2024-02-26_16h26.16.218,CRL1e,2023.2.3,MacIntel,58.82352941,65dbad3905fde4fe1981dc61,65dcba485744a02a9046a211,,,,,,,,,,,2074.437,1.1,2075.537,2075.537,2077.67,left,1,2.13,,2077.67,2078.674,2,6,22,5,1,total,2,images/Ex7.jpg,left,reversed,easy,3,,,,,
,,,,,5f262b3018c68e27aebdd170,001,,,,,2024-02-26_16h26.16.218,CRL1e,2023.2.3,MacIntel,58.82352941,65dbad3905fde4fe1981dc61,65dcba485744a02a9046a211,,,,,,,,,,,2078.675,1,2079.67,2079.67,2080.003,left,0,0.322,,2080.003,2081.003,2,7,23,1,1,total,2,images/Ex5.jpg,right,reversed,easy,3,,,,,
,,,,,5f262b3018c68e27aebdd170,001,,,,,2024-02-26_16h26.16.218,CRL1e,2023.2.3,MacIntel,58.82352941,65dbad3905fde4fe1981dc61,65dcba485744a02a9046a211,,,,,,,,,,,2081.004,1.5,2082.503,2082.504,2082.737,right,1,0.227,,2082.737,2083.737,3,0,24,1,1,total,2,images/Ex5.jpg,right,reversed,easy,3,,,,,
,,,,,5f262b3018c68e27aebdd170,001,,,,,2024-02-26_16h26.16.218,CRL1e,2023.2.3,MacIntel,58.82352941,65dbad3905fde4fe1981dc61,65dcba485744a02a9046a211,,,,,,,,,,,2083.737,1.4,2085.136,2085.136,2085.82,left,1,0.681,,2085.82,2086.82,3,1,25,7,1,total,2,images/Ex8.jpg,left,reversed,easy,3,,,,,
,,,,,5f262b3018c68e27aebdd170,001,,,,,2024-02-26_16h26.16.218,CRL1e,2023.2.3,MacIntel,58.82352941,65dbad3905fde4fe1981dc61,65dcba485744a02a9046a211,,,,,,,,,,,2086.821,1.1,2087.925,2087.925,2088.286,left,0,0.352,,2088.286,2089.287,3,2,26,0,1,total,2,images/Ex5.jpg,right,reversed,easy,3,,,,,
,,,,,5f262b3018c68e27aebdd170,001,,,,,2024-02-26_16h26.16.218,CRL1e,2023.2.3,MacIntel,58.82352941,65dbad3905fde4fe1981dc61,65dcba485744a02a9046a211,,,,,,,,,,,2089.288,0.7,2089.986,2089.986,2090.754,right,0,0.756,,2090.754,2091.757,3,3,27,5,1,total,2,images/Ex7.jpg,left,reversed,easy,3,,,,,
,,,,,5f262b3018c68e27aebdd170,001,,,,,2024-02-26_16h26.16.218,CRL1e,2023.2.3,MacIntel,58.82352941,65dbad3905fde4fe1981dc61,65dcba485744a02a9046a211,,,,,,,,,,,2091.757,1.5,2093.252,2093.252,2094.004,left,0,0.739,,2094.004,2095.008,3,4,28,3,1,total,2,images/Ex6.jpg,right,reversed,easy,3,,,,,
,,,,,5f262b3018c68e27aebdd170,001,,,,,2024-02-26_16h26.16.218,CRL1e,2023.2.3,MacIntel,58.82352941,65dbad3905fde4fe1981dc61,65dcba485744a02a9046a211,,,,,,,,,,,2095.008,1.4,2096.404,2096.404,2096.837,right,1,0.423,,2096.837,2097.837,3,5,29,2,1,total,2,images/Ex6.jpg,right,reversed,easy,3,,,,,
,,,,,5f262b3018c68e27aebdd170,001,,,,,2024-02-26_16h26.16.218,CRL1e,2023.2.3,MacIntel,58.82352941,65dbad3905fde4fe1981dc61,65dcba485744a02a9046a211,,,,,,,,,,,2097.838,0.7,2098.537,2098.537,2099.17,left,1,0.621,,2099.17,2100.17,3,6,30,6,1,total,2,images/Ex8.jpg,left,reversed,easy,3,,,,,
,,,,,5f262b3018c68e27aebdd170,001,,,,,2024-02-26_16h26.16.218,CRL1e,2023.2.3,MacIntel,58.82352941,65dbad3905fde4fe1981dc61,65dcba485744a02a9046a211,,,,,,,,,,,2100.17,1.3,2101.473,2101.473,2101.987,left,1,0.502,,2101.987,2102.989,3,7,31,4,1,total,2,images/Ex7.jpg,left,reversed,easy,3,,,,,
,,,,,5f262b3018c68e27aebdd170,001,,,,,2024-02-26_16h26.16.218,CRL1e,2023.2.3,MacIntel,58.82352941,65dbad3905fde4fe1981dc61,65dcba485744a02a9046a211,,,,,,,,,,,2102.99,1.3,2104.287,2104.287,2105.037,right,0,0.741,,2105.037,2106.036,4,0,32,5,1,total,2,images/Ex7.jpg,left,reversed,easy,3,,,,,
,,,,,5f262b3018c68e27aebdd170,001,,,,,2024-02-26_16h26.16.218,CRL1e,2023.2.3,MacIntel,58.82352941,65dbad3905fde4fe1981dc61,65dcba485744a02a9046a211,,,,,,,,,,,2106.037,1.2,2107.23,2107.23,2108.07,left,1,0.829,,2108.071,2109.07,4,1,33,6,1,total,2,images/Ex8.jpg,left,reversed,easy,3,,,,,
,,,,,5f262b3018c68e27aebdd170,001,,,,,2024-02-26_16h26.16.218,CRL1e,2023.2.3,MacIntel,58.82352941,65dbad3905fde4fe1981dc61,65dcba485744a02a9046a211,,,,,,,,,,,2109.071,1.1,2110.171,2110.171,2110.57,right,1,0.389,,2110.57,2111.57,4,2,34,2,1,total,2,images/Ex6.jpg,right,reversed,easy,3,,,,,
,,,,,5f262b3018c68e27aebdd170,001,,,,,2024-02-26_16h26.16.218,CRL1e,2023.2.3,MacIntel,58.82352941,65dbad3905fde4fe1981dc61,65dcba485744a02a9046a211,,,,,,,,,,,2111.571,1.1,2112.67,2112.671,2113.071,left,1,0.39,,2113.071,2114.071,4,3,35,7,1,total,2,images/Ex8.jpg,left,reversed,easy,3,,,,,
,,,,,5f262b3018c68e27aebdd170,001,,,,,2024-02-26_16h26.16.218,CRL1e,2023.2.3,MacIntel,58.82352941,65dbad3905fde4fe1981dc61,65dcba485744a02a9046a211,,,,,,,,,,,2114.071,0.8,2114.871,2114.871,2115.571,right,1,0.688,,2115.571,2116.57,4,4,36,1,1,total,2,images/Ex5.jpg,right,reversed,easy,3,,,,,
,,,,,5f262b3018c68e27aebdd170,001,,,,,2024-02-26_16h26.16.218,CRL1e,2023.2.3,MacIntel,58.82352941,65dbad3905fde4fe1981dc61,65dcba485744a02a9046a211,,,,,,,,,,,2116.571,1.3,2117.872,2117.872,2118.138,left,0,0.256,,2118.138,2119.137,4,5,37,0,1,total,2,images/Ex5.jpg,right,reversed,easy,3,,,,,
,,,,,5f262b3018c68e27aebdd170,001,,,,,2024-02-26_16h26.16.218,CRL1e,2023.2.3,MacIntel,58.82352941,65dbad3905fde4fe1981dc61,65dcba485744a02a9046a211,,,,,,,,,,,2119.138,0.9,2120.039,2120.039,2121.171,right,1,1.124,,2121.171,2122.171,4,6,38,3,1,total,2,images/Ex6.jpg,right,reversed,easy,3,,,,,
,,,,,5f262b3018c68e27aebdd170,001,,,,,2024-02-26_16h26.16.218,CRL1e,2023.2.3,MacIntel,58.82352941,65dbad3905fde4fe1981dc61,65dcba485744a02a9046a211,,,,,,,,,,,2122.171,0.5,2122.671,2122.671,2124.021,right,0,1.346,,2124.021,2125.021,4,7,39,4,1,total,2,images/Ex7.jpg,left,reversed,easy,3,,,,,
,,,,,5f262b3018c68e27aebdd170,001,,,,,2024-02-26_16h26.16.218,CRL1e,2023.2.3,MacIntel,58.82352941,65dbad3905fde4fe1981dc61,65dcba485744a02a9046a211,,,,,,,,,,,2125.021,0.6,2125.62,2125.62,2127.655,left,0,2.022,,2127.655,2128.654,5,0,40,1,1,total,2,images/Ex5.jpg,right,reversed,easy,3,,,,,
,,,,,5f262b3018c68e27aebdd170,001,,,,,2024-02-26_16h26.16.218,CRL1e,2023.2.3,MacIntel,58.82352941,65dbad3905fde4fe1981dc61,65dcba485744a02a9046a211,,,,,,,,,,,2128.655,0.6,2129.254,2129.254,2129.854,left,0,0.589,,2129.854,2130.854,5,1,41,0,1,total,2,images/Ex5.jpg,right,reversed,easy,3,,,,,
,,,,,5f262b3018c68e27aebdd170,001,,,,,2024-02-26_16h26.16.218,CRL1e,2023.2.3,MacIntel,58.82352941,65dbad3905fde4fe1981dc61,65dcba485744a02a9046a211,,,,,,,,,,,2130.855,1.2,2132.054,2132.054,2132.62,right,1,0.555,,2132.62,2133.621,5,2,42,3,1,total,2,images/Ex6.jpg,right,reversed,easy,3,,,,,
,,,,,5f262b3018c68e27aebdd170,001,,,,,2024-02-26_16h26.16.218,CRL1e,2023.2.3,MacIntel,58.82352941,65dbad3905fde4fe1981dc61,65dcba485744a02a9046a211,,,,,,,,,,,2133.621,0.7,2134.321,2134.321,2136.088,left,1,1.754,,2136.088,2137.088,5,3,43,7,1,total,2,images/Ex8.jpg,left,reversed,easy,3,,,,,
,,,,,5f262b3018c68e27aebdd170,001,,,,,2024-02-26_16h26.16.218,CRL1e,2023.2.3,MacIntel,58.82352941,65dbad3905fde4fe1981dc61,65dcba485744a02a9046a211,,,,,,,,,,,2137.088,1.3,2138.388,2138.388,2139.021,right,1,0.622,,2139.021,2140.021,5,4,44,2,1,total,2,images/Ex6.jpg,right,reversed,easy,3,,,,,
,,,,,5f262b3018c68e27aebdd170,001,,,,,2024-02-26_16h26.16.218,CRL1e,2023.2.3,MacIntel,58.82352941,65dbad3905fde4fe1981dc61,65dcba485744a02a9046a211,,,,,,,,,,,2140.022,1,2141.021,2141.021,2142.638,left,1,1.607,,2142.638,2143.638,5,5,45,4,1,total,2,images/Ex7.jpg,left,reversed,easy,3,,,,,
,,,,,5f262b3018c68e27aebdd170,001,,,,,2024-02-26_16h26.16.218,CRL1e,2023.2.3,MacIntel,58.82352941,65dbad3905fde4fe1981dc61,65dcba485744a02a9046a211,,,,,,,,,,,2143.639,0.5,2144.138,2144.138,2144.688,right,0,0.542,,2144.688,2145.687,5,6,46,6,1,total,2,images/Ex8.jpg,left,reversed,easy,3,,,,,
,,,,,5f262b3018c68e27aebdd170,001,,,,,2024-02-26_16h26.16.218,CRL1e,2023.2.3,MacIntel,58.82352941,65dbad3905fde4fe1981dc61,65dcba485744a02a9046a211,,,,,,,,,,,2145.688,1.2,2146.887,2146.887,2147.955,right,0,1.055,,2147.955,2150.284,5,7,47,5,1,total,2,images/Ex7.jpg,left,reversed,easy,3,,,,,
,,,,,5f262b3018c68e27aebdd170,001,,,,,2024-02-26_16h26.16.218,CRL1e,2023.2.3,MacIntel,58.82352941,65dbad3905fde4fe1981dc61,65dcba485744a02a9046a211,,,,,,,,,,,,,,,,,,,,,,,,,,,,,,,,,,2150.286,2164.573,space,14.255,