infCons.started,infCons.stopped,resp_consent.keys,resp_consent.rt,resp_consent.duration,participant,session,Age?,Gender?,Nationality?,Highest Educational Degree?,date,expName,psychopyVersion,OS,frameRate,STUDY_ID,SESSION_ID,instructions.started,instructions.stopped,resp_instructions.keys,resp_instructions.rt,resp_instructions.duration,nextTask.started,nextTask.stopped,ready_task.keys,ready_task.rt,ready_task.duration,fixation.started,ITI,fixation.stopped,stim.started,stim.stopped,response.keys,response.corr,response.rt,response.duration,feedback.started,feedback.stopped,trials.thisRepN,trials.thisTrialN,trials.thisN,trials.thisIndex,trials.ran,task,phase,Exemplars,r_correct,condition,difficulty,set,end.started,end.stopped,resp_end.keys,resp_end.rt,resp_end.duration
0.0002,3.8671,space,3.8361,,60723c224e9193e5d5fe5712,001,32,non binary,italian,some university no degree,2024-02-26_16h20.55.391,CRL1e,2023.2.3,Win32,59.88023952,65dbad3905fde4fe1981dc61,65dcba491eb656fe97f90d76,,,,,,,,,,,,,,,,,,,,,,,,,,,,,,,,,,,,,,
,,,,,60723c224e9193e5d5fe5712,001,32,non binary,italian,some university no degree,2024-02-26_16h20.55.391,CRL1e,2023.2.3,Win32,59.88023952,65dbad3905fde4fe1981dc61,65dcba491eb656fe97f90d76,3.8674,13.8344,space,9.9554,,,,,,,,,,,,,,,,,,,,,,,,,,,,,,,,,,
,,,,,60723c224e9193e5d5fe5712,001,32,non binary,italian,some university no degree,2024-02-26_16h20.55.391,CRL1e,2023.2.3,Win32,59.88023952,65dbad3905fde4fe1981dc61,65dcba491eb656fe97f90d76,,,,,,13.8375,17.6006,space,3.7541,,17.6042,0.8,18.4007,18.4009,20.5347,left,1,2.1217,,20.5349,21.5343,0,0,0,1,1,partial,1,images/Ex1.jpg,left,training,easy,3,,,,,
,,,,,60723c224e9193e5d5fe5712,001,32,non binary,italian,some university no degree,2024-02-26_16h20.55.391,CRL1e,2023.2.3,Win32,59.88023952,65dbad3905fde4fe1981dc61,65dcba491eb656fe97f90d76,,,,,,,,,,,21.5351,0.8,22.3339,22.334,23.3844,left,0,1.0451,,23.3845,24.384,0,1,1,7,1,partial,1,images/Ex4.jpg,right,training,easy,3,,,,,
,,,,,60723c224e9193e5d5fe5712,001,32,non binary,italian,some university no degree,2024-02-26_16h20.55.391,CRL1e,2023.2.3,Win32,59.88023952,65dbad3905fde4fe1981dc61,65dcba491eb656fe97f90d76,,,,,,,,,,,24.3845,1,25.3842,25.3842,26.3677,right,0,0.9784,,26.3677,27.3673,0,2,2,3,1,partial,1,images/Ex2.jpg,left,training,easy,3,,,,,
,,,,,60723c224e9193e5d5fe5712,001,32,non binary,italian,some university no degree,2024-02-26_16h20.55.391,CRL1e,2023.2.3,Win32,59.88023952,65dbad3905fde4fe1981dc61,65dcba491eb656fe97f90d76,,,,,,,,,,,27.3677,1.2,28.5677,28.5677,29.301,left,1,0.7246,,29.301,30.3007,0,3,3,0,1,partial,1,images/Ex1.jpg,left,training,easy,3,,,,,
,,,,,60723c224e9193e5d5fe5712,001,32,non binary,italian,some university no degree,2024-02-26_16h20.55.391,CRL1e,2023.2.3,Win32,59.88023952,65dbad3905fde4fe1981dc61,65dcba491eb656fe97f90d76,,,,,,,,,,,30.3011,1,31.3007,31.3008,31.9007,right,0,0.5968,,31.9008,32.9008,0,4,4,2,1,partial,1,images/Ex2.jpg,left,training,easy,3,,,,,
,,,,,60723c224e9193e5d5fe5712,001,32,non binary,italian,some university no degree,2024-02-26_16h20.55.391,CRL1e,2023.2.3,Win32,59.88023952,65dbad3905fde4fe1981dc61,65dcba491eb656fe97f90d76,,,,,,,,,,,32.9012,1.1,34.0006,34.0006,34.6507,left,0,0.6441,,34.6507,35.6507,0,5,5,6,1,partial,1,images/Ex4.jpg,right,training,easy,3,,,,,
,,,,,60723c224e9193e5d5fe5712,001,32,non binary,italian,some university no degree,2024-02-26_16h20.55.391,CRL1e,2023.2.3,Win32,59.88023952,65dbad3905fde4fe1981dc61,65dcba491eb656fe97f90d76,,,,,,,,,,,35.6511,1.2,36.8508,36.8508,37.901,left,0,1.0382,,37.9011,38.9009,0,6,6,5,1,partial,1,images/Ex3.jpg,right,training,easy,3,,,,,
,,,,,60723c224e9193e5d5fe5712,001,32,non binary,italian,some university no degree,2024-02-26_16h20.55.391,CRL1e,2023.2.3,Win32,59.88023952,65dbad3905fde4fe1981dc61,65dcba491eb656fe97f90d76,,,,,,,,,,,38.9012,1.3,40.2009,40.2009,41.0509,right,1,0.8387,,41.051,42.0508,0,7,7,4,1,partial,1,images/Ex3.jpg,right,training,easy,3,,,,,
,,,,,60723c224e9193e5d5fe5712,001,32,non binary,italian,some university no degree,2024-02-26_16h20.55.391,CRL1e,2023.2.3,Win32,59.88023952,65dbad3905fde4fe1981dc61,65dcba491eb656fe97f90d76,,,,,,,,,,,42.051,1,43.0509,43.0509,43.7342,right,1,0.6718,,43.7342,44.7346,1,0,8,4,1,partial,1,images/Ex3.jpg,right,training,easy,3,,,,,
,,,,,60723c224e9193e5d5fe5712,001,32,non binary,italian,some university no degree,2024-02-26_16h20.55.391,CRL1e,2023.2.3,Win32,59.88023952,65dbad3905fde4fe1981dc61,65dcba491eb656fe97f90d76,,,,,,,,,,,44.735,1,45.7345,45.7345,46.8009,right,1,1.0602,,46.8009,47.8012,1,1,9,6,1,partial,1,images/Ex4.jpg,right,training,easy,3,,,,,
,,,,,60723c224e9193e5d5fe5712,001,32,non binary,italian,some university no degree,2024-02-26_16h20.55.391,CRL1e,2023.2.3,Win32,59.88023952,65dbad3905fde4fe1981dc61,65dcba491eb656fe97f90d76,,,,,,,,,,,47.8016,1.1,48.9009,48.901,49.9011,right,0,0.9887,,49.9012,50.901,1,2,10,3,1,partial,1,images/Ex2.jpg,left,training,easy,3,,,,,
,,,,,60723c224e9193e5d5fe5712,001,32,non binary,italian,some university no degree,2024-02-26_16h20.55.391,CRL1e,2023.2.3,Win32,59.88023952,65dbad3905fde4fe1981dc61,65dcba491eb656fe97f90d76,,,,,,,,,,,50.9013,1.4,52.301,52.301,53.0847,left,1,0.7723,,53.0847,54.0847,1,3,11,2,1,partial,1,images/Ex2.jpg,left,training,easy,3,,,,,
,,,,,60723c224e9193e5d5fe5712,001,32,non binary,italian,some university no degree,2024-02-26_16h20.55.391,CRL1e,2023.2.3,Win32,59.88023952,65dbad3905fde4fe1981dc61,65dcba491eb656fe97f90d76,,,,,,,,,,,54.085,0.8,54.8846,54.8846,55.7845,right,1,0.8909,,55.7846,56.7845,1,4,12,5,1,partial,1,images/Ex3.jpg,right,training,easy,3,,,,,
,,,,,60723c224e9193e5d5fe5712,001,32,non binary,italian,some university no degree,2024-02-26_16h20.55.391,CRL1e,2023.2.3,Win32,59.88023952,65dbad3905fde4fe1981dc61,65dcba491eb656fe97f90d76,,,,,,,,,,,56.7848,1.5,58.2845,58.2845,58.7846,left,1,0.4947,,58.7846,59.7845,1,5,13,0,1,partial,1,images/Ex1.jpg,left,training,easy,3,,,,,
,,,,,60723c224e9193e5d5fe5712,001,32,non binary,italian,some university no degree,2024-02-26_16h20.55.391,CRL1e,2023.2.3,Win32,59.88023952,65dbad3905fde4fe1981dc61,65dcba491eb656fe97f90d76,,,,,,,,,,,59.7849,1,60.7848,60.7848,61.3179,left,1,0.5249,,61.3179,62.3182,1,6,14,1,1,partial,1,images/Ex1.jpg,left,training,easy,3,,,,,
,,,,,60723c224e9193e5d5fe5712,001,32,non binary,italian,some university no degree,2024-02-26_16h20.55.391,CRL1e,2023.2.3,Win32,59.88023952,65dbad3905fde4fe1981dc61,65dcba491eb656fe97f90d76,,,,,,,,,,,62.3185,0.8,63.1182,63.1182,64.3681,left,0,1.2384,,64.3681,65.3682,1,7,15,7,1,partial,1,images/Ex4.jpg,right,training,easy,3,,,,,
,,,,,60723c224e9193e5d5fe5712,001,32,non binary,italian,some university no degree,2024-02-26_16h20.55.391,CRL1e,2023.2.3,Win32,59.88023952,65dbad3905fde4fe1981dc61,65dcba491eb656fe97f90d76,,,,,,,,,,,65.3687,1.2,66.5683,66.5683,67.3517,right,1,0.7743,,67.3518,68.3516,2,0,16,4,1,partial,1,images/Ex3.jpg,right,training,easy,3,,,,,
,,,,,60723c224e9193e5d5fe5712,001,32,non binary,italian,some university no degree,2024-02-26_16h20.55.391,CRL1e,2023.2.3,Win32,59.88023952,65dbad3905fde4fe1981dc61,65dcba491eb656fe97f90d76,,,,,,,,,,,68.352,1,69.3514,69.3514,70.3515,right,1,0.9878,,70.3516,71.3516,2,1,17,6,1,partial,1,images/Ex4.jpg,right,training,easy,3,,,,,
,,,,,60723c224e9193e5d5fe5712,001,32,non binary,italian,some university no degree,2024-02-26_16h20.55.391,CRL1e,2023.2.3,Win32,59.88023952,65dbad3905fde4fe1981dc61,65dcba491eb656fe97f90d76,,,,,,,,,,,71.3519,0.9,72.2514,72.2514,73.2518,right,0,0.9887,,73.2518,74.2516,2,2,18,3,1,partial,1,images/Ex2.jpg,left,training,easy,3,,,,,
,,,,,60723c224e9193e5d5fe5712,001,32,non binary,italian,some university no degree,2024-02-26_16h20.55.391,CRL1e,2023.2.3,Win32,59.88023952,65dbad3905fde4fe1981dc61,65dcba491eb656fe97f90d76,,,,,,,,,,,74.2519,1.4,75.6516,75.6516,76.1349,left,1,0.4752,,76.1349,77.1351,2,3,19,0,1,partial,1,images/Ex1.jpg,left,training,easy,3,,,,,
,,,,,60723c224e9193e5d5fe5712,001,32,non binary,italian,some university no degree,2024-02-26_16h20.55.391,CRL1e,2023.2.3,Win32,59.88023952,65dbad3905fde4fe1981dc61,65dcba491eb656fe97f90d76,,,,,,,,,,,77.1354,0.7,77.835,77.8351,78.985,right,1,1.1393,,78.985,79.9849,2,4,20,7,1,partial,1,images/Ex4.jpg,right,training,easy,3,,,,,
,,,,,60723c224e9193e5d5fe5712,001,32,non binary,italian,some university no degree,2024-02-26_16h20.55.391,CRL1e,2023.2.3,Win32,59.88023952,65dbad3905fde4fe1981dc61,65dcba491eb656fe97f90d76,,,,,,,,,,,79.9852,1.5,81.4852,81.4852,82.0347,left,1,0.5481,,82.0347,83.035,2,5,21,2,1,partial,1,images/Ex2.jpg,left,training,easy,3,,,,,
,,,,,60723c224e9193e5d5fe5712,001,32,non binary,italian,some university no degree,2024-02-26_16h20.55.391,CRL1e,2023.2.3,Win32,59.88023952,65dbad3905fde4fe1981dc61,65dcba491eb656fe97f90d76,,,,,,,,,,,83.0352,0.8,83.8351,83.8351,84.7186,right,1,0.8714,,84.7187,85.7187,2,6,22,5,1,partial,1,images/Ex3.jpg,right,training,easy,3,,,,,
,,,,,60723c224e9193e5d5fe5712,001,32,non binary,italian,some university no degree,2024-02-26_16h20.55.391,CRL1e,2023.2.3,Win32,59.88023952,65dbad3905fde4fe1981dc61,65dcba491eb656fe97f90d76,,,,,,,,,,,85.7191,0.5,86.2181,86.2182,86.652,left,1,0.4218,,86.652,87.6519,2,7,23,1,1,partial,1,images/Ex1.jpg,left,training,easy,3,,,,,
,,,,,60723c224e9193e5d5fe5712,001,32,non binary,italian,some university no degree,2024-02-26_16h20.55.391,CRL1e,2023.2.3,Win32,59.88023952,65dbad3905fde4fe1981dc61,65dcba491eb656fe97f90d76,,,,,,,,,,,87.6523,1.5,89.1517,89.1517,90.4687,left,0,1.3149,,90.4687,91.4682,3,0,24,5,1,partial,1,images/Ex3.jpg,right,training,easy,3,,,,,
,,,,,60723c224e9193e5d5fe5712,001,32,non binary,italian,some university no degree,2024-02-26_16h20.55.391,CRL1e,2023.2.3,Win32,59.88023952,65dbad3905fde4fe1981dc61,65dcba491eb656fe97f90d76,,,,,,,,,,,91.4685,1,92.47,92.47,93.1351,right,1,0.6592,,93.1351,94.1351,3,1,25,4,1,partial,1,images/Ex3.jpg,right,training,easy,3,,,,,
,,,,,60723c224e9193e5d5fe5712,001,32,non binary,italian,some university no degree,2024-02-26_16h20.55.391,CRL1e,2023.2.3,Win32,59.88023952,65dbad3905fde4fe1981dc61,65dcba491eb656fe97f90d76,,,,,,,,,,,94.1354,1.5,95.6354,95.6354,96.5519,left,0,0.9082,,96.5519,97.552,3,2,26,6,1,partial,1,images/Ex4.jpg,right,training,easy,3,,,,,
,,,,,60723c224e9193e5d5fe5712,001,32,non binary,italian,some university no degree,2024-02-26_16h20.55.391,CRL1e,2023.2.3,Win32,59.88023952,65dbad3905fde4fe1981dc61,65dcba491eb656fe97f90d76,,,,,,,,,,,97.5524,1.1,98.652,98.6521,99.3018,left,1,0.6441,,99.3018,100.3021,3,3,27,1,1,partial,1,images/Ex1.jpg,left,training,easy,3,,,,,
,,,,,60723c224e9193e5d5fe5712,001,32,non binary,italian,some university no degree,2024-02-26_16h20.55.391,CRL1e,2023.2.3,Win32,59.88023952,65dbad3905fde4fe1981dc61,65dcba491eb656fe97f90d76,,,,,,,,,,,100.3024,0.6,100.902,100.902,101.5022,left,1,0.5943,,101.5023,102.5021,3,4,28,2,1,partial,1,images/Ex2.jpg,left,training,easy,3,,,,,
,,,,,60723c224e9193e5d5fe5712,001,32,non binary,italian,some university no degree,2024-02-26_16h20.55.391,CRL1e,2023.2.3,Win32,59.88023952,65dbad3905fde4fe1981dc61,65dcba491eb656fe97f90d76,,,,,,,,,,,102.5025,0.7,103.2022,103.2023,103.8352,right,1,0.629,,103.8352,104.8356,3,5,29,7,1,partial,1,images/Ex4.jpg,right,training,easy,3,,,,,
,,,,,60723c224e9193e5d5fe5712,001,32,non binary,italian,some university no degree,2024-02-26_16h20.55.391,CRL1e,2023.2.3,Win32,59.88023952,65dbad3905fde4fe1981dc61,65dcba491eb656fe97f90d76,,,,,,,,,,,104.8359,0.7,105.5355,105.5355,106.119,left,1,0.5722,,106.119,107.1189,3,6,30,0,1,partial,1,images/Ex1.jpg,left,training,easy,3,,,,,
,,,,,60723c224e9193e5d5fe5712,001,32,non binary,italian,some university no degree,2024-02-26_16h20.55.391,CRL1e,2023.2.3,Win32,59.88023952,65dbad3905fde4fe1981dc61,65dcba491eb656fe97f90d76,,,,,,,,,,,107.1192,0.8,107.9187,107.9187,108.4521,left,1,0.5296,,108.4521,109.4522,3,7,31,3,1,partial,1,images/Ex2.jpg,left,training,easy,3,,,,,
,,,,,60723c224e9193e5d5fe5712,001,32,non binary,italian,some university no degree,2024-02-26_16h20.55.391,CRL1e,2023.2.3,Win32,59.88023952,65dbad3905fde4fe1981dc61,65dcba491eb656fe97f90d76,,,,,,,,,,,109.4525,1.3,110.7523,110.7523,111.2021,left,1,0.4401,,111.2021,112.2022,4,0,32,3,1,partial,1,images/Ex2.jpg,left,training,easy,3,,,,,
,,,,,60723c224e9193e5d5fe5712,001,32,non binary,italian,some university no degree,2024-02-26_16h20.55.391,CRL1e,2023.2.3,Win32,59.88023952,65dbad3905fde4fe1981dc61,65dcba491eb656fe97f90d76,,,,,,,,,,,112.2026,0.8,113.0022,113.0022,113.6689,left,1,0.6592,,113.6689,114.669,4,1,33,1,1,partial,1,images/Ex1.jpg,left,training,easy,3,,,,,
,,,,,60723c224e9193e5d5fe5712,001,32,non binary,italian,some university no degree,2024-02-26_16h20.55.391,CRL1e,2023.2.3,Win32,59.88023952,65dbad3905fde4fe1981dc61,65dcba491eb656fe97f90d76,,,,,,,,,,,114.6693,1,115.669,115.669,116.2025,right,1,0.5238,,116.2025,117.2024,4,2,34,6,1,partial,1,images/Ex4.jpg,right,training,easy,3,,,,,
,,,,,60723c224e9193e5d5fe5712,001,32,non binary,italian,some university no degree,2024-02-26_16h20.55.391,CRL1e,2023.2.3,Win32,59.88023952,65dbad3905fde4fe1981dc61,65dcba491eb656fe97f90d76,,,,,,,,,,,117.2027,0.8,118.002,118.0021,118.5522,left,1,0.5404,,118.5522,119.5524,4,3,35,2,1,partial,1,images/Ex2.jpg,left,training,easy,3,,,,,
,,,,,60723c224e9193e5d5fe5712,001,32,non binary,italian,some university no degree,2024-02-26_16h20.55.391,CRL1e,2023.2.3,Win32,59.88023952,65dbad3905fde4fe1981dc61,65dcba491eb656fe97f90d76,,,,,,,,,,,119.5527,0.8,120.3522,120.3522,121.0522,right,1,0.6975,,121.0522,122.0525,4,4,36,7,1,partial,1,images/Ex4.jpg,right,training,easy,3,,,,,
,,,,,60723c224e9193e5d5fe5712,001,32,non binary,italian,some university no degree,2024-02-26_16h20.55.391,CRL1e,2023.2.3,Win32,59.88023952,65dbad3905fde4fe1981dc61,65dcba491eb656fe97f90d76,,,,,,,,,,,122.0528,0.6,122.6523,122.6523,123.3355,right,1,0.6729,,123.3356,124.3356,4,5,37,5,1,partial,1,images/Ex3.jpg,right,training,easy,3,,,,,
,,,,,60723c224e9193e5d5fe5712,001,32,non binary,italian,some university no degree,2024-02-26_16h20.55.391,CRL1e,2023.2.3,Win32,59.88023952,65dbad3905fde4fe1981dc61,65dcba491eb656fe97f90d76,,,,,,,,,,,124.3359,1.4,125.7354,125.7354,126.1524,left,0,0.4077,,126.1524,127.1524,4,6,38,4,1,partial,1,images/Ex3.jpg,right,training,easy,3,,,,,
,,,,,60723c224e9193e5d5fe5712,001,32,non binary,italian,some university no degree,2024-02-26_16h20.55.391,CRL1e,2023.2.3,Win32,59.88023952,65dbad3905fde4fe1981dc61,65dcba491eb656fe97f90d76,,,,,,,,,,,127.1526,0.9,128.0526,128.0526,128.6693,left,1,0.6052,,128.6693,129.6692,4,7,39,0,1,partial,1,images/Ex1.jpg,left,training,easy,3,,,,,
,,,,,60723c224e9193e5d5fe5712,001,32,non binary,italian,some university no degree,2024-02-26_16h20.55.391,CRL1e,2023.2.3,Win32,59.88023952,65dbad3905fde4fe1981dc61,65dcba491eb656fe97f90d76,,,,,,,,,,,129.6696,1.3,130.969,130.969,131.4192,left,1,0.4483,,131.4193,132.4189,5,0,40,3,1,partial,1,images/Ex2.jpg,left,training,easy,3,,,,,
,,,,,60723c224e9193e5d5fe5712,001,32,non binary,italian,some university no degree,2024-02-26_16h20.55.391,CRL1e,2023.2.3,Win32,59.88023952,65dbad3905fde4fe1981dc61,65dcba491eb656fe97f90d76,,,,,,,,,,,132.4192,0.8,133.2193,133.2193,133.9027,left,1,0.674,,133.9027,134.9026,5,1,41,2,1,partial,1,images/Ex2.jpg,left,training,easy,3,,,,,
,,,,,60723c224e9193e5d5fe5712,001,32,non binary,italian,some university no degree,2024-02-26_16h20.55.391,CRL1e,2023.2.3,Win32,59.88023952,65dbad3905fde4fe1981dc61,65dcba491eb656fe97f90d76,,,,,,,,,,,134.9032,0.6,135.5028,135.5028,136.1027,right,1,0.5883,,136.1027,137.1026,5,2,42,6,1,partial,1,images/Ex4.jpg,right,training,easy,3,,,,,
,,,,,60723c224e9193e5d5fe5712,001,32,non binary,italian,some university no degree,2024-02-26_16h20.55.391,CRL1e,2023.2.3,Win32,59.88023952,65dbad3905fde4fe1981dc61,65dcba491eb656fe97f90d76,,,,,,,,,,,137.1031,1.1,138.2028,138.2028,138.8025,left,1,0.5873,,138.8026,139.8028,5,3,43,1,1,partial,1,images/Ex1.jpg,left,training,easy,3,,,,,
,,,,,60723c224e9193e5d5fe5712,001,32,non binary,italian,some university no degree,2024-02-26_16h20.55.391,CRL1e,2023.2.3,Win32,59.88023952,65dbad3905fde4fe1981dc61,65dcba491eb656fe97f90d76,,,,,,,,,,,139.8033,1.2,141.0027,141.0028,141.7362,right,1,0.7213,,141.7362,142.7361,5,4,44,4,1,partial,1,images/Ex3.jpg,right,training,easy,3,,,,,
,,,,,60723c224e9193e5d5fe5712,001,32,non binary,italian,some university no degree,2024-02-26_16h20.55.391,CRL1e,2023.2.3,Win32,59.88023952,65dbad3905fde4fe1981dc61,65dcba491eb656fe97f90d76,,,,,,,,,,,142.7364,1.5,144.236,144.2361,144.8694,right,1,0.6215,,144.8695,145.8695,5,5,45,5,1,partial,1,images/Ex3.jpg,right,training,easy,3,,,,,
,,,,,60723c224e9193e5d5fe5712,001,32,non binary,italian,some university no degree,2024-02-26_16h20.55.391,CRL1e,2023.2.3,Win32,59.88023952,65dbad3905fde4fe1981dc61,65dcba491eb656fe97f90d76,,,,,,,,,,,145.8699,1.3,147.1696,147.1696,147.8026,right,1,0.6237,,147.8027,148.8029,5,6,46,7,1,partial,1,images/Ex4.jpg,right,training,easy,3,,,,,
,,,,,60723c224e9193e5d5fe5712,001,32,non binary,italian,some university no degree,2024-02-26_16h20.55.391,CRL1e,2023.2.3,Win32,59.88023952,65dbad3905fde4fe1981dc61,65dcba491eb656fe97f90d76,,,,,,,,,,,148.8033,0.6,149.4026,149.4026,150.003,left,1,0.5885,,150.003,151.0028,5,7,47,0,1,partial,1,images/Ex1.jpg,left,training,easy,3,,,,,
,,,,,60723c224e9193e5d5fe5712,001,32,non binary,italian,some university no degree,2024-02-26_16h20.55.391,CRL1e,2023.2.3,Win32,59.88023952,65dbad3905fde4fe1981dc61,65dcba491eb656fe97f90d76,,,,,,,,,,,151.0056,0.8,151.803,151.803,152.4528,right,0,0.6443,,152.4528,153.4529,0,0,0,6,1,partial,2,images/Ex4.jpg,left,reversed,easy,3,,,,,
,,,,,60723c224e9193e5d5fe5712,001,32,non binary,italian,some university no degree,2024-02-26_16h20.55.391,CRL1e,2023.2.3,Win32,59.88023952,65dbad3905fde4fe1981dc61,65dcba491eb656fe97f90d76,,,,,,,,,,,153.4532,1.4,154.853,154.8531,156.6361,right,0,1.7739,,156.6361,157.6359,0,1,1,7,1,partial,2,images/Ex4.jpg,left,reversed,easy,3,,,,,
,,,,,60723c224e9193e5d5fe5712,001,32,non binary,italian,some university no degree,2024-02-26_16h20.55.391,CRL1e,2023.2.3,Win32,59.88023952,65dbad3905fde4fe1981dc61,65dcba491eb656fe97f90d76,,,,,,,,,,,157.6362,0.8,158.4361,158.4362,159.4363,right,1,0.9935,,159.4363,160.436,0,2,2,4,1,partial,2,images/Ex3.jpg,right,nonreversed,easy,3,,,,,
,,,,,60723c224e9193e5d5fe5712,001,32,non binary,italian,some university no degree,2024-02-26_16h20.55.391,CRL1e,2023.2.3,Win32,59.88023952,65dbad3905fde4fe1981dc61,65dcba491eb656fe97f90d76,,,,,,,,,,,160.4363,1.5,161.9361,161.9361,163.0029,left,0,1.0648,,163.003,164.0028,0,3,3,2,1,partial,2,images/Ex2.jpg,right,reversed,easy,3,,,,,
,,,,,60723c224e9193e5d5fe5712,001,32,non binary,italian,some university no degree,2024-02-26_16h20.55.391,CRL1e,2023.2.3,Win32,59.88023952,65dbad3905fde4fe1981dc61,65dcba491eb656fe97f90d76,,,,,,,,,,,164.0031,0.6,164.6031,164.6031,165.6862,left,0,1.0738,,165.6862,166.6864,0,4,4,5,1,partial,2,images/Ex3.jpg,right,nonreversed,easy,3,,,,,
,,,,,60723c224e9193e5d5fe5712,001,32,non binary,italian,some university no degree,2024-02-26_16h20.55.391,CRL1e,2023.2.3,Win32,59.88023952,65dbad3905fde4fe1981dc61,65dcba491eb656fe97f90d76,,,,,,,,,,,166.6868,1.1,167.7866,167.7866,168.3362,left,1,0.5483,,168.3362,169.3365,0,5,5,1,1,partial,2,images/Ex1.jpg,left,nonreversed,easy,3,,,,,
,,,,,60723c224e9193e5d5fe5712,001,32,non binary,italian,some university no degree,2024-02-26_16h20.55.391,CRL1e,2023.2.3,Win32,59.88023952,65dbad3905fde4fe1981dc61,65dcba491eb656fe97f90d76,,,,,,,,,,,169.3368,1.4,170.7363,170.7363,171.4198,left,1,0.6721,,171.4198,172.4199,0,6,6,0,1,partial,2,images/Ex1.jpg,left,nonreversed,easy,3,,,,,
,,,,,60723c224e9193e5d5fe5712,001,32,non binary,italian,some university no degree,2024-02-26_16h20.55.391,CRL1e,2023.2.3,Win32,59.88023952,65dbad3905fde4fe1981dc61,65dcba491eb656fe97f90d76,,,,,,,,,,,172.4203,1,173.4197,173.4197,174.4197,right,1,0.9977,,174.4197,175.4196,0,7,7,3,1,partial,2,images/Ex2.jpg,right,reversed,easy,3,,,,,
,,,,,60723c224e9193e5d5fe5712,001,32,non binary,italian,some university no degree,2024-02-26_16h20.55.391,CRL1e,2023.2.3,Win32,59.88023952,65dbad3905fde4fe1981dc61,65dcba491eb656fe97f90d76,,,,,,,,,,,175.42,0.5,175.9198,175.9199,176.6698,left,1,0.7441,,176.6698,177.6698,1,0,8,0,1,partial,2,images/Ex1.jpg,left,nonreversed,easy,3,,,,,
,,,,,60723c224e9193e5d5fe5712,001,32,non binary,italian,some university no degree,2024-02-26_16h20.55.391,CRL1e,2023.2.3,Win32,59.88023952,65dbad3905fde4fe1981dc61,65dcba491eb656fe97f90d76,,,,,,,,,,,177.6702,1.4,179.0698,179.0698,179.6535,left,1,0.5759,,179.6535,180.6534,1,1,9,1,1,partial,2,images/Ex1.jpg,left,nonreversed,easy,3,,,,,
,,,,,60723c224e9193e5d5fe5712,001,32,non binary,italian,some university no degree,2024-02-26_16h20.55.391,CRL1e,2023.2.3,Win32,59.88023952,65dbad3905fde4fe1981dc61,65dcba491eb656fe97f90d76,,,,,,,,,,,180.6538,0.7,181.3534,181.3534,182.3535,left,0,0.9881,,182.3535,183.3534,1,2,10,5,1,partial,2,images/Ex3.jpg,right,nonreversed,easy,3,,,,,
,,,,,60723c224e9193e5d5fe5712,001,32,non binary,italian,some university no degree,2024-02-26_16h20.55.391,CRL1e,2023.2.3,Win32,59.88023952,65dbad3905fde4fe1981dc61,65dcba491eb656fe97f90d76,,,,,,,,,,,183.3538,1.4,184.7532,184.7532,185.97,right,1,1.2061,,185.9701,186.9698,1,3,11,2,1,partial,2,images/Ex2.jpg,right,reversed,easy,3,,,,,
,,,,,60723c224e9193e5d5fe5712,001,32,non binary,italian,some university no degree,2024-02-26_16h20.55.391,CRL1e,2023.2.3,Win32,59.88023952,65dbad3905fde4fe1981dc61,65dcba491eb656fe97f90d76,,,,,,,,,,,186.9702,0.7,187.6699,187.6699,188.3537,right,1,0.6806,,188.3537,189.3535,1,4,12,3,1,partial,2,images/Ex2.jpg,right,reversed,easy,3,,,,,
,,,,,60723c224e9193e5d5fe5712,001,32,non binary,italian,some university no degree,2024-02-26_16h20.55.391,CRL1e,2023.2.3,Win32,59.88023952,65dbad3905fde4fe1981dc61,65dcba491eb656fe97f90d76,,,,,,,,,,,189.3539,0.7,190.0532,190.0532,191.0367,left,1,0.9744,,191.0367,192.0369,1,5,13,6,1,partial,2,images/Ex4.jpg,left,reversed,easy,3,,,,,
,,,,,60723c224e9193e5d5fe5712,001,32,non binary,italian,some university no degree,2024-02-26_16h20.55.391,CRL1e,2023.2.3,Win32,59.88023952,65dbad3905fde4fe1981dc61,65dcba491eb656fe97f90d76,,,,,,,,,,,192.0373,1.4,193.4367,193.4368,194.5701,left,1,1.132,,194.5702,195.5703,1,6,14,7,1,partial,2,images/Ex4.jpg,left,reversed,easy,3,,,,,
,,,,,60723c224e9193e5d5fe5712,001,32,non binary,italian,some university no degree,2024-02-26_16h20.55.391,CRL1e,2023.2.3,Win32,59.88023952,65dbad3905fde4fe1981dc61,65dcba491eb656fe97f90d76,,,,,,,,,,,195.5706,0.7,196.2701,196.2702,196.9368,right,1,0.6636,,196.9368,197.937,1,7,15,4,1,partial,2,images/Ex3.jpg,right,nonreversed,easy,3,,,,,
,,,,,60723c224e9193e5d5fe5712,001,32,non binary,italian,some university no degree,2024-02-26_16h20.55.391,CRL1e,2023.2.3,Win32,59.88023952,65dbad3905fde4fe1981dc61,65dcba491eb656fe97f90d76,,,,,,,,,,,197.9375,0.8,198.7367,198.7367,199.2367,left,1,0.4882,,199.2367,200.237,2,0,16,1,1,partial,2,images/Ex1.jpg,left,nonreversed,easy,3,,,,,
,,,,,60723c224e9193e5d5fe5712,001,32,non binary,italian,some university no degree,2024-02-26_16h20.55.391,CRL1e,2023.2.3,Win32,59.88023952,65dbad3905fde4fe1981dc61,65dcba491eb656fe97f90d76,,,,,,,,,,,200.2373,1.4,201.637,201.6371,202.8533,left,1,1.2146,,202.8533,203.8534,2,1,17,6,1,partial,2,images/Ex4.jpg,left,reversed,easy,3,,,,,
,,,,,60723c224e9193e5d5fe5712,001,32,non binary,italian,some university no degree,2024-02-26_16h20.55.391,CRL1e,2023.2.3,Win32,59.88023952,65dbad3905fde4fe1981dc61,65dcba491eb656fe97f90d76,,,,,,,,,,,203.8536,0.6,204.4535,204.4535,205.1372,right,1,0.6722,,205.1373,206.1367,2,2,18,3,1,partial,2,images/Ex2.jpg,right,reversed,easy,3,,,,,
,,,,,60723c224e9193e5d5fe5712,001,32,non binary,italian,some university no degree,2024-02-26_16h20.55.391,CRL1e,2023.2.3,Win32,59.88023952,65dbad3905fde4fe1981dc61,65dcba491eb656fe97f90d76,,,,,,,,,,,206.137,0.7,206.8367,206.8367,207.4205,right,1,0.572,,207.4206,208.4203,2,3,19,2,1,partial,2,images/Ex2.jpg,right,reversed,easy,3,,,,,
,,,,,60723c224e9193e5d5fe5712,001,32,non binary,italian,some university no degree,2024-02-26_16h20.55.391,CRL1e,2023.2.3,Win32,59.88023952,65dbad3905fde4fe1981dc61,65dcba491eb656fe97f90d76,,,,,,,,,,,208.4205,1.1,209.5203,209.5203,209.9703,right,1,0.4433,,209.9704,210.9703,2,4,20,4,1,partial,2,images/Ex3.jpg,right,nonreversed,easy,3,,,,,
,,,,,60723c224e9193e5d5fe5712,001,32,non binary,italian,some university no degree,2024-02-26_16h20.55.391,CRL1e,2023.2.3,Win32,59.88023952,65dbad3905fde4fe1981dc61,65dcba491eb656fe97f90d76,,,,,,,,,,,210.9707,1.3,212.2705,212.2705,212.9037,left,1,0.6267,,212.9037,213.9039,2,5,21,7,1,partial,2,images/Ex4.jpg,left,reversed,easy,3,,,,,
,,,,,60723c224e9193e5d5fe5712,001,32,non binary,italian,some university no degree,2024-02-26_16h20.55.391,CRL1e,2023.2.3,Win32,59.88023952,65dbad3905fde4fe1981dc61,65dcba491eb656fe97f90d76,,,,,,,,,,,213.9042,0.7,214.6037,214.6037,215.1707,right,1,0.5627,,215.1707,216.1706,2,6,22,5,1,partial,2,images/Ex3.jpg,right,nonreversed,easy,3,,,,,
,,,,,60723c224e9193e5d5fe5712,001,32,non binary,italian,some university no degree,2024-02-26_16h20.55.391,CRL1e,2023.2.3,Win32,59.88023952,65dbad3905fde4fe1981dc61,65dcba491eb656fe97f90d76,,,,,,,,,,,216.171,1,217.1706,217.1707,217.7871,left,1,0.6075,,217.7871,218.7873,2,7,23,0,1,partial,2,images/Ex1.jpg,left,nonreversed,easy,3,,,,,
,,,,,60723c224e9193e5d5fe5712,001,32,non binary,italian,some university no degree,2024-02-26_16h20.55.391,CRL1e,2023.2.3,Win32,59.88023952,65dbad3905fde4fe1981dc61,65dcba491eb656fe97f90d76,,,,,,,,,,,218.7878,0.7,219.4873,219.4873,219.9206,left,1,0.4252,,219.9206,220.9208,3,0,24,1,1,partial,2,images/Ex1.jpg,left,nonreversed,easy,3,,,,,
,,,,,60723c224e9193e5d5fe5712,001,32,non binary,italian,some university no degree,2024-02-26_16h20.55.391,CRL1e,2023.2.3,Win32,59.88023952,65dbad3905fde4fe1981dc61,65dcba491eb656fe97f90d76,,,,,,,,,,,220.9211,0.6,221.5208,221.5209,222.0208,right,1,0.4898,,222.0209,223.0208,3,1,25,3,1,partial,2,images/Ex2.jpg,right,reversed,easy,3,,,,,
,,,,,60723c224e9193e5d5fe5712,001,32,non binary,italian,some university no degree,2024-02-26_16h20.55.391,CRL1e,2023.2.3,Win32,59.88023952,65dbad3905fde4fe1981dc61,65dcba491eb656fe97f90d76,,,,,,,,,,,223.0212,1.1,224.1207,224.1208,224.6872,left,1,0.5549,,224.6872,225.6871,3,2,26,6,1,partial,2,images/Ex4.jpg,left,reversed,easy,3,,,,,
,,,,,60723c224e9193e5d5fe5712,001,32,non binary,italian,some university no degree,2024-02-26_16h20.55.391,CRL1e,2023.2.3,Win32,59.88023952,65dbad3905fde4fe1981dc61,65dcba491eb656fe97f90d76,,,,,,,,,,,225.6875,1.2,226.8871,226.8871,227.454,right,1,0.5556,,227.454,228.4539,3,3,27,2,1,partial,2,images/Ex2.jpg,right,reversed,easy,3,,,,,
,,,,,60723c224e9193e5d5fe5712,001,32,non binary,italian,some university no degree,2024-02-26_16h20.55.391,CRL1e,2023.2.3,Win32,59.88023952,65dbad3905fde4fe1981dc61,65dcba491eb656fe97f90d76,,,,,,,,,,,228.4544,1.3,229.7542,229.7542,230.5876,left,0,0.8266,,230.5877,231.5873,3,4,28,4,1,partial,2,images/Ex3.jpg,right,nonreversed,easy,3,,,,,
,,,,,60723c224e9193e5d5fe5712,001,32,non binary,italian,some university no degree,2024-02-26_16h20.55.391,CRL1e,2023.2.3,Win32,59.88023952,65dbad3905fde4fe1981dc61,65dcba491eb656fe97f90d76,,,,,,,,,,,231.5879,0.5,232.0874,232.0875,232.7205,left,1,0.6269,,232.7205,233.7208,3,5,29,0,1,partial,2,images/Ex1.jpg,left,nonreversed,easy,3,,,,,
,,,,,60723c224e9193e5d5fe5712,001,32,non binary,italian,some university no degree,2024-02-26_16h20.55.391,CRL1e,2023.2.3,Win32,59.88023952,65dbad3905fde4fe1981dc61,65dcba491eb656fe97f90d76,,,,,,,,,,,233.7211,0.9,234.6207,234.6207,235.254,right,1,0.6212,,235.2541,236.2539,3,6,30,5,1,partial,2,images/Ex3.jpg,right,nonreversed,easy,3,,,,,
,,,,,60723c224e9193e5d5fe5712,001,32,non binary,italian,some university no degree,2024-02-26_16h20.55.391,CRL1e,2023.2.3,Win32,59.88023952,65dbad3905fde4fe1981dc61,65dcba491eb656fe97f90d76,,,,,,,,,,,236.2544,1.4,237.6543,237.6543,238.3207,left,1,0.6561,,238.3207,239.3208,3,7,31,7,1,partial,2,images/Ex4.jpg,left,reversed,easy,3,,,,,
,,,,,60723c224e9193e5d5fe5712,001,32,non binary,italian,some university no degree,2024-02-26_16h20.55.391,CRL1e,2023.2.3,Win32,59.88023952,65dbad3905fde4fe1981dc61,65dcba491eb656fe97f90d76,,,,,,,,,,,239.3212,1.4,240.7207,240.7208,241.2707,left,1,0.5479,,241.2707,242.2707,4,0,32,1,1,partial,2,images/Ex1.jpg,left,nonreversed,easy,3,,,,,
,,,,,60723c224e9193e5d5fe5712,001,32,non binary,italian,some university no degree,2024-02-26_16h20.55.391,CRL1e,2023.2.3,Win32,59.88023952,65dbad3905fde4fe1981dc61,65dcba491eb656fe97f90d76,,,,,,,,,,,242.2712,0.8,243.0707,243.0707,243.7041,right,0,0.6285,,243.7041,244.7041,4,1,33,6,1,partial,2,images/Ex4.jpg,left,reversed,easy,3,,,,,
,,,,,60723c224e9193e5d5fe5712,001,32,non binary,italian,some university no degree,2024-02-26_16h20.55.391,CRL1e,2023.2.3,Win32,59.88023952,65dbad3905fde4fe1981dc61,65dcba491eb656fe97f90d76,,,,,,,,,,,244.7044,0.9,245.6044,245.6044,246.2873,right,1,0.6818,,246.2874,247.2878,4,2,34,2,1,partial,2,images/Ex2.jpg,right,reversed,easy,3,,,,,
,,,,,60723c224e9193e5d5fe5712,001,32,non binary,italian,some university no degree,2024-02-26_16h20.55.391,CRL1e,2023.2.3,Win32,59.88023952,65dbad3905fde4fe1981dc61,65dcba491eb656fe97f90d76,,,,,,,,,,,247.2882,0.5,247.7876,247.7876,248.4379,right,1,0.6382,,248.4379,249.4377,4,3,35,3,1,partial,2,images/Ex2.jpg,right,reversed,easy,3,,,,,
,,,,,60723c224e9193e5d5fe5712,001,32,non binary,italian,some university no degree,2024-02-26_16h20.55.391,CRL1e,2023.2.3,Win32,59.88023952,65dbad3905fde4fe1981dc61,65dcba491eb656fe97f90d76,,,,,,,,,,,249.4381,1,250.4379,250.4379,251.0213,left,1,0.5794,,251.0213,252.0208,4,4,36,7,1,partial,2,images/Ex4.jpg,left,reversed,easy,3,,,,,
,,,,,60723c224e9193e5d5fe5712,001,32,non binary,italian,some university no degree,2024-02-26_16h20.55.391,CRL1e,2023.2.3,Win32,59.88023952,65dbad3905fde4fe1981dc61,65dcba491eb656fe97f90d76,,,,,,,,,,,252.0212,0.6,252.6209,252.6209,253.138,left,1,0.5073,,253.1381,254.1379,4,5,37,0,1,partial,2,images/Ex1.jpg,left,nonreversed,easy,3,,,,,
,,,,,60723c224e9193e5d5fe5712,001,32,non binary,italian,some university no degree,2024-02-26_16h20.55.391,CRL1e,2023.2.3,Win32,59.88023952,65dbad3905fde4fe1981dc61,65dcba491eb656fe97f90d76,,,,,,,,,,,254.1382,0.8,254.9375,254.9375,255.5545,right,1,0.6149,,255.5545,256.5546,4,6,38,5,1,partial,2,images/Ex3.jpg,right,nonreversed,easy,3,,,,,
,,,,,60723c224e9193e5d5fe5712,001,32,non binary,italian,some university no degree,2024-02-26_16h20.55.391,CRL1e,2023.2.3,Win32,59.88023952,65dbad3905fde4fe1981dc61,65dcba491eb656fe97f90d76,,,,,,,,,,,256.5551,0.6,257.1546,257.1546,257.7213,right,1,0.5549,,257.7214,258.721,4,7,39,4,1,partial,2,images/Ex3.jpg,right,nonreversed,easy,3,,,,,
,,,,,60723c224e9193e5d5fe5712,001,32,non binary,italian,some university no degree,2024-02-26_16h20.55.391,CRL1e,2023.2.3,Win32,59.88023952,65dbad3905fde4fe1981dc61,65dcba491eb656fe97f90d76,,,,,,,,,,,258.7213,1.4,260.1208,260.1208,260.7547,right,1,0.6292,,260.7548,261.7542,5,0,40,5,1,partial,2,images/Ex3.jpg,right,nonreversed,easy,3,,,,,
,,,,,60723c224e9193e5d5fe5712,001,32,non binary,italian,some university no degree,2024-02-26_16h20.55.391,CRL1e,2023.2.3,Win32,59.88023952,65dbad3905fde4fe1981dc61,65dcba491eb656fe97f90d76,,,,,,,,,,,261.7546,0.8,262.5544,262.5544,263.3711,left,0,0.8072,,263.3711,264.3711,5,1,41,3,1,partial,2,images/Ex2.jpg,right,reversed,easy,3,,,,,
,,,,,60723c224e9193e5d5fe5712,001,32,non binary,italian,some university no degree,2024-02-26_16h20.55.391,CRL1e,2023.2.3,Win32,59.88023952,65dbad3905fde4fe1981dc61,65dcba491eb656fe97f90d76,,,,,,,,,,,264.3714,1.3,265.6711,265.6711,266.3712,left,1,0.6889,,266.3712,267.371,5,2,42,6,1,partial,2,images/Ex4.jpg,left,reversed,easy,3,,,,,
,,,,,60723c224e9193e5d5fe5712,001,32,non binary,italian,some university no degree,2024-02-26_16h20.55.391,CRL1e,2023.2.3,Win32,59.88023952,65dbad3905fde4fe1981dc61,65dcba491eb656fe97f90d76,,,,,,,,,,,267.3712,0.9,268.2713,268.2713,268.8715,left,1,0.5899,,268.8715,269.8711,5,3,43,0,1,partial,2,images/Ex1.jpg,left,nonreversed,easy,3,,,,,
,,,,,60723c224e9193e5d5fe5712,001,32,non binary,italian,some university no degree,2024-02-26_16h20.55.391,CRL1e,2023.2.3,Win32,59.88023952,65dbad3905fde4fe1981dc61,65dcba491eb656fe97f90d76,,,,,,,,,,,269.8715,0.5,270.3714,270.3714,271.0044,left,1,0.6311,,271.0044,272.0046,5,4,44,7,1,partial,2,images/Ex4.jpg,left,reversed,easy,3,,,,,
,,,,,60723c224e9193e5d5fe5712,001,32,non binary,italian,some university no degree,2024-02-26_16h20.55.391,CRL1e,2023.2.3,Win32,59.88023952,65dbad3905fde4fe1981dc61,65dcba491eb656fe97f90d76,,,,,,,,,,,272.005,1.4,273.4049,273.4049,273.905,left,1,0.4881,,273.905,274.905,5,5,45,1,1,partial,2,images/Ex1.jpg,left,nonreversed,easy,3,,,,,
,,,,,60723c224e9193e5d5fe5712,001,32,non binary,italian,some university no degree,2024-02-26_16h20.55.391,CRL1e,2023.2.3,Win32,59.88023952,65dbad3905fde4fe1981dc61,65dcba491eb656fe97f90d76,,,,,,,,,,,274.9053,1.3,276.2049,276.2049,276.8716,right,1,0.6626,,276.8717,277.8716,5,6,46,2,1,partial,2,images/Ex2.jpg,right,reversed,easy,3,,,,,
,,,,,60723c224e9193e5d5fe5712,001,32,non binary,italian,some university no degree,2024-02-26_16h20.55.391,CRL1e,2023.2.3,Win32,59.88023952,65dbad3905fde4fe1981dc61,65dcba491eb656fe97f90d76,,,,,,,,,,,277.872,1.3,279.1714,279.1714,279.9716,right,1,0.7898,,279.9717,280.9717,5,7,47,4,1,partial,2,images/Ex3.jpg,right,nonreversed,easy,3,,,,,
,,,,,60723c224e9193e5d5fe5712,001,32,non binary,italian,some university no degree,2024-02-26_16h20.55.391,CRL1e,2023.2.3,Win32,59.88023952,65dbad3905fde4fe1981dc61,65dcba491eb656fe97f90d76,,,,,,280.9725,283.6885,space,2.6991,,283.6912,0.6,284.288,284.2881,285.3385,left,0,1.0381,,285.3385,286.3384,0,0,0,7,1,total,1,images/Ex8.jpg,right,training,easy,3,,,,,
,,,,,60723c224e9193e5d5fe5712,001,32,non binary,italian,some university no degree,2024-02-26_16h20.55.391,CRL1e,2023.2.3,Win32,59.88023952,65dbad3905fde4fe1981dc61,65dcba491eb656fe97f90d76,,,,,,,,,,,286.3388,1.4,287.7382,287.7383,288.3383,right,1,0.5913,,288.3383,289.3381,0,1,1,6,1,total,1,images/Ex8.jpg,right,training,easy,3,,,,,
,,,,,60723c224e9193e5d5fe5712,001,32,non binary,italian,some university no degree,2024-02-26_16h20.55.391,CRL1e,2023.2.3,Win32,59.88023952,65dbad3905fde4fe1981dc61,65dcba491eb656fe97f90d76,,,,,,,,,,,289.3383,1.3,290.6384,290.6384,291.5883,right,0,0.9402,,291.5883,292.5882,0,2,2,3,1,total,1,images/Ex6.jpg,left,training,easy,3,,,,,
,,,,,60723c224e9193e5d5fe5712,001,32,non binary,italian,some university no degree,2024-02-26_16h20.55.391,CRL1e,2023.2.3,Win32,59.88023952,65dbad3905fde4fe1981dc61,65dcba491eb656fe97f90d76,,,,,,,,,,,292.5885,0.9,293.4883,293.4883,294.1719,left,1,0.6714,,294.1719,295.172,0,3,3,2,1,total,1,images/Ex6.jpg,left,training,easy,3,,,,,
,,,,,60723c224e9193e5d5fe5712,001,32,non binary,italian,some university no degree,2024-02-26_16h20.55.391,CRL1e,2023.2.3,Win32,59.88023952,65dbad3905fde4fe1981dc61,65dcba491eb656fe97f90d76,,,,,,,,,,,295.1723,1.2,296.3719,296.372,297.4387,left,1,1.0551,,297.4387,298.4385,0,4,4,1,1,total,1,images/Ex5.jpg,left,training,easy,3,,,,,
,,,,,60723c224e9193e5d5fe5712,001,32,non binary,italian,some university no degree,2024-02-26_16h20.55.391,CRL1e,2023.2.3,Win32,59.88023952,65dbad3905fde4fe1981dc61,65dcba491eb656fe97f90d76,,,,,,,,,,,298.4389,0.8,299.2384,299.2385,299.8216,left,1,0.5825,,299.8216,300.8216,0,5,5,0,1,total,1,images/Ex5.jpg,left,training,easy,3,,,,,
,,,,,60723c224e9193e5d5fe5712,001,32,non binary,italian,some university no degree,2024-02-26_16h20.55.391,CRL1e,2023.2.3,Win32,59.88023952,65dbad3905fde4fe1981dc61,65dcba491eb656fe97f90d76,,,,,,,,,,,300.8221,0.9,301.7215,301.7216,302.4888,right,1,0.7614,,302.4888,303.4887,0,6,6,5,1,total,1,images/Ex7.jpg,right,training,easy,3,,,,,
,,,,,60723c224e9193e5d5fe5712,001,32,non binary,italian,some university no degree,2024-02-26_16h20.55.391,CRL1e,2023.2.3,Win32,59.88023952,65dbad3905fde4fe1981dc61,65dcba491eb656fe97f90d76,,,,,,,,,,,303.4891,0.6,304.0886,304.0887,304.5551,right,1,0.4586,,304.5551,305.5551,0,7,7,4,1,total,1,images/Ex7.jpg,right,training,easy,3,,,,,
,,,,,60723c224e9193e5d5fe5712,001,32,non binary,italian,some university no degree,2024-02-26_16h20.55.391,CRL1e,2023.2.3,Win32,59.88023952,65dbad3905fde4fe1981dc61,65dcba491eb656fe97f90d76,,,,,,,,,,,305.5555,1.1,306.6554,306.6554,307.9388,left,1,1.2728,,307.9389,308.9388,1,0,8,2,1,total,1,images/Ex6.jpg,left,training,easy,3,,,,,
,,,,,60723c224e9193e5d5fe5712,001,32,non binary,italian,some university no degree,2024-02-26_16h20.55.391,CRL1e,2023.2.3,Win32,59.88023952,65dbad3905fde4fe1981dc61,65dcba491eb656fe97f90d76,,,,,,,,,,,308.9391,1.5,310.4384,310.4384,311.4056,right,1,0.9611,,311.4056,312.4051,1,1,9,4,1,total,1,images/Ex7.jpg,right,training,easy,3,,,,,
,,,,,60723c224e9193e5d5fe5712,001,32,non binary,italian,some university no degree,2024-02-26_16h20.55.391,CRL1e,2023.2.3,Win32,59.88023952,65dbad3905fde4fe1981dc61,65dcba491eb656fe97f90d76,,,,,,,,,,,312.4055,1.4,313.8051,313.8051,314.389,right,1,0.5724,,314.389,315.3886,1,2,10,5,1,total,1,images/Ex7.jpg,right,training,easy,3,,,,,
,,,,,60723c224e9193e5d5fe5712,001,32,non binary,italian,some university no degree,2024-02-26_16h20.55.391,CRL1e,2023.2.3,Win32,59.88023952,65dbad3905fde4fe1981dc61,65dcba491eb656fe97f90d76,,,,,,,,,,,315.389,1.3,316.6886,316.6887,318.089,right,0,1.39,,318.0891,319.0889,1,3,11,1,1,total,1,images/Ex5.jpg,left,training,easy,3,,,,,
,,,,,60723c224e9193e5d5fe5712,001,32,non binary,italian,some university no degree,2024-02-26_16h20.55.391,CRL1e,2023.2.3,Win32,59.88023952,65dbad3905fde4fe1981dc61,65dcba491eb656fe97f90d76,,,,,,,,,,,319.0893,0.9,319.9887,319.9887,320.9057,right,1,0.9125,,320.9058,321.9056,1,4,12,7,1,total,1,images/Ex8.jpg,right,training,easy,3,,,,,
,,,,,60723c224e9193e5d5fe5712,001,32,non binary,italian,some university no degree,2024-02-26_16h20.55.391,CRL1e,2023.2.3,Win32,59.88023952,65dbad3905fde4fe1981dc61,65dcba491eb656fe97f90d76,,,,,,,,,,,321.9059,1.4,323.3055,323.3055,324.0053,left,1,0.6992,,324.0053,325.0055,1,5,13,0,1,total,1,images/Ex5.jpg,left,training,easy,3,,,,,
,,,,,60723c224e9193e5d5fe5712,001,32,non binary,italian,some university no degree,2024-02-26_16h20.55.391,CRL1e,2023.2.3,Win32,59.88023952,65dbad3905fde4fe1981dc61,65dcba491eb656fe97f90d76,,,,,,,,,,,325.0059,0.9,325.9058,325.9058,326.9225,right,1,1.0049,,326.9225,327.9224,1,6,14,6,1,total,1,images/Ex8.jpg,right,training,easy,3,,,,,
,,,,,60723c224e9193e5d5fe5712,001,32,non binary,italian,some university no degree,2024-02-26_16h20.55.391,CRL1e,2023.2.3,Win32,59.88023952,65dbad3905fde4fe1981dc61,65dcba491eb656fe97f90d76,,,,,,,,,,,327.9227,0.8,328.7222,328.7222,329.5388,left,1,0.8055,,329.5388,330.5388,1,7,15,3,1,total,1,images/Ex6.jpg,left,training,easy,3,,,,,
,,,,,60723c224e9193e5d5fe5712,001,32,non binary,italian,some university no degree,2024-02-26_16h20.55.391,CRL1e,2023.2.3,Win32,59.88023952,65dbad3905fde4fe1981dc61,65dcba491eb656fe97f90d76,,,,,,,,,,,330.5391,1,331.5388,331.5389,332.1723,right,1,0.6215,,332.1724,333.1726,2,0,16,4,1,total,1,images/Ex7.jpg,right,training,easy,3,,,,,
,,,,,60723c224e9193e5d5fe5712,001,32,non binary,italian,some university no degree,2024-02-26_16h20.55.391,CRL1e,2023.2.3,Win32,59.88023952,65dbad3905fde4fe1981dc61,65dcba491eb656fe97f90d76,,,,,,,,,,,333.173,1,334.1722,334.1723,334.9559,left,1,0.7709,,334.9559,335.956,2,1,17,0,1,total,1,images/Ex5.jpg,left,training,easy,3,,,,,
,,,,,60723c224e9193e5d5fe5712,001,32,non binary,italian,some university no degree,2024-02-26_16h20.55.391,CRL1e,2023.2.3,Win32,59.88023952,65dbad3905fde4fe1981dc61,65dcba491eb656fe97f90d76,,,,,,,,,,,335.9562,1.2,337.1559,337.1559,337.8726,left,1,0.7055,,337.8728,338.8726,2,2,18,2,1,total,1,images/Ex6.jpg,left,training,easy,3,,,,,
,,,,,60723c224e9193e5d5fe5712,001,32,non binary,italian,some university no degree,2024-02-26_16h20.55.391,CRL1e,2023.2.3,Win32,59.88023952,65dbad3905fde4fe1981dc61,65dcba491eb656fe97f90d76,,,,,,,,,,,338.8729,0.6,339.4724,339.4724,340.2392,right,1,0.765,,340.2392,341.2393,2,3,19,5,1,total,1,images/Ex7.jpg,right,training,easy,3,,,,,
,,,,,60723c224e9193e5d5fe5712,001,32,non binary,italian,some university no degree,2024-02-26_16h20.55.391,CRL1e,2023.2.3,Win32,59.88023952,65dbad3905fde4fe1981dc61,65dcba491eb656fe97f90d76,,,,,,,,,,,341.2397,1.4,342.6393,342.6393,343.4225,right,1,0.7715,,343.4225,344.4224,2,4,20,7,1,total,1,images/Ex8.jpg,right,training,easy,3,,,,,
,,,,,60723c224e9193e5d5fe5712,001,32,non binary,italian,some university no degree,2024-02-26_16h20.55.391,CRL1e,2023.2.3,Win32,59.88023952,65dbad3905fde4fe1981dc61,65dcba491eb656fe97f90d76,,,,,,,,,,,344.4226,0.8,345.2224,345.2224,346.0725,left,1,0.8463,,346.0726,347.0723,2,5,21,1,1,total,1,images/Ex5.jpg,left,training,easy,3,,,,,
,,,,,60723c224e9193e5d5fe5712,001,32,non binary,italian,some university no degree,2024-02-26_16h20.55.391,CRL1e,2023.2.3,Win32,59.88023952,65dbad3905fde4fe1981dc61,65dcba491eb656fe97f90d76,,,,,,,,,,,347.0726,1.2,348.2726,348.2728,349.0058,right,1,0.7226,,349.0058,350.006,2,6,22,6,1,total,1,images/Ex8.jpg,right,training,easy,3,,,,,
,,,,,60723c224e9193e5d5fe5712,001,32,non binary,italian,some university no degree,2024-02-26_16h20.55.391,CRL1e,2023.2.3,Win32,59.88023952,65dbad3905fde4fe1981dc61,65dcba491eb656fe97f90d76,,,,,,,,,,,350.0062,1.4,351.4058,351.4058,352.006,left,1,0.5892,,352.006,353.0059,2,7,23,3,1,total,1,images/Ex6.jpg,left,training,easy,3,,,,,
,,,,,60723c224e9193e5d5fe5712,001,32,non binary,italian,some university no degree,2024-02-26_16h20.55.391,CRL1e,2023.2.3,Win32,59.88023952,65dbad3905fde4fe1981dc61,65dcba491eb656fe97f90d76,,,,,,,,,,,353.0061,0.7,353.7061,353.7062,354.3229,right,1,0.6144,,354.3229,355.3228,3,0,24,5,1,total,1,images/Ex7.jpg,right,training,easy,3,,,,,
,,,,,60723c224e9193e5d5fe5712,001,32,non binary,italian,some university no degree,2024-02-26_16h20.55.391,CRL1e,2023.2.3,Win32,59.88023952,65dbad3905fde4fe1981dc61,65dcba491eb656fe97f90d76,,,,,,,,,,,355.3232,1.3,356.6228,356.6229,357.3392,left,1,0.7049,,357.3393,358.3393,3,1,25,1,1,total,1,images/Ex5.jpg,left,training,easy,3,,,,,
,,,,,60723c224e9193e5d5fe5712,001,32,non binary,italian,some university no degree,2024-02-26_16h20.55.391,CRL1e,2023.2.3,Win32,59.88023952,65dbad3905fde4fe1981dc61,65dcba491eb656fe97f90d76,,,,,,,,,,,358.3396,0.9,359.2392,359.2392,359.8559,right,1,0.6052,,359.8559,360.8562,3,2,26,7,1,total,1,images/Ex8.jpg,right,training,easy,3,,,,,
,,,,,60723c224e9193e5d5fe5712,001,32,non binary,italian,some university no degree,2024-02-26_16h20.55.391,CRL1e,2023.2.3,Win32,59.88023952,65dbad3905fde4fe1981dc61,65dcba491eb656fe97f90d76,,,,,,,,,,,360.8565,1.4,362.2562,362.2563,362.8561,left,1,0.5971,,362.8561,363.8559,3,3,27,2,1,total,1,images/Ex6.jpg,left,training,easy,3,,,,,
,,,,,60723c224e9193e5d5fe5712,001,32,non binary,italian,some university no degree,2024-02-26_16h20.55.391,CRL1e,2023.2.3,Win32,59.88023952,65dbad3905fde4fe1981dc61,65dcba491eb656fe97f90d76,,,,,,,,,,,363.8562,0.9,364.7561,364.7562,365.5561,left,1,0.7991,,365.5561,366.5563,3,4,28,0,1,total,1,images/Ex5.jpg,left,training,easy,3,,,,,
,,,,,60723c224e9193e5d5fe5712,001,32,non binary,italian,some university no degree,2024-02-26_16h20.55.391,CRL1e,2023.2.3,Win32,59.88023952,65dbad3905fde4fe1981dc61,65dcba491eb656fe97f90d76,,,,,,,,,,,366.5568,0.8,367.3559,367.356,367.9398,left,1,0.5801,,367.9398,368.9397,3,5,29,3,1,total,1,images/Ex6.jpg,left,training,easy,3,,,,,
,,,,,60723c224e9193e5d5fe5712,001,32,non binary,italian,some university no degree,2024-02-26_16h20.55.391,CRL1e,2023.2.3,Win32,59.88023952,65dbad3905fde4fe1981dc61,65dcba491eb656fe97f90d76,,,,,,,,,,,368.9402,1.2,370.1398,370.1398,370.84,right,1,0.6877,,370.8401,371.8395,3,6,30,6,1,total,1,images/Ex8.jpg,right,training,easy,3,,,,,
,,,,,60723c224e9193e5d5fe5712,001,32,non binary,italian,some university no degree,2024-02-26_16h20.55.391,CRL1e,2023.2.3,Win32,59.88023952,65dbad3905fde4fe1981dc61,65dcba491eb656fe97f90d76,,,,,,,,,,,371.8398,1.2,373.0398,373.0398,373.5232,right,1,0.4754,,373.5232,374.5228,3,7,31,4,1,total,1,images/Ex7.jpg,right,training,easy,3,,,,,
,,,,,60723c224e9193e5d5fe5712,001,32,non binary,italian,some university no degree,2024-02-26_16h20.55.391,CRL1e,2023.2.3,Win32,59.88023952,65dbad3905fde4fe1981dc61,65dcba491eb656fe97f90d76,,,,,,,,,,,374.5232,0.9,375.4232,375.4233,376.0397,left,1,0.6078,,376.0397,377.0396,4,0,32,0,1,total,1,images/Ex5.jpg,left,training,easy,3,,,,,
,,,,,60723c224e9193e5d5fe5712,001,32,non binary,italian,some university no degree,2024-02-26_16h20.55.391,CRL1e,2023.2.3,Win32,59.88023952,65dbad3905fde4fe1981dc61,65dcba491eb656fe97f90d76,,,,,,,,,,,377.0401,1.1,378.1399,378.1399,378.9566,left,1,0.8054,,378.9566,379.9562,4,1,33,1,1,total,1,images/Ex5.jpg,left,training,easy,3,,,,,
,,,,,60723c224e9193e5d5fe5712,001,32,non binary,italian,some university no degree,2024-02-26_16h20.55.391,CRL1e,2023.2.3,Win32,59.88023952,65dbad3905fde4fe1981dc61,65dcba491eb656fe97f90d76,,,,,,,,,,,379.9565,1,380.9566,380.9566,381.6064,right,1,0.6445,,381.6064,382.6066,4,2,34,6,1,total,1,images/Ex8.jpg,right,training,easy,3,,,,,
,,,,,60723c224e9193e5d5fe5712,001,32,non binary,italian,some university no degree,2024-02-26_16h20.55.391,CRL1e,2023.2.3,Win32,59.88023952,65dbad3905fde4fe1981dc61,65dcba491eb656fe97f90d76,,,,,,,,,,,382.6069,0.8,383.4067,383.4067,383.9735,right,1,0.5551,,383.9736,384.9733,4,3,35,5,1,total,1,images/Ex7.jpg,right,training,easy,3,,,,,
,,,,,60723c224e9193e5d5fe5712,001,32,non binary,italian,some university no degree,2024-02-26_16h20.55.391,CRL1e,2023.2.3,Win32,59.88023952,65dbad3905fde4fe1981dc61,65dcba491eb656fe97f90d76,,,,,,,,,,,384.9737,1.4,386.3734,386.3734,386.9235,left,1,0.5411,,386.9235,387.9234,4,4,36,2,1,total,1,images/Ex6.jpg,left,training,easy,3,,,,,
,,,,,60723c224e9193e5d5fe5712,001,32,non binary,italian,some university no degree,2024-02-26_16h20.55.391,CRL1e,2023.2.3,Win32,59.88023952,65dbad3905fde4fe1981dc61,65dcba491eb656fe97f90d76,,,,,,,,,,,387.9237,1.1,389.0233,389.0233,389.6735,right,1,0.6381,,389.6736,390.6734,4,5,37,4,1,total,1,images/Ex7.jpg,right,training,easy,3,,,,,
,,,,,60723c224e9193e5d5fe5712,001,32,non binary,italian,some university no degree,2024-02-26_16h20.55.391,CRL1e,2023.2.3,Win32,59.88023952,65dbad3905fde4fe1981dc61,65dcba491eb656fe97f90d76,,,,,,,,,,,390.6737,1.1,391.7735,391.7735,392.3396,right,1,0.5655,,392.3397,393.3401,4,6,38,7,1,total,1,images/Ex8.jpg,right,training,easy,3,,,,,
,,,,,60723c224e9193e5d5fe5712,001,32,non binary,italian,some university no degree,2024-02-26_16h20.55.391,CRL1e,2023.2.3,Win32,59.88023952,65dbad3905fde4fe1981dc61,65dcba491eb656fe97f90d76,,,,,,,,,,,393.3406,1.3,394.6399,394.6399,395.2231,left,1,0.5818,,395.2231,396.2232,4,7,39,3,1,total,1,images/Ex6.jpg,left,training,easy,3,,,,,
,,,,,60723c224e9193e5d5fe5712,001,32,non binary,italian,some university no degree,2024-02-26_16h20.55.391,CRL1e,2023.2.3,Win32,59.88023952,65dbad3905fde4fe1981dc61,65dcba491eb656fe97f90d76,,,,,,,,,,,396.2235,0.8,397.0235,397.0236,397.4235,right,1,0.3877,,397.4235,398.4234,5,0,40,7,1,total,1,images/Ex8.jpg,right,training,easy,3,,,,,
,,,,,60723c224e9193e5d5fe5712,001,32,non binary,italian,some university no degree,2024-02-26_16h20.55.391,CRL1e,2023.2.3,Win32,59.88023952,65dbad3905fde4fe1981dc61,65dcba491eb656fe97f90d76,,,,,,,,,,,398.4238,0.6,399.0234,399.0235,399.6565,right,1,0.6216,,399.6565,400.6569,5,1,41,5,1,total,1,images/Ex7.jpg,right,training,easy,3,,,,,
,,,,,60723c224e9193e5d5fe5712,001,32,non binary,italian,some university no degree,2024-02-26_16h20.55.391,CRL1e,2023.2.3,Win32,59.88023952,65dbad3905fde4fe1981dc61,65dcba491eb656fe97f90d76,,,,,,,,,,,400.6572,1.3,401.9566,401.9566,402.4899,left,1,0.5267,,402.4899,403.4899,5,2,42,3,1,total,1,images/Ex6.jpg,left,training,easy,3,,,,,
,,,,,60723c224e9193e5d5fe5712,001,32,non binary,italian,some university no degree,2024-02-26_16h20.55.391,CRL1e,2023.2.3,Win32,59.88023952,65dbad3905fde4fe1981dc61,65dcba491eb656fe97f90d76,,,,,,,,,,,403.4901,1.4,404.8898,404.8899,405.5899,left,1,0.6922,,405.59,406.59,5,3,43,0,1,total,1,images/Ex5.jpg,left,training,easy,3,,,,,
,,,,,60723c224e9193e5d5fe5712,001,32,non binary,italian,some university no degree,2024-02-26_16h20.55.391,CRL1e,2023.2.3,Win32,59.88023952,65dbad3905fde4fe1981dc61,65dcba491eb656fe97f90d76,,,,,,,,,,,406.5903,1.5,408.0902,408.0902,408.6567,left,1,0.5656,,408.6568,409.6569,5,4,44,2,1,total,1,images/Ex6.jpg,left,training,easy,3,,,,,
,,,,,60723c224e9193e5d5fe5712,001,32,non binary,italian,some university no degree,2024-02-26_16h20.55.391,CRL1e,2023.2.3,Win32,59.88023952,65dbad3905fde4fe1981dc61,65dcba491eb656fe97f90d76,,,,,,,,,,,409.6572,0.8,410.4569,410.4569,411.0737,right,1,0.605,,411.0737,412.0736,5,5,45,6,1,total,1,images/Ex8.jpg,right,training,easy,3,,,,,
,,,,,60723c224e9193e5d5fe5712,001,32,non binary,italian,some university no degree,2024-02-26_16h20.55.391,CRL1e,2023.2.3,Win32,59.88023952,65dbad3905fde4fe1981dc61,65dcba491eb656fe97f90d76,,,,,,,,,,,412.074,1,413.0738,413.0738,413.7069,right,1,0.6249,,413.7069,414.7068,5,6,46,4,1,total,1,images/Ex7.jpg,right,training,easy,3,,,,,
,,,,,60723c224e9193e5d5fe5712,001,32,non binary,italian,some university no degree,2024-02-26_16h20.55.391,CRL1e,2023.2.3,Win32,59.88023952,65dbad3905fde4fe1981dc61,65dcba491eb656fe97f90d76,,,,,,,,,,,414.7072,1.2,415.907,415.907,416.5073,left,1,0.5944,,416.5074,417.5067,5,7,47,1,1,total,1,images/Ex5.jpg,left,training,easy,3,,,,,
,,,,,60723c224e9193e5d5fe5712,001,32,non binary,italian,some university no degree,2024-02-26_16h20.55.391,CRL1e,2023.2.3,Win32,59.88023952,65dbad3905fde4fe1981dc61,65dcba491eb656fe97f90d76,,,,,,,,,,,417.5088,1.1,418.6072,418.6072,419.2234,right,0,0.6058,,419.2235,420.2239,0,0,0,4,1,total,2,images/Ex7.jpg,left,reversed,easy,3,,,,,
,,,,,60723c224e9193e5d5fe5712,001,32,non binary,italian,some university no degree,2024-02-26_16h20.55.391,CRL1e,2023.2.3,Win32,59.88023952,65dbad3905fde4fe1981dc61,65dcba491eb656fe97f90d76,,,,,,,,,,,420.2242,0.6,420.8238,420.8238,421.8402,right,1,1.0048,,421.8403,422.8403,0,1,1,1,1,total,2,images/Ex5.jpg,right,reversed,easy,3,,,,,
,,,,,60723c224e9193e5d5fe5712,001,32,non binary,italian,some university no degree,2024-02-26_16h20.55.391,CRL1e,2023.2.3,Win32,59.88023952,65dbad3905fde4fe1981dc61,65dcba491eb656fe97f90d76,,,,,,,,,,,422.8405,1.3,424.1403,424.1403,424.8739,left,1,0.7242,,424.874,425.874,0,2,2,5,1,total,2,images/Ex7.jpg,left,reversed,easy,3,,,,,
,,,,,60723c224e9193e5d5fe5712,001,32,non binary,italian,some university no degree,2024-02-26_16h20.55.391,CRL1e,2023.2.3,Win32,59.88023952,65dbad3905fde4fe1981dc61,65dcba491eb656fe97f90d76,,,,,,,,,,,425.8743,1.1,426.974,426.974,427.3741,left,1,0.3878,,427.3741,428.3737,0,3,3,7,1,total,2,images/Ex8.jpg,left,reversed,easy,3,,,,,
,,,,,60723c224e9193e5d5fe5712,001,32,non binary,italian,some university no degree,2024-02-26_16h20.55.391,CRL1e,2023.2.3,Win32,59.88023952,65dbad3905fde4fe1981dc61,65dcba491eb656fe97f90d76,,,,,,,,,,,428.3739,0.8,429.174,429.174,429.707,left,1,0.5309,,429.707,430.707,0,4,4,6,1,total,2,images/Ex8.jpg,left,reversed,easy,3,,,,,
,,,,,60723c224e9193e5d5fe5712,001,32,non binary,italian,some university no degree,2024-02-26_16h20.55.391,CRL1e,2023.2.3,Win32,59.88023952,65dbad3905fde4fe1981dc61,65dcba491eb656fe97f90d76,,,,,,,,,,,430.7074,1.3,432.0074,432.0074,432.7905,right,1,0.7721,,432.7905,433.7904,0,5,5,2,1,total,2,images/Ex6.jpg,right,reversed,easy,3,,,,,
,,,,,60723c224e9193e5d5fe5712,001,32,non binary,italian,some university no degree,2024-02-26_16h20.55.391,CRL1e,2023.2.3,Win32,59.88023952,65dbad3905fde4fe1981dc61,65dcba491eb656fe97f90d76,,,,,,,,,,,433.7907,1.1,434.8908,434.8909,435.6907,right,1,0.7885,,435.6908,436.6906,0,6,6,0,1,total,2,images/Ex5.jpg,right,reversed,easy,3,,,,,
,,,,,60723c224e9193e5d5fe5712,001,32,non binary,italian,some university no degree,2024-02-26_16h20.55.391,CRL1e,2023.2.3,Win32,59.88023952,65dbad3905fde4fe1981dc61,65dcba491eb656fe97f90d76,,,,,,,,,,,436.691,0.5,437.1907,437.1908,437.9742,left,0,0.7718,,437.9742,438.9742,0,7,7,3,1,total,2,images/Ex6.jpg,right,reversed,easy,3,,,,,
,,,,,60723c224e9193e5d5fe5712,001,32,non binary,italian,some university no degree,2024-02-26_16h20.55.391,CRL1e,2023.2.3,Win32,59.88023952,65dbad3905fde4fe1981dc61,65dcba491eb656fe97f90d76,,,,,,,,,,,438.9745,0.7,439.6741,439.6741,440.3906,left,1,0.7046,,440.3906,441.3905,1,0,8,5,1,total,2,images/Ex7.jpg,left,reversed,easy,3,,,,,
,,,,,60723c224e9193e5d5fe5712,001,32,non binary,italian,some university no degree,2024-02-26_16h20.55.391,CRL1e,2023.2.3,Win32,59.88023952,65dbad3905fde4fe1981dc61,65dcba491eb656fe97f90d76,,,,,,,,,,,441.3908,1.3,442.6907,442.6907,443.4074,left,0,0.706,,443.4074,444.4077,1,1,9,0,1,total,2,images/Ex5.jpg,right,reversed,easy,3,,,,,
,,,,,60723c224e9193e5d5fe5712,001,32,non binary,italian,some university no degree,2024-02-26_16h20.55.391,CRL1e,2023.2.3,Win32,59.88023952,65dbad3905fde4fe1981dc61,65dcba491eb656fe97f90d76,,,,,,,,,,,444.408,0.7,445.1076,445.1077,446.1405,right,1,1.0297,,446.1405,447.1408,1,2,10,3,1,total,2,images/Ex6.jpg,right,reversed,easy,3,,,,,
,,,,,60723c224e9193e5d5fe5712,001,32,non binary,italian,some university no degree,2024-02-26_16h20.55.391,CRL1e,2023.2.3,Win32,59.88023952,65dbad3905fde4fe1981dc61,65dcba491eb656fe97f90d76,,,,,,,,,,,447.1412,1,448.1407,448.1408,448.8408,right,1,0.6888,,448.8409,449.8406,1,3,11,2,1,total,2,images/Ex6.jpg,right,reversed,easy,3,,,,,
,,,,,60723c224e9193e5d5fe5712,001,32,non binary,italian,some university no degree,2024-02-26_16h20.55.391,CRL1e,2023.2.3,Win32,59.88023952,65dbad3905fde4fe1981dc61,65dcba491eb656fe97f90d76,,,,,,,,,,,449.8409,0.8,450.6407,450.6407,451.3073,left,1,0.6653,,451.3073,452.3077,1,4,12,7,1,total,2,images/Ex8.jpg,left,reversed,easy,3,,,,,
,,,,,60723c224e9193e5d5fe5712,001,32,non binary,italian,some university no degree,2024-02-26_16h20.55.391,CRL1e,2023.2.3,Win32,59.88023952,65dbad3905fde4fe1981dc61,65dcba491eb656fe97f90d76,,,,,,,,,,,452.3081,1.5,453.8078,453.8078,454.2909,left,1,0.4717,,454.291,455.2907,1,5,13,6,1,total,2,images/Ex8.jpg,left,reversed,easy,3,,,,,
,,,,,60723c224e9193e5d5fe5712,001,32,non binary,italian,some university no degree,2024-02-26_16h20.55.391,CRL1e,2023.2.3,Win32,59.88023952,65dbad3905fde4fe1981dc61,65dcba491eb656fe97f90d76,,,,,,,,,,,455.291,0.6,455.8907,455.8907,456.8909,left,1,0.9949,,456.891,457.8908,1,6,14,4,1,total,2,images/Ex7.jpg,left,reversed,easy,3,,,,,
,,,,,60723c224e9193e5d5fe5712,001,32,non binary,italian,some university no degree,2024-02-26_16h20.55.391,CRL1e,2023.2.3,Win32,59.88023952,65dbad3905fde4fe1981dc61,65dcba491eb656fe97f90d76,,,,,,,,,,,457.8911,0.5,458.3909,458.3909,459.0242,right,1,0.626,,459.0243,460.0244,1,7,15,1,1,total,2,images/Ex5.jpg,right,reversed,easy,3,,,,,
,,,,,60723c224e9193e5d5fe5712,001,32,non binary,italian,some university no degree,2024-02-26_16h20.55.391,CRL1e,2023.2.3,Win32,59.88023952,65dbad3905fde4fe1981dc61,65dcba491eb656fe97f90d76,,,,,,,,,,,460.0247,1,461.0243,461.0243,461.6578,right,0,0.6216,,461.6578,462.6577,2,0,16,6,1,total,2,images/Ex8.jpg,left,reversed,easy,3,,,,,
,,,,,60723c224e9193e5d5fe5712,001,32,non binary,italian,some university no degree,2024-02-26_16h20.55.391,CRL1e,2023.2.3,Win32,59.88023952,65dbad3905fde4fe1981dc61,65dcba491eb656fe97f90d76,,,,,,,,,,,462.658,0.7,463.3579,463.3579,463.9913,right,1,0.6297,,463.9913,464.9909,2,1,17,2,1,total,2,images/Ex6.jpg,right,reversed,easy,3,,,,,
,,,,,60723c224e9193e5d5fe5712,001,32,non binary,italian,some university no degree,2024-02-26_16h20.55.391,CRL1e,2023.2.3,Win32,59.88023952,65dbad3905fde4fe1981dc61,65dcba491eb656fe97f90d76,,,,,,,,,,,464.9911,1.2,466.1911,466.1911,466.8077,left,1,0.6097,,466.8077,467.808,2,2,18,5,1,total,2,images/Ex7.jpg,left,reversed,easy,3,,,,,
,,,,,60723c224e9193e5d5fe5712,001,32,non binary,italian,some university no degree,2024-02-26_16h20.55.391,CRL1e,2023.2.3,Win32,59.88023952,65dbad3905fde4fe1981dc61,65dcba491eb656fe97f90d76,,,,,,,,,,,467.8083,1.2,469.0079,469.008,469.6912,right,1,0.6747,,469.6912,470.6911,2,3,19,0,1,total,2,images/Ex5.jpg,right,reversed,easy,3,,,,,
,,,,,60723c224e9193e5d5fe5712,001,32,non binary,italian,some university no degree,2024-02-26_16h20.55.391,CRL1e,2023.2.3,Win32,59.88023952,65dbad3905fde4fe1981dc61,65dcba491eb656fe97f90d76,,,,,,,,,,,470.6914,1.5,472.1914,472.1914,473.4582,right,1,1.2552,,473.4582,474.4582,2,4,20,3,1,total,2,images/Ex6.jpg,right,reversed,easy,3,,,,,
,,,,,60723c224e9193e5d5fe5712,001,32,non binary,italian,some university no degree,2024-02-26_16h20.55.391,CRL1e,2023.2.3,Win32,59.88023952,65dbad3905fde4fe1981dc61,65dcba491eb656fe97f90d76,,,,,,,,,,,474.4585,1.2,475.6575,475.6576,476.3411,left,1,0.6739,,476.3411,477.3414,2,5,21,4,1,total,2,images/Ex7.jpg,left,reversed,easy,3,,,,,
,,,,,60723c224e9193e5d5fe5712,001,32,non binary,italian,some university no degree,2024-02-26_16h20.55.391,CRL1e,2023.2.3,Win32,59.88023952,65dbad3905fde4fe1981dc61,65dcba491eb656fe97f90d76,,,,,,,,,,,477.3417,0.7,478.0412,478.0412,479.0418,right,1,0.9887,,479.0418,480.0413,2,6,22,1,1,total,2,images/Ex5.jpg,right,reversed,easy,3,,,,,
,,,,,60723c224e9193e5d5fe5712,001,32,non binary,italian,some university no degree,2024-02-26_16h20.55.391,CRL1e,2023.2.3,Win32,59.88023952,65dbad3905fde4fe1981dc61,65dcba491eb656fe97f90d76,,,,,,,,,,,480.0416,0.8,480.8412,480.8412,481.7248,left,1,0.8718,,481.7249,482.7249,2,7,23,7,1,total,2,images/Ex8.jpg,left,reversed,easy,3,,,,,
,,,,,60723c224e9193e5d5fe5712,001,32,non binary,italian,some university no degree,2024-02-26_16h20.55.391,CRL1e,2023.2.3,Win32,59.88023952,65dbad3905fde4fe1981dc61,65dcba491eb656fe97f90d76,,,,,,,,,,,482.7252,0.9,483.6246,483.6246,484.3084,right,1,0.6733,,484.3085,485.3083,3,0,24,3,1,total,2,images/Ex6.jpg,right,reversed,easy,3,,,,,
,,,,,60723c224e9193e5d5fe5712,001,32,non binary,italian,some university no degree,2024-02-26_16h20.55.391,CRL1e,2023.2.3,Win32,59.88023952,65dbad3905fde4fe1981dc61,65dcba491eb656fe97f90d76,,,,,,,,,,,485.3086,0.8,486.1083,486.1083,486.8414,left,1,0.73,,486.8414,487.8413,3,1,25,5,1,total,2,images/Ex7.jpg,left,reversed,easy,3,,,,,
,,,,,60723c224e9193e5d5fe5712,001,32,non binary,italian,some university no degree,2024-02-26_16h20.55.391,CRL1e,2023.2.3,Win32,59.88023952,65dbad3905fde4fe1981dc61,65dcba491eb656fe97f90d76,,,,,,,,,,,487.8417,1.2,489.0417,489.0417,489.4754,left,1,0.4242,,489.4754,490.4747,3,2,26,6,1,total,2,images/Ex8.jpg,left,reversed,easy,3,,,,,
,,,,,60723c224e9193e5d5fe5712,001,32,non binary,italian,some university no degree,2024-02-26_16h20.55.391,CRL1e,2023.2.3,Win32,59.88023952,65dbad3905fde4fe1981dc61,65dcba491eb656fe97f90d76,,,,,,,,,,,490.4751,0.6,491.0751,491.0752,491.6252,right,1,0.5404,,491.6252,492.625,3,3,27,1,1,total,2,images/Ex5.jpg,right,reversed,easy,3,,,,,
,,,,,60723c224e9193e5d5fe5712,001,32,non binary,italian,some university no degree,2024-02-26_16h20.55.391,CRL1e,2023.2.3,Win32,59.88023952,65dbad3905fde4fe1981dc61,65dcba491eb656fe97f90d76,,,,,,,,,,,492.6254,1.4,494.0248,494.0248,494.6581,right,1,0.6242,,494.6581,495.6581,3,4,28,2,1,total,2,images/Ex6.jpg,right,reversed,easy,3,,,,,
,,,,,60723c224e9193e5d5fe5712,001,32,non binary,italian,some university no degree,2024-02-26_16h20.55.391,CRL1e,2023.2.3,Win32,59.88023952,65dbad3905fde4fe1981dc61,65dcba491eb656fe97f90d76,,,,,,,,,,,495.6585,1.2,496.8586,496.8586,497.4414,right,1,0.5715,,497.4415,498.4418,3,5,29,0,1,total,2,images/Ex5.jpg,right,reversed,easy,3,,,,,
,,,,,60723c224e9193e5d5fe5712,001,32,non binary,italian,some university no degree,2024-02-26_16h20.55.391,CRL1e,2023.2.3,Win32,59.88023952,65dbad3905fde4fe1981dc61,65dcba491eb656fe97f90d76,,,,,,,,,,,498.4421,0.9,499.3414,499.3414,499.925,left,1,0.5727,,499.925,500.9251,3,6,30,4,1,total,2,images/Ex7.jpg,left,reversed,easy,3,,,,,
,,,,,60723c224e9193e5d5fe5712,001,32,non binary,italian,some university no degree,2024-02-26_16h20.55.391,CRL1e,2023.2.3,Win32,59.88023952,65dbad3905fde4fe1981dc61,65dcba491eb656fe97f90d76,,,,,,,,,,,500.9255,1,501.9252,501.9252,502.3087,left,1,0.372,,502.3087,503.3083,3,7,31,7,1,total,2,images/Ex8.jpg,left,reversed,easy,3,,,,,
,,,,,60723c224e9193e5d5fe5712,001,32,non binary,italian,some university no degree,2024-02-26_16h20.55.391,CRL1e,2023.2.3,Win32,59.88023952,65dbad3905fde4fe1981dc61,65dcba491eb656fe97f90d76,,,,,,,,,,,503.3087,0.9,504.2083,504.2084,504.6586,left,1,0.4448,,504.6586,505.6588,4,0,32,4,1,total,2,images/Ex7.jpg,left,reversed,easy,3,,,,,
,,,,,60723c224e9193e5d5fe5712,001,32,non binary,italian,some university no degree,2024-02-26_16h20.55.391,CRL1e,2023.2.3,Win32,59.88023952,65dbad3905fde4fe1981dc61,65dcba491eb656fe97f90d76,,,,,,,,,,,505.6592,1,506.6585,506.6586,507.2753,right,1,0.6127,,507.2754,508.2753,4,1,33,1,1,total,2,images/Ex5.jpg,right,reversed,easy,3,,,,,
,,,,,60723c224e9193e5d5fe5712,001,32,non binary,italian,some university no degree,2024-02-26_16h20.55.391,CRL1e,2023.2.3,Win32,59.88023952,65dbad3905fde4fe1981dc61,65dcba491eb656fe97f90d76,,,,,,,,,,,508.2756,1.3,509.5754,509.5755,510.2086,right,1,0.6224,,510.2086,511.2083,4,2,34,2,1,total,2,images/Ex6.jpg,right,reversed,easy,3,,,,,
,,,,,60723c224e9193e5d5fe5712,001,32,non binary,italian,some university no degree,2024-02-26_16h20.55.391,CRL1e,2023.2.3,Win32,59.88023952,65dbad3905fde4fe1981dc61,65dcba491eb656fe97f90d76,,,,,,,,,,,511.2086,1.3,512.5088,512.5088,513.0754,left,1,0.5574,,513.0754,514.0752,4,3,35,5,1,total,2,images/Ex7.jpg,left,reversed,easy,3,,,,,
,,,,,60723c224e9193e5d5fe5712,001,32,non binary,italian,some university no degree,2024-02-26_16h20.55.391,CRL1e,2023.2.3,Win32,59.88023952,65dbad3905fde4fe1981dc61,65dcba491eb656fe97f90d76,,,,,,,,,,,514.0755,0.8,514.8753,514.8754,515.3756,right,1,0.4914,,515.3756,516.3753,4,4,36,0,1,total,2,images/Ex5.jpg,right,reversed,easy,3,,,,,
,,,,,60723c224e9193e5d5fe5712,001,32,non binary,italian,some university no degree,2024-02-26_16h20.55.391,CRL1e,2023.2.3,Win32,59.88023952,65dbad3905fde4fe1981dc61,65dcba491eb656fe97f90d76,,,,,,,,,,,516.3756,1.2,517.5754,517.5755,518.0755,left,1,0.4879,,518.0755,519.0754,4,5,37,7,1,total,2,images/Ex8.jpg,left,reversed,easy,3,,,,,
,,,,,60723c224e9193e5d5fe5712,001,32,non binary,italian,some university no degree,2024-02-26_16h20.55.391,CRL1e,2023.2.3,Win32,59.88023952,65dbad3905fde4fe1981dc61,65dcba491eb656fe97f90d76,,,,,,,,,,,519.0759,0.7,519.7752,519.7753,520.3255,left,0,0.5441,,520.3256,521.3254,4,6,38,3,1,total,2,images/Ex6.jpg,right,reversed,easy,3,,,,,
,,,,,60723c224e9193e5d5fe5712,001,32,non binary,italian,some university no degree,2024-02-26_16h20.55.391,CRL1e,2023.2.3,Win32,59.88023952,65dbad3905fde4fe1981dc61,65dcba491eb656fe97f90d76,,,,,,,,,,,521.3258,0.7,522.0255,522.0255,522.6922,left,1,0.658,,522.6923,523.6922,4,7,39,6,1,total,2,images/Ex8.jpg,left,reversed,easy,3,,,,,
,,,,,60723c224e9193e5d5fe5712,001,32,non binary,italian,some university no degree,2024-02-26_16h20.55.391,CRL1e,2023.2.3,Win32,59.88023952,65dbad3905fde4fe1981dc61,65dcba491eb656fe97f90d76,,,,,,,,,,,523.6926,1.4,525.092,525.0921,525.5758,left,1,0.4747,,525.5759,526.5755,5,0,40,5,1,total,2,images/Ex7.jpg,left,reversed,easy,3,,,,,
,,,,,60723c224e9193e5d5fe5712,001,32,non binary,italian,some university no degree,2024-02-26_16h20.55.391,CRL1e,2023.2.3,Win32,59.88023952,65dbad3905fde4fe1981dc61,65dcba491eb656fe97f90d76,,,,,,,,,,,526.576,0.9,527.4757,527.4757,528.0088,left,1,0.5215,,528.0088,529.0086,5,1,41,6,1,total,2,images/Ex8.jpg,left,reversed,easy,3,,,,,
,,,,,60723c224e9193e5d5fe5712,001,32,non binary,italian,some university no degree,2024-02-26_16h20.55.391,CRL1e,2023.2.3,Win32,59.88023952,65dbad3905fde4fe1981dc61,65dcba491eb656fe97f90d76,,,,,,,,,,,529.0088,1,530.009,530.009,530.6424,right,1,0.6302,,530.6425,531.6423,5,2,42,1,1,total,2,images/Ex5.jpg,right,reversed,easy,3,,,,,
,,,,,60723c224e9193e5d5fe5712,001,32,non binary,italian,some university no degree,2024-02-26_16h20.55.391,CRL1e,2023.2.3,Win32,59.88023952,65dbad3905fde4fe1981dc61,65dcba491eb656fe97f90d76,,,,,,,,,,,531.6427,0.8,532.4419,532.442,533.0591,right,1,0.6127,,533.0591,534.0591,5,3,43,2,1,total,2,images/Ex6.jpg,right,reversed,easy,3,,,,,
,,,,,60723c224e9193e5d5fe5712,001,32,non binary,italian,some university no degree,2024-02-26_16h20.55.391,CRL1e,2023.2.3,Win32,59.88023952,65dbad3905fde4fe1981dc61,65dcba491eb656fe97f90d76,,,,,,,,,,,534.0594,0.8,534.859,534.859,535.4258,right,1,0.5549,,535.4258,536.4254,5,4,44,0,1,total,2,images/Ex5.jpg,right,reversed,easy,3,,,,,
,,,,,60723c224e9193e5d5fe5712,001,32,non binary,italian,some university no degree,2024-02-26_16h20.55.391,CRL1e,2023.2.3,Win32,59.88023952,65dbad3905fde4fe1981dc61,65dcba491eb656fe97f90d76,,,,,,,,,,,536.4257,1.1,537.5257,537.5257,538.1256,left,1,0.5962,,538.1256,539.1258,5,5,45,4,1,total,2,images/Ex7.jpg,left,reversed,easy,3,,,,,
,,,,,60723c224e9193e5d5fe5712,001,32,non binary,italian,some university no degree,2024-02-26_16h20.55.391,CRL1e,2023.2.3,Win32,59.88023952,65dbad3905fde4fe1981dc61,65dcba491eb656fe97f90d76,,,,,,,,,,,539.1261,1.1,540.2257,540.2257,540.709,left,1,0.4825,,540.709,541.7092,5,6,46,7,1,total,2,images/Ex8.jpg,left,reversed,easy,3,,,,,
,,,,,60723c224e9193e5d5fe5712,001,32,non binary,italian,some university no degree,2024-02-26_16h20.55.391,CRL1e,2023.2.3,Win32,59.88023952,65dbad3905fde4fe1981dc61,65dcba491eb656fe97f90d76,,,,,,,,,,,541.7096,1.4,543.1086,543.1087,543.5094,right,1,0.3889,,543.5094,544.509,5,7,47,3,1,total,2,images/Ex6.jpg,right,reversed,easy,3,,,,,
,,,,,60723c224e9193e5d5fe5712,001,32,non binary,italian,some university no degree,2024-02-26_16h20.55.391,CRL1e,2023.2.3,Win32,59.88023952,65dbad3905fde4fe1981dc61,65dcba491eb656fe97f90d76,,,,,,,,,,,,,,,,,,,,,,,,,,,,,,,,,,544.5095,557.5098,space,12.9755,