infCons.started,infCons.stopped,resp_consent.keys,resp_consent.rt,resp_consent.duration,participant,session,Age?,Gender?,Nationality?,Highest Educational Degree?,date,expName,psychopyVersion,OS,frameRate,STUDY_ID,SESSION_ID,instructions.started,instructions.stopped,resp_instructions.keys,resp_instructions.rt,resp_instructions.duration,nextTask.started,nextTask.stopped,ready_task.keys,ready_task.rt,ready_task.duration,fixation.started,ITI,fixation.stopped,stim.started,stim.stopped,response.keys,response.corr,response.rt,response.duration,feedback.started,feedback.stopped,trials.thisRepN,trials.thisTrialN,trials.thisN,trials.thisIndex,trials.ran,task,phase,Exemplars,r_correct,condition,difficulty,set,end.started,end.stopped,resp_end.keys,resp_end.rt,resp_end.duration
0,45.37,space,45.314,,632222532c12ab0ab7ca00bd,001,30,Male,British,GCSE Level 2 NVQ AS,2024-02-26_20h43.44.299,CRL1e,2023.2.3,Win32,55.55555556,65dbad3905fde4fe1981dc61,65dcf750b67014841028363a,,,,,,,,,,,,,,,,,,,,,,,,,,,,,,,,,,,,,,
,,,,,632222532c12ab0ab7ca00bd,001,30,Male,British,GCSE Level 2 NVQ AS,2024-02-26_20h43.44.299,CRL1e,2023.2.3,Win32,55.55555556,65dbad3905fde4fe1981dc61,65dcf750b67014841028363a,45.371,83.996,space,38.594,,,,,,,,,,,,,,,,,,,,,,,,,,,,,,,,,,
,,,,,632222532c12ab0ab7ca00bd,001,30,Male,British,GCSE Level 2 NVQ AS,2024-02-26_20h43.44.299,CRL1e,2023.2.3,Win32,55.55555556,65dbad3905fde4fe1981dc61,65dcf750b67014841028363a,,,,,,84.036,133.126,space,49.068,,133.171,0.5,133.674,133.674,137.756,left,0,4.051,,137.782,138.751,0,0,0,7,1,partial,1,images/Ex12.jpg,right,training,easy,8,,,,,
,,,,,632222532c12ab0ab7ca00bd,001,30,Male,British,GCSE Level 2 NVQ AS,2024-02-26_20h43.44.299,CRL1e,2023.2.3,Win32,55.55555556,65dbad3905fde4fe1981dc61,65dcf750b67014841028363a,,,,,,,,,,,138.756,0.8,139.55,139.55,140.823,right,1,1.272,,140.823,141.814,0,1,1,6,1,partial,1,images/Ex12.jpg,right,training,easy,8,,,,,
,,,,,632222532c12ab0ab7ca00bd,001,30,Male,British,GCSE Level 2 NVQ AS,2024-02-26_20h43.44.299,CRL1e,2023.2.3,Win32,55.55555556,65dbad3905fde4fe1981dc61,65dcf750b67014841028363a,,,,,,,,,,,141.816,0.8,142.613,142.613,144.278,left,1,1.654,,144.278,145.276,0,2,2,2,1,partial,1,images/Ex10.jpg,left,training,easy,8,,,,,
,,,,,632222532c12ab0ab7ca00bd,001,30,Male,British,GCSE Level 2 NVQ AS,2024-02-26_20h43.44.299,CRL1e,2023.2.3,Win32,55.55555556,65dbad3905fde4fe1981dc61,65dcf750b67014841028363a,,,,,,,,,,,145.308,1.1,146.41,146.41,147.458,left,1,1.039,,147.458,148.457,0,3,3,3,1,partial,1,images/Ex10.jpg,left,training,easy,8,,,,,
,,,,,632222532c12ab0ab7ca00bd,001,30,Male,British,GCSE Level 2 NVQ AS,2024-02-26_20h43.44.299,CRL1e,2023.2.3,Win32,55.55555556,65dbad3905fde4fe1981dc61,65dcf750b67014841028363a,,,,,,,,,,,148.458,1.1,149.557,149.558,150.694,right,1,1.134,,150.694,151.688,0,4,4,5,1,partial,1,images/Ex11.jpg,right,training,easy,8,,,,,
,,,,,632222532c12ab0ab7ca00bd,001,30,Male,British,GCSE Level 2 NVQ AS,2024-02-26_20h43.44.299,CRL1e,2023.2.3,Win32,55.55555556,65dbad3905fde4fe1981dc61,65dcf750b67014841028363a,,,,,,,,,,,151.689,1.3,152.99,152.99,153.874,right,0,0.882,,153.874,154.867,0,5,5,0,1,partial,1,images/Ex9.jpg,left,training,easy,8,,,,,
,,,,,632222532c12ab0ab7ca00bd,001,30,Male,British,GCSE Level 2 NVQ AS,2024-02-26_20h43.44.299,CRL1e,2023.2.3,Win32,55.55555556,65dbad3905fde4fe1981dc61,65dcf750b67014841028363a,,,,,,,,,,,154.869,1.3,156.172,156.172,157.237,left,1,1.063,,157.237,158.231,0,6,6,1,1,partial,1,images/Ex9.jpg,left,training,easy,8,,,,,
,,,,,632222532c12ab0ab7ca00bd,001,30,Male,British,GCSE Level 2 NVQ AS,2024-02-26_20h43.44.299,CRL1e,2023.2.3,Win32,55.55555556,65dbad3905fde4fe1981dc61,65dcf750b67014841028363a,,,,,,,,,,,158.231,1.4,159.636,159.636,160.478,right,1,0.833,,160.479,161.478,0,7,7,4,1,partial,1,images/Ex11.jpg,right,training,easy,8,,,,,
,,,,,632222532c12ab0ab7ca00bd,001,30,Male,British,GCSE Level 2 NVQ AS,2024-02-26_20h43.44.299,CRL1e,2023.2.3,Win32,55.55555556,65dbad3905fde4fe1981dc61,65dcf750b67014841028363a,,,,,,,,,,,161.48,0.9,162.375,162.375,162.974,left,1,0.59,,162.974,163.972,1,0,8,3,1,partial,1,images/Ex10.jpg,left,training,easy,8,,,,,
,,,,,632222532c12ab0ab7ca00bd,001,30,Male,British,GCSE Level 2 NVQ AS,2024-02-26_20h43.44.299,CRL1e,2023.2.3,Win32,55.55555556,65dbad3905fde4fe1981dc61,65dcf750b67014841028363a,,,,,,,,,,,163.973,0.7,164.672,164.672,165.373,right,1,0.695,,165.373,166.371,1,1,9,4,1,partial,1,images/Ex11.jpg,right,training,easy,8,,,,,
,,,,,632222532c12ab0ab7ca00bd,001,30,Male,British,GCSE Level 2 NVQ AS,2024-02-26_20h43.44.299,CRL1e,2023.2.3,Win32,55.55555556,65dbad3905fde4fe1981dc61,65dcf750b67014841028363a,,,,,,,,,,,166.373,0.5,166.87,166.87,167.573,right,1,0.689,,167.573,168.569,1,2,10,5,1,partial,1,images/Ex11.jpg,right,training,easy,8,,,,,
,,,,,632222532c12ab0ab7ca00bd,001,30,Male,British,GCSE Level 2 NVQ AS,2024-02-26_20h43.44.299,CRL1e,2023.2.3,Win32,55.55555556,65dbad3905fde4fe1981dc61,65dcf750b67014841028363a,,,,,,,,,,,168.57,0.8,169.367,169.367,170.132,right,0,0.754,,170.132,171.132,1,3,11,0,1,partial,1,images/Ex9.jpg,left,training,easy,8,,,,,
,,,,,632222532c12ab0ab7ca00bd,001,30,Male,British,GCSE Level 2 NVQ AS,2024-02-26_20h43.44.299,CRL1e,2023.2.3,Win32,55.55555556,65dbad3905fde4fe1981dc61,65dcf750b67014841028363a,,,,,,,,,,,171.135,0.7,171.831,171.831,172.347,left,1,0.513,,172.347,173.347,1,4,12,1,1,partial,1,images/Ex9.jpg,left,training,easy,8,,,,,
,,,,,632222532c12ab0ab7ca00bd,001,30,Male,British,GCSE Level 2 NVQ AS,2024-02-26_20h43.44.299,CRL1e,2023.2.3,Win32,55.55555556,65dbad3905fde4fe1981dc61,65dcf750b67014841028363a,,,,,,,,,,,173.348,0.8,174.146,174.146,174.748,right,1,0.591,,174.748,175.743,1,5,13,7,1,partial,1,images/Ex12.jpg,right,training,easy,8,,,,,
,,,,,632222532c12ab0ab7ca00bd,001,30,Male,British,GCSE Level 2 NVQ AS,2024-02-26_20h43.44.299,CRL1e,2023.2.3,Win32,55.55555556,65dbad3905fde4fe1981dc61,65dcf750b67014841028363a,,,,,,,,,,,175.745,0.9,176.642,176.642,177.226,left,1,0.573,,177.226,178.224,1,6,14,2,1,partial,1,images/Ex10.jpg,left,training,easy,8,,,,,
,,,,,632222532c12ab0ab7ca00bd,001,30,Male,British,GCSE Level 2 NVQ AS,2024-02-26_20h43.44.299,CRL1e,2023.2.3,Win32,55.55555556,65dbad3905fde4fe1981dc61,65dcf750b67014841028363a,,,,,,,,,,,178.225,0.8,179.023,179.023,179.896,left,0,0.87,,179.896,180.889,1,7,15,6,1,partial,1,images/Ex12.jpg,right,training,easy,8,,,,,
,,,,,632222532c12ab0ab7ca00bd,001,30,Male,British,GCSE Level 2 NVQ AS,2024-02-26_20h43.44.299,CRL1e,2023.2.3,Win32,55.55555556,65dbad3905fde4fe1981dc61,65dcf750b67014841028363a,,,,,,,,,,,180.891,1.4,182.291,182.291,183.11,left,1,0.815,,183.11,184.102,2,0,16,2,1,partial,1,images/Ex10.jpg,left,training,easy,8,,,,,
,,,,,632222532c12ab0ab7ca00bd,001,30,Male,British,GCSE Level 2 NVQ AS,2024-02-26_20h43.44.299,CRL1e,2023.2.3,Win32,55.55555556,65dbad3905fde4fe1981dc61,65dcf750b67014841028363a,,,,,,,,,,,184.103,0.7,184.805,184.805,185.352,right,1,0.534,,185.352,186.35,2,1,17,7,1,partial,1,images/Ex12.jpg,right,training,easy,8,,,,,
,,,,,632222532c12ab0ab7ca00bd,001,30,Male,British,GCSE Level 2 NVQ AS,2024-02-26_20h43.44.299,CRL1e,2023.2.3,Win32,55.55555556,65dbad3905fde4fe1981dc61,65dcf750b67014841028363a,,,,,,,,,,,186.351,1.5,187.848,187.848,188.813,right,1,0.953,,188.813,189.813,2,2,18,4,1,partial,1,images/Ex11.jpg,right,training,easy,8,,,,,
,,,,,632222532c12ab0ab7ca00bd,001,30,Male,British,GCSE Level 2 NVQ AS,2024-02-26_20h43.44.299,CRL1e,2023.2.3,Win32,55.55555556,65dbad3905fde4fe1981dc61,65dcf750b67014841028363a,,,,,,,,,,,189.814,0.9,190.711,190.711,191.311,left,1,0.587,,191.311,192.31,2,3,19,1,1,partial,1,images/Ex9.jpg,left,training,easy,8,,,,,
,,,,,632222532c12ab0ab7ca00bd,001,30,Male,British,GCSE Level 2 NVQ AS,2024-02-26_20h43.44.299,CRL1e,2023.2.3,Win32,55.55555556,65dbad3905fde4fe1981dc61,65dcf750b67014841028363a,,,,,,,,,,,192.311,0.5,192.809,192.809,193.524,left,1,0.706,,193.524,194.522,2,4,20,3,1,partial,1,images/Ex10.jpg,left,training,easy,8,,,,,
,,,,,632222532c12ab0ab7ca00bd,001,30,Male,British,GCSE Level 2 NVQ AS,2024-02-26_20h43.44.299,CRL1e,2023.2.3,Win32,55.55555556,65dbad3905fde4fe1981dc61,65dcf750b67014841028363a,,,,,,,,,,,194.523,1.5,196.024,196.025,197.471,left,1,1.437,,197.472,198.469,2,5,21,0,1,partial,1,images/Ex9.jpg,left,training,easy,8,,,,,
,,,,,632222532c12ab0ab7ca00bd,001,30,Male,British,GCSE Level 2 NVQ AS,2024-02-26_20h43.44.299,CRL1e,2023.2.3,Win32,55.55555556,65dbad3905fde4fe1981dc61,65dcf750b67014841028363a,,,,,,,,,,,198.471,0.8,199.268,199.268,199.85,right,1,0.577,,199.85,200.85,2,6,22,5,1,partial,1,images/Ex11.jpg,right,training,easy,8,,,,,
,,,,,632222532c12ab0ab7ca00bd,001,30,Male,British,GCSE Level 2 NVQ AS,2024-02-26_20h43.44.299,CRL1e,2023.2.3,Win32,55.55555556,65dbad3905fde4fe1981dc61,65dcf750b67014841028363a,,,,,,,,,,,200.852,1,201.848,201.848,202.616,right,1,0.754,,202.616,203.612,2,7,23,6,1,partial,1,images/Ex12.jpg,right,training,easy,8,,,,,
,,,,,632222532c12ab0ab7ca00bd,001,30,Male,British,GCSE Level 2 NVQ AS,2024-02-26_20h43.44.299,CRL1e,2023.2.3,Win32,55.55555556,65dbad3905fde4fe1981dc61,65dcf750b67014841028363a,,,,,,,,,,,203.613,1.5,205.111,205.111,206.03,left,1,0.915,,206.03,207.026,3,0,24,1,1,partial,1,images/Ex9.jpg,left,training,easy,8,,,,,
,,,,,632222532c12ab0ab7ca00bd,001,30,Male,British,GCSE Level 2 NVQ AS,2024-02-26_20h43.44.299,CRL1e,2023.2.3,Win32,55.55555556,65dbad3905fde4fe1981dc61,65dcf750b67014841028363a,,,,,,,,,,,207.027,0.5,207.525,207.525,208.292,right,1,0.755,,208.293,209.29,3,1,25,5,1,partial,1,images/Ex11.jpg,right,training,easy,8,,,,,
,,,,,632222532c12ab0ab7ca00bd,001,30,Male,British,GCSE Level 2 NVQ AS,2024-02-26_20h43.44.299,CRL1e,2023.2.3,Win32,55.55555556,65dbad3905fde4fe1981dc61,65dcf750b67014841028363a,,,,,,,,,,,209.292,1.4,210.689,210.689,211.357,left,1,0.657,,211.357,212.353,3,2,26,2,1,partial,1,images/Ex10.jpg,left,training,easy,8,,,,,
,,,,,632222532c12ab0ab7ca00bd,001,30,Male,British,GCSE Level 2 NVQ AS,2024-02-26_20h43.44.299,CRL1e,2023.2.3,Win32,55.55555556,65dbad3905fde4fe1981dc61,65dcf750b67014841028363a,,,,,,,,,,,212.354,0.9,213.251,213.251,213.987,left,1,0.724,,213.988,214.983,3,3,27,0,1,partial,1,images/Ex9.jpg,left,training,easy,8,,,,,
,,,,,632222532c12ab0ab7ca00bd,001,30,Male,British,GCSE Level 2 NVQ AS,2024-02-26_20h43.44.299,CRL1e,2023.2.3,Win32,55.55555556,65dbad3905fde4fe1981dc61,65dcf750b67014841028363a,,,,,,,,,,,214.984,1,215.983,215.983,217.199,left,0,1.206,,217.2,218.197,3,4,28,7,1,partial,1,images/Ex12.jpg,right,training,easy,8,,,,,
,,,,,632222532c12ab0ab7ca00bd,001,30,Male,British,GCSE Level 2 NVQ AS,2024-02-26_20h43.44.299,CRL1e,2023.2.3,Win32,55.55555556,65dbad3905fde4fe1981dc61,65dcf750b67014841028363a,,,,,,,,,,,218.198,0.7,218.897,218.897,219.346,right,1,0.443,,219.346,220.345,3,5,29,6,1,partial,1,images/Ex12.jpg,right,training,easy,8,,,,,
,,,,,632222532c12ab0ab7ca00bd,001,30,Male,British,GCSE Level 2 NVQ AS,2024-02-26_20h43.44.299,CRL1e,2023.2.3,Win32,55.55555556,65dbad3905fde4fe1981dc61,65dcf750b67014841028363a,,,,,,,,,,,220.346,0.9,221.243,221.243,221.926,right,1,0.67,,221.926,222.925,3,6,30,4,1,partial,1,images/Ex11.jpg,right,training,easy,8,,,,,
,,,,,632222532c12ab0ab7ca00bd,001,30,Male,British,GCSE Level 2 NVQ AS,2024-02-26_20h43.44.299,CRL1e,2023.2.3,Win32,55.55555556,65dbad3905fde4fe1981dc61,65dcf750b67014841028363a,,,,,,,,,,,222.927,0.7,223.624,223.624,224.192,left,1,0.558,,224.192,225.189,3,7,31,3,1,partial,1,images/Ex10.jpg,left,training,easy,8,,,,,
,,,,,632222532c12ab0ab7ca00bd,001,30,Male,British,GCSE Level 2 NVQ AS,2024-02-26_20h43.44.299,CRL1e,2023.2.3,Win32,55.55555556,65dbad3905fde4fe1981dc61,65dcf750b67014841028363a,,,,,,,,,,,225.192,1.2,226.388,226.388,227.371,right,1,0.979,,227.371,228.37,4,0,32,5,1,partial,1,images/Ex11.jpg,right,training,easy,8,,,,,
,,,,,632222532c12ab0ab7ca00bd,001,30,Male,British,GCSE Level 2 NVQ AS,2024-02-26_20h43.44.299,CRL1e,2023.2.3,Win32,55.55555556,65dbad3905fde4fe1981dc61,65dcf750b67014841028363a,,,,,,,,,,,228.372,0.7,229.068,229.069,229.568,left,1,0.487,,229.568,230.568,4,1,33,3,1,partial,1,images/Ex10.jpg,left,training,easy,8,,,,,
,,,,,632222532c12ab0ab7ca00bd,001,30,Male,British,GCSE Level 2 NVQ AS,2024-02-26_20h43.44.299,CRL1e,2023.2.3,Win32,55.55555556,65dbad3905fde4fe1981dc61,65dcf750b67014841028363a,,,,,,,,,,,230.569,1.4,231.965,231.965,232.7,left,1,0.727,,232.701,233.696,4,2,34,0,1,partial,1,images/Ex9.jpg,left,training,easy,8,,,,,
,,,,,632222532c12ab0ab7ca00bd,001,30,Male,British,GCSE Level 2 NVQ AS,2024-02-26_20h43.44.299,CRL1e,2023.2.3,Win32,55.55555556,65dbad3905fde4fe1981dc61,65dcf750b67014841028363a,,,,,,,,,,,233.698,0.7,234.396,234.397,234.85,right,1,0.442,,234.85,235.844,4,3,35,4,1,partial,1,images/Ex11.jpg,right,training,easy,8,,,,,
,,,,,632222532c12ab0ab7ca00bd,001,30,Male,British,GCSE Level 2 NVQ AS,2024-02-26_20h43.44.299,CRL1e,2023.2.3,Win32,55.55555556,65dbad3905fde4fe1981dc61,65dcf750b67014841028363a,,,,,,,,,,,235.846,0.9,236.746,236.746,237.293,left,1,0.538,,237.294,238.294,4,4,36,2,1,partial,1,images/Ex10.jpg,left,training,easy,8,,,,,
,,,,,632222532c12ab0ab7ca00bd,001,30,Male,British,GCSE Level 2 NVQ AS,2024-02-26_20h43.44.299,CRL1e,2023.2.3,Win32,55.55555556,65dbad3905fde4fe1981dc61,65dcf750b67014841028363a,,,,,,,,,,,238.294,1.1,239.39,239.39,240.358,right,1,0.958,,240.358,241.354,4,5,37,6,1,partial,1,images/Ex12.jpg,right,training,easy,8,,,,,
,,,,,632222532c12ab0ab7ca00bd,001,30,Male,British,GCSE Level 2 NVQ AS,2024-02-26_20h43.44.299,CRL1e,2023.2.3,Win32,55.55555556,65dbad3905fde4fe1981dc61,65dcf750b67014841028363a,,,,,,,,,,,241.355,0.6,241.957,241.957,242.603,left,1,0.641,,242.603,243.602,4,6,38,1,1,partial,1,images/Ex9.jpg,left,training,easy,8,,,,,
,,,,,632222532c12ab0ab7ca00bd,001,30,Male,British,GCSE Level 2 NVQ AS,2024-02-26_20h43.44.299,CRL1e,2023.2.3,Win32,55.55555556,65dbad3905fde4fe1981dc61,65dcf750b67014841028363a,,,,,,,,,,,243.604,1.4,245.001,245.001,245.835,right,1,0.823,,245.836,246.832,4,7,39,7,1,partial,1,images/Ex12.jpg,right,training,easy,8,,,,,
,,,,,632222532c12ab0ab7ca00bd,001,30,Male,British,GCSE Level 2 NVQ AS,2024-02-26_20h43.44.299,CRL1e,2023.2.3,Win32,55.55555556,65dbad3905fde4fe1981dc61,65dcf750b67014841028363a,,,,,,,,,,,246.833,1.1,247.931,247.931,248.432,left,1,0.494,,248.432,249.429,5,0,40,2,1,partial,1,images/Ex10.jpg,left,training,easy,8,,,,,
,,,,,632222532c12ab0ab7ca00bd,001,30,Male,British,GCSE Level 2 NVQ AS,2024-02-26_20h43.44.299,CRL1e,2023.2.3,Win32,55.55555556,65dbad3905fde4fe1981dc61,65dcf750b67014841028363a,,,,,,,,,,,249.432,1.4,250.827,250.827,251.645,left,1,0.815,,251.645,252.643,5,1,41,1,1,partial,1,images/Ex9.jpg,left,training,easy,8,,,,,
,,,,,632222532c12ab0ab7ca00bd,001,30,Male,British,GCSE Level 2 NVQ AS,2024-02-26_20h43.44.299,CRL1e,2023.2.3,Win32,55.55555556,65dbad3905fde4fe1981dc61,65dcf750b67014841028363a,,,,,,,,,,,252.645,0.7,253.341,253.341,254.011,right,1,0.665,,254.011,255.006,5,2,42,7,1,partial,1,images/Ex12.jpg,right,training,easy,8,,,,,
,,,,,632222532c12ab0ab7ca00bd,001,30,Male,British,GCSE Level 2 NVQ AS,2024-02-26_20h43.44.299,CRL1e,2023.2.3,Win32,55.55555556,65dbad3905fde4fe1981dc61,65dcf750b67014841028363a,,,,,,,,,,,255.008,0.9,255.906,255.906,256.571,right,1,0.654,,256.571,257.571,5,3,43,6,1,partial,1,images/Ex12.jpg,right,training,easy,8,,,,,
,,,,,632222532c12ab0ab7ca00bd,001,30,Male,British,GCSE Level 2 NVQ AS,2024-02-26_20h43.44.299,CRL1e,2023.2.3,Win32,55.55555556,65dbad3905fde4fe1981dc61,65dcf750b67014841028363a,,,,,,,,,,,257.573,0.7,258.27,258.27,258.956,left,1,0.68,,258.956,259.951,5,4,44,0,1,partial,1,images/Ex9.jpg,left,training,easy,8,,,,,
,,,,,632222532c12ab0ab7ca00bd,001,30,Male,British,GCSE Level 2 NVQ AS,2024-02-26_20h43.44.299,CRL1e,2023.2.3,Win32,55.55555556,65dbad3905fde4fe1981dc61,65dcf750b67014841028363a,,,,,,,,,,,259.953,0.6,260.551,260.551,261.366,right,1,0.81,,261.366,262.365,5,5,45,4,1,partial,1,images/Ex11.jpg,right,training,easy,8,,,,,
,,,,,632222532c12ab0ab7ca00bd,001,30,Male,British,GCSE Level 2 NVQ AS,2024-02-26_20h43.44.299,CRL1e,2023.2.3,Win32,55.55555556,65dbad3905fde4fe1981dc61,65dcf750b67014841028363a,,,,,,,,,,,262.367,0.7,263.065,263.065,263.567,right,1,0.5,,263.567,264.562,5,6,46,5,1,partial,1,images/Ex11.jpg,right,training,easy,8,,,,,
,,,,,632222532c12ab0ab7ca00bd,001,30,Male,British,GCSE Level 2 NVQ AS,2024-02-26_20h43.44.299,CRL1e,2023.2.3,Win32,55.55555556,65dbad3905fde4fe1981dc61,65dcf750b67014841028363a,,,,,,,,,,,264.562,1,265.562,265.562,266.012,left,1,0.437,,266.012,267.01,5,7,47,3,1,partial,1,images/Ex10.jpg,left,training,easy,8,,,,,
,,,,,632222532c12ab0ab7ca00bd,001,30,Male,British,GCSE Level 2 NVQ AS,2024-02-26_20h43.44.299,CRL1e,2023.2.3,Win32,55.55555556,65dbad3905fde4fe1981dc61,65dcf750b67014841028363a,,,,,,,,,,,267.013,0.9,267.912,267.912,268.525,left,0,0.602,,268.525,269.523,0,0,0,1,1,partial,2,images/Ex9.jpg,right,reversed,easy,8,,,,,
,,,,,632222532c12ab0ab7ca00bd,001,30,Male,British,GCSE Level 2 NVQ AS,2024-02-26_20h43.44.299,CRL1e,2023.2.3,Win32,55.55555556,65dbad3905fde4fe1981dc61,65dcf750b67014841028363a,,,,,,,,,,,269.524,0.6,270.123,270.123,270.872,right,1,0.74,,270.873,271.871,0,1,1,6,1,partial,2,images/Ex12.jpg,right,nonreversed,easy,8,,,,,
,,,,,632222532c12ab0ab7ca00bd,001,30,Male,British,GCSE Level 2 NVQ AS,2024-02-26_20h43.44.299,CRL1e,2023.2.3,Win32,55.55555556,65dbad3905fde4fe1981dc61,65dcf750b67014841028363a,,,,,,,,,,,271.874,1.1,272.969,272.969,273.573,left,1,0.599,,273.573,274.569,0,2,2,3,1,partial,2,images/Ex10.jpg,left,nonreversed,easy,8,,,,,
,,,,,632222532c12ab0ab7ca00bd,001,30,Male,British,GCSE Level 2 NVQ AS,2024-02-26_20h43.44.299,CRL1e,2023.2.3,Win32,55.55555556,65dbad3905fde4fe1981dc61,65dcf750b67014841028363a,,,,,,,,,,,274.57,0.9,275.466,275.466,276.1,left,0,0.621,,276.1,277.1,0,3,3,0,1,partial,2,images/Ex9.jpg,right,reversed,easy,8,,,,,
,,,,,632222532c12ab0ab7ca00bd,001,30,Male,British,GCSE Level 2 NVQ AS,2024-02-26_20h43.44.299,CRL1e,2023.2.3,Win32,55.55555556,65dbad3905fde4fe1981dc61,65dcf750b67014841028363a,,,,,,,,,,,277.101,0.8,277.897,277.897,278.647,right,0,0.743,,278.647,279.648,0,4,4,4,1,partial,2,images/Ex11.jpg,left,reversed,easy,8,,,,,
,,,,,632222532c12ab0ab7ca00bd,001,30,Male,British,GCSE Level 2 NVQ AS,2024-02-26_20h43.44.299,CRL1e,2023.2.3,Win32,55.55555556,65dbad3905fde4fe1981dc61,65dcf750b67014841028363a,,,,,,,,,,,279.65,0.8,280.444,280.444,281.046,left,1,0.599,,281.046,282.043,0,5,5,2,1,partial,2,images/Ex10.jpg,left,nonreversed,easy,8,,,,,
,,,,,632222532c12ab0ab7ca00bd,001,30,Male,British,GCSE Level 2 NVQ AS,2024-02-26_20h43.44.299,CRL1e,2023.2.3,Win32,55.55555556,65dbad3905fde4fe1981dc61,65dcf750b67014841028363a,,,,,,,,,,,282.043,0.8,282.842,282.842,283.56,right,1,0.707,,283.56,284.557,0,6,6,7,1,partial,2,images/Ex12.jpg,right,nonreversed,easy,8,,,,,
,,,,,632222532c12ab0ab7ca00bd,001,30,Male,British,GCSE Level 2 NVQ AS,2024-02-26_20h43.44.299,CRL1e,2023.2.3,Win32,55.55555556,65dbad3905fde4fe1981dc61,65dcf750b67014841028363a,,,,,,,,,,,284.557,1.1,285.656,285.656,286.266,right,0,0.605,,286.266,287.271,0,7,7,5,1,partial,2,images/Ex11.jpg,left,reversed,easy,8,,,,,
,,,,,632222532c12ab0ab7ca00bd,001,30,Male,British,GCSE Level 2 NVQ AS,2024-02-26_20h43.44.299,CRL1e,2023.2.3,Win32,55.55555556,65dbad3905fde4fe1981dc61,65dcf750b67014841028363a,,,,,,,,,,,287.272,1.1,288.37,288.37,289.036,left,1,0.652,,289.036,290.035,1,0,8,5,1,partial,2,images/Ex11.jpg,left,reversed,easy,8,,,,,
,,,,,632222532c12ab0ab7ca00bd,001,30,Male,British,GCSE Level 2 NVQ AS,2024-02-26_20h43.44.299,CRL1e,2023.2.3,Win32,55.55555556,65dbad3905fde4fe1981dc61,65dcf750b67014841028363a,,,,,,,,,,,290.036,1,291.034,291.034,292.007,right,1,0.97,,292.007,292.998,1,1,9,7,1,partial,2,images/Ex12.jpg,right,nonreversed,easy,8,,,,,
,,,,,632222532c12ab0ab7ca00bd,001,30,Male,British,GCSE Level 2 NVQ AS,2024-02-26_20h43.44.299,CRL1e,2023.2.3,Win32,55.55555556,65dbad3905fde4fe1981dc61,65dcf750b67014841028363a,,,,,,,,,,,292.999,0.7,293.702,293.702,294.314,left,1,0.603,,294.314,295.301,1,2,10,2,1,partial,2,images/Ex10.jpg,left,nonreversed,easy,8,,,,,
,,,,,632222532c12ab0ab7ca00bd,001,30,Male,British,GCSE Level 2 NVQ AS,2024-02-26_20h43.44.299,CRL1e,2023.2.3,Win32,55.55555556,65dbad3905fde4fe1981dc61,65dcf750b67014841028363a,,,,,,,,,,,295.301,1.2,296.499,296.499,297.195,right,1,0.686,,297.195,298.199,1,3,11,1,1,partial,2,images/Ex9.jpg,right,reversed,easy,8,,,,,
,,,,,632222532c12ab0ab7ca00bd,001,30,Male,British,GCSE Level 2 NVQ AS,2024-02-26_20h43.44.299,CRL1e,2023.2.3,Win32,55.55555556,65dbad3905fde4fe1981dc61,65dcf750b67014841028363a,,,,,,,,,,,298.199,1.1,299.296,299.296,300.091,right,1,0.784,,300.091,301.09,1,4,12,0,1,partial,2,images/Ex9.jpg,right,reversed,easy,8,,,,,
,,,,,632222532c12ab0ab7ca00bd,001,30,Male,British,GCSE Level 2 NVQ AS,2024-02-26_20h43.44.299,CRL1e,2023.2.3,Win32,55.55555556,65dbad3905fde4fe1981dc61,65dcf750b67014841028363a,,,,,,,,,,,301.092,0.6,301.693,301.694,302.273,left,1,0.569,,302.273,303.271,1,5,13,3,1,partial,2,images/Ex10.jpg,left,nonreversed,easy,8,,,,,
,,,,,632222532c12ab0ab7ca00bd,001,30,Male,British,GCSE Level 2 NVQ AS,2024-02-26_20h43.44.299,CRL1e,2023.2.3,Win32,55.55555556,65dbad3905fde4fe1981dc61,65dcf750b67014841028363a,,,,,,,,,,,303.273,1.3,304.569,304.569,305.141,right,1,0.568,,305.141,306.134,1,6,14,6,1,partial,2,images/Ex12.jpg,right,nonreversed,easy,8,,,,,
,,,,,632222532c12ab0ab7ca00bd,001,30,Male,British,GCSE Level 2 NVQ AS,2024-02-26_20h43.44.299,CRL1e,2023.2.3,Win32,55.55555556,65dbad3905fde4fe1981dc61,65dcf750b67014841028363a,,,,,,,,,,,306.134,1.2,307.337,307.337,308.049,left,1,0.703,,308.049,309.047,1,7,15,4,1,partial,2,images/Ex11.jpg,left,reversed,easy,8,,,,,
,,,,,632222532c12ab0ab7ca00bd,001,30,Male,British,GCSE Level 2 NVQ AS,2024-02-26_20h43.44.299,CRL1e,2023.2.3,Win32,55.55555556,65dbad3905fde4fe1981dc61,65dcf750b67014841028363a,,,,,,,,,,,309.049,1.3,310.345,310.345,310.862,left,1,0.512,,310.863,311.86,2,0,16,5,1,partial,2,images/Ex11.jpg,left,reversed,easy,8,,,,,
,,,,,632222532c12ab0ab7ca00bd,001,30,Male,British,GCSE Level 2 NVQ AS,2024-02-26_20h43.44.299,CRL1e,2023.2.3,Win32,55.55555556,65dbad3905fde4fe1981dc61,65dcf750b67014841028363a,,,,,,,,,,,311.861,1.2,313.059,313.06,314.248,right,1,1.184,,314.248,315.245,2,1,17,6,1,partial,2,images/Ex12.jpg,right,nonreversed,easy,8,,,,,
,,,,,632222532c12ab0ab7ca00bd,001,30,Male,British,GCSE Level 2 NVQ AS,2024-02-26_20h43.44.299,CRL1e,2023.2.3,Win32,55.55555556,65dbad3905fde4fe1981dc61,65dcf750b67014841028363a,,,,,,,,,,,315.245,1.4,316.638,316.638,317.507,left,0,0.861,,317.507,318.504,2,2,18,0,1,partial,2,images/Ex9.jpg,right,reversed,easy,8,,,,,
,,,,,632222532c12ab0ab7ca00bd,001,30,Male,British,GCSE Level 2 NVQ AS,2024-02-26_20h43.44.299,CRL1e,2023.2.3,Win32,55.55555556,65dbad3905fde4fe1981dc61,65dcf750b67014841028363a,,,,,,,,,,,318.505,0.6,319.105,319.106,319.835,left,1,0.722,,319.836,320.835,2,3,19,2,1,partial,2,images/Ex10.jpg,left,nonreversed,easy,8,,,,,
,,,,,632222532c12ab0ab7ca00bd,001,30,Male,British,GCSE Level 2 NVQ AS,2024-02-26_20h43.44.299,CRL1e,2023.2.3,Win32,55.55555556,65dbad3905fde4fe1981dc61,65dcf750b67014841028363a,,,,,,,,,,,320.836,1.4,322.234,322.234,323.238,right,1,1.002,,323.238,324.235,2,4,20,7,1,partial,2,images/Ex12.jpg,right,nonreversed,easy,8,,,,,
,,,,,632222532c12ab0ab7ca00bd,001,30,Male,British,GCSE Level 2 NVQ AS,2024-02-26_20h43.44.299,CRL1e,2023.2.3,Win32,55.55555556,65dbad3905fde4fe1981dc61,65dcf750b67014841028363a,,,,,,,,,,,324.237,0.9,325.13,325.13,325.899,left,1,0.756,,325.899,326.896,2,5,21,3,1,partial,2,images/Ex10.jpg,left,nonreversed,easy,8,,,,,
,,,,,632222532c12ab0ab7ca00bd,001,30,Male,British,GCSE Level 2 NVQ AS,2024-02-26_20h43.44.299,CRL1e,2023.2.3,Win32,55.55555556,65dbad3905fde4fe1981dc61,65dcf750b67014841028363a,,,,,,,,,,,326.897,0.8,327.693,327.693,329.216,right,0,1.52,,329.216,330.207,2,6,22,4,1,partial,2,images/Ex11.jpg,left,reversed,easy,8,,,,,
,,,,,632222532c12ab0ab7ca00bd,001,30,Male,British,GCSE Level 2 NVQ AS,2024-02-26_20h43.44.299,CRL1e,2023.2.3,Win32,55.55555556,65dbad3905fde4fe1981dc61,65dcf750b67014841028363a,,,,,,,,,,,330.22,1.1,331.324,331.324,332.628,right,1,1.301,,332.628,333.621,2,7,23,1,1,partial,2,images/Ex9.jpg,right,reversed,easy,8,,,,,
,,,,,632222532c12ab0ab7ca00bd,001,30,Male,British,GCSE Level 2 NVQ AS,2024-02-26_20h43.44.299,CRL1e,2023.2.3,Win32,55.55555556,65dbad3905fde4fe1981dc61,65dcf750b67014841028363a,,,,,,,,,,,333.621,1.1,334.725,334.725,335.553,right,1,0.821,,335.553,336.555,3,0,24,1,1,partial,2,images/Ex9.jpg,right,reversed,easy,8,,,,,
,,,,,632222532c12ab0ab7ca00bd,001,30,Male,British,GCSE Level 2 NVQ AS,2024-02-26_20h43.44.299,CRL1e,2023.2.3,Win32,55.55555556,65dbad3905fde4fe1981dc61,65dcf750b67014841028363a,,,,,,,,,,,336.556,0.7,337.251,337.251,338.039,left,1,0.785,,338.039,339.032,3,1,25,3,1,partial,2,images/Ex10.jpg,left,nonreversed,easy,8,,,,,
,,,,,632222532c12ab0ab7ca00bd,001,30,Male,British,GCSE Level 2 NVQ AS,2024-02-26_20h43.44.299,CRL1e,2023.2.3,Win32,55.55555556,65dbad3905fde4fe1981dc61,65dcf750b67014841028363a,,,,,,,,,,,339.034,1.3,340.329,340.329,341.014,left,1,0.675,,341.014,342.011,3,2,26,5,1,partial,2,images/Ex11.jpg,left,reversed,easy,8,,,,,
,,,,,632222532c12ab0ab7ca00bd,001,30,Male,British,GCSE Level 2 NVQ AS,2024-02-26_20h43.44.299,CRL1e,2023.2.3,Win32,55.55555556,65dbad3905fde4fe1981dc61,65dcf750b67014841028363a,,,,,,,,,,,342.011,0.6,342.615,342.615,343.148,left,1,0.532,,343.148,344.142,3,3,27,4,1,partial,2,images/Ex11.jpg,left,reversed,easy,8,,,,,
,,,,,632222532c12ab0ab7ca00bd,001,30,Male,British,GCSE Level 2 NVQ AS,2024-02-26_20h43.44.299,CRL1e,2023.2.3,Win32,55.55555556,65dbad3905fde4fe1981dc61,65dcf750b67014841028363a,,,,,,,,,,,344.144,0.8,344.947,344.947,345.712,right,1,0.764,,345.712,346.706,3,4,28,0,1,partial,2,images/Ex9.jpg,right,reversed,easy,8,,,,,
,,,,,632222532c12ab0ab7ca00bd,001,30,Male,British,GCSE Level 2 NVQ AS,2024-02-26_20h43.44.299,CRL1e,2023.2.3,Win32,55.55555556,65dbad3905fde4fe1981dc61,65dcf750b67014841028363a,,,,,,,,,,,346.707,1.2,347.903,347.904,348.422,left,1,0.511,,348.422,349.423,3,5,29,2,1,partial,2,images/Ex10.jpg,left,nonreversed,easy,8,,,,,
,,,,,632222532c12ab0ab7ca00bd,001,30,Male,British,GCSE Level 2 NVQ AS,2024-02-26_20h43.44.299,CRL1e,2023.2.3,Win32,55.55555556,65dbad3905fde4fe1981dc61,65dcf750b67014841028363a,,,,,,,,,,,349.426,0.7,350.119,350.119,351.453,right,1,1.331,,351.453,352.452,3,6,30,6,1,partial,2,images/Ex12.jpg,right,nonreversed,easy,8,,,,,
,,,,,632222532c12ab0ab7ca00bd,001,30,Male,British,GCSE Level 2 NVQ AS,2024-02-26_20h43.44.299,CRL1e,2023.2.3,Win32,55.55555556,65dbad3905fde4fe1981dc61,65dcf750b67014841028363a,,,,,,,,,,,352.453,1.4,353.856,353.856,354.687,right,1,0.829,,354.687,355.679,3,7,31,7,1,partial,2,images/Ex12.jpg,right,nonreversed,easy,8,,,,,
,,,,,632222532c12ab0ab7ca00bd,001,30,Male,British,GCSE Level 2 NVQ AS,2024-02-26_20h43.44.299,CRL1e,2023.2.3,Win32,55.55555556,65dbad3905fde4fe1981dc61,65dcf750b67014841028363a,,,,,,,,,,,355.68,0.5,356.177,356.178,356.862,left,1,0.674,,356.862,357.86,4,0,32,3,1,partial,2,images/Ex10.jpg,left,nonreversed,easy,8,,,,,
,,,,,632222532c12ab0ab7ca00bd,001,30,Male,British,GCSE Level 2 NVQ AS,2024-02-26_20h43.44.299,CRL1e,2023.2.3,Win32,55.55555556,65dbad3905fde4fe1981dc61,65dcf750b67014841028363a,,,,,,,,,,,357.861,1,358.859,358.859,359.675,left,1,0.808,,359.675,360.674,4,1,33,2,1,partial,2,images/Ex10.jpg,left,nonreversed,easy,8,,,,,
,,,,,632222532c12ab0ab7ca00bd,001,30,Male,British,GCSE Level 2 NVQ AS,2024-02-26_20h43.44.299,CRL1e,2023.2.3,Win32,55.55555556,65dbad3905fde4fe1981dc61,65dcf750b67014841028363a,,,,,,,,,,,360.675,1.4,362.072,362.072,363.223,left,1,1.143,,363.223,364.221,4,2,34,4,1,partial,2,images/Ex11.jpg,left,reversed,easy,8,,,,,
,,,,,632222532c12ab0ab7ca00bd,001,30,Male,British,GCSE Level 2 NVQ AS,2024-02-26_20h43.44.299,CRL1e,2023.2.3,Win32,55.55555556,65dbad3905fde4fe1981dc61,65dcf750b67014841028363a,,,,,,,,,,,364.223,1.5,365.723,365.723,366.453,left,1,0.719,,366.453,367.455,4,3,35,5,1,partial,2,images/Ex11.jpg,left,reversed,easy,8,,,,,
,,,,,632222532c12ab0ab7ca00bd,001,30,Male,British,GCSE Level 2 NVQ AS,2024-02-26_20h43.44.299,CRL1e,2023.2.3,Win32,55.55555556,65dbad3905fde4fe1981dc61,65dcf750b67014841028363a,,,,,,,,,,,367.455,0.8,368.25,368.25,369.232,right,1,0.972,,369.232,370.23,4,4,36,7,1,partial,2,images/Ex12.jpg,right,nonreversed,easy,8,,,,,
,,,,,632222532c12ab0ab7ca00bd,001,30,Male,British,GCSE Level 2 NVQ AS,2024-02-26_20h43.44.299,CRL1e,2023.2.3,Win32,55.55555556,65dbad3905fde4fe1981dc61,65dcf750b67014841028363a,,,,,,,,,,,370.232,0.5,370.729,370.73,371.314,right,1,0.573,,371.314,372.312,4,5,37,6,1,partial,2,images/Ex12.jpg,right,nonreversed,easy,8,,,,,
,,,,,632222532c12ab0ab7ca00bd,001,30,Male,British,GCSE Level 2 NVQ AS,2024-02-26_20h43.44.299,CRL1e,2023.2.3,Win32,55.55555556,65dbad3905fde4fe1981dc61,65dcf750b67014841028363a,,,,,,,,,,,372.314,1,373.31,373.31,374.143,left,0,0.826,,374.143,375.141,4,6,38,0,1,partial,2,images/Ex9.jpg,right,reversed,easy,8,,,,,
,,,,,632222532c12ab0ab7ca00bd,001,30,Male,British,GCSE Level 2 NVQ AS,2024-02-26_20h43.44.299,CRL1e,2023.2.3,Win32,55.55555556,65dbad3905fde4fe1981dc61,65dcf750b67014841028363a,,,,,,,,,,,375.143,1.1,376.24,376.24,376.695,right,1,0.452,,376.695,377.694,4,7,39,1,1,partial,2,images/Ex9.jpg,right,reversed,easy,8,,,,,
,,,,,632222532c12ab0ab7ca00bd,001,30,Male,British,GCSE Level 2 NVQ AS,2024-02-26_20h43.44.299,CRL1e,2023.2.3,Win32,55.55555556,65dbad3905fde4fe1981dc61,65dcf750b67014841028363a,,,,,,,,,,,377.695,1.5,379.189,379.189,380.171,left,0,0.971,,380.171,381.168,5,0,40,6,1,partial,2,images/Ex12.jpg,right,nonreversed,easy,8,,,,,
,,,,,632222532c12ab0ab7ca00bd,001,30,Male,British,GCSE Level 2 NVQ AS,2024-02-26_20h43.44.299,CRL1e,2023.2.3,Win32,55.55555556,65dbad3905fde4fe1981dc61,65dcf750b67014841028363a,,,,,,,,,,,381.17,1.4,382.571,382.571,384.023,left,0,1.447,,384.023,385.013,5,1,41,1,1,partial,2,images/Ex9.jpg,right,reversed,easy,8,,,,,
,,,,,632222532c12ab0ab7ca00bd,001,30,Male,British,GCSE Level 2 NVQ AS,2024-02-26_20h43.44.299,CRL1e,2023.2.3,Win32,55.55555556,65dbad3905fde4fe1981dc61,65dcf750b67014841028363a,,,,,,,,,,,385.016,0.5,385.513,385.513,386.087,right,1,0.571,,386.087,387.083,5,2,42,0,1,partial,2,images/Ex9.jpg,right,reversed,easy,8,,,,,
,,,,,632222532c12ab0ab7ca00bd,001,30,Male,British,GCSE Level 2 NVQ AS,2024-02-26_20h43.44.299,CRL1e,2023.2.3,Win32,55.55555556,65dbad3905fde4fe1981dc61,65dcf750b67014841028363a,,,,,,,,,,,387.084,1.3,388.377,388.377,389.093,left,1,0.708,,389.093,390.093,5,3,43,3,1,partial,2,images/Ex10.jpg,left,nonreversed,easy,8,,,,,
,,,,,632222532c12ab0ab7ca00bd,001,30,Male,British,GCSE Level 2 NVQ AS,2024-02-26_20h43.44.299,CRL1e,2023.2.3,Win32,55.55555556,65dbad3905fde4fe1981dc61,65dcf750b67014841028363a,,,,,,,,,,,390.094,1.3,391.395,391.395,392.323,left,1,0.919,,392.323,393.321,5,4,44,4,1,partial,2,images/Ex11.jpg,left,reversed,easy,8,,,,,
,,,,,632222532c12ab0ab7ca00bd,001,30,Male,British,GCSE Level 2 NVQ AS,2024-02-26_20h43.44.299,CRL1e,2023.2.3,Win32,55.55555556,65dbad3905fde4fe1981dc61,65dcf750b67014841028363a,,,,,,,,,,,393.322,1.4,394.719,394.719,395.353,left,1,0.629,,395.353,396.351,5,5,45,2,1,partial,2,images/Ex10.jpg,left,nonreversed,easy,8,,,,,
,,,,,632222532c12ab0ab7ca00bd,001,30,Male,British,GCSE Level 2 NVQ AS,2024-02-26_20h43.44.299,CRL1e,2023.2.3,Win32,55.55555556,65dbad3905fde4fe1981dc61,65dcf750b67014841028363a,,,,,,,,,,,396.352,0.6,396.95,396.95,397.992,left,1,1.036,,397.992,398.982,5,6,46,5,1,partial,2,images/Ex11.jpg,left,reversed,easy,8,,,,,
,,,,,632222532c12ab0ab7ca00bd,001,30,Male,British,GCSE Level 2 NVQ AS,2024-02-26_20h43.44.299,CRL1e,2023.2.3,Win32,55.55555556,65dbad3905fde4fe1981dc61,65dcf750b67014841028363a,,,,,,,,,,,398.983,0.7,399.687,399.687,400.67,right,1,0.979,,400.67,401.663,5,7,47,7,1,partial,2,images/Ex12.jpg,right,nonreversed,easy,8,,,,,
,,,,,632222532c12ab0ab7ca00bd,001,30,Male,British,GCSE Level 2 NVQ AS,2024-02-26_20h43.44.299,CRL1e,2023.2.3,Win32,55.55555556,65dbad3905fde4fe1981dc61,65dcf750b67014841028363a,,,,,,401.666,419.66,space,17.971,,419.703,0.8,420.507,420.508,422.107,right,0,1.589,,422.107,423.105,0,0,0,2,1,total,1,images/Ex14.jpg,left,training,easy,8,,,,,
,,,,,632222532c12ab0ab7ca00bd,001,30,Male,British,GCSE Level 2 NVQ AS,2024-02-26_20h43.44.299,CRL1e,2023.2.3,Win32,55.55555556,65dbad3905fde4fe1981dc61,65dcf750b67014841028363a,,,,,,,,,,,423.106,0.5,423.604,423.604,424.753,right,1,1.147,,424.753,425.751,0,1,1,5,1,total,1,images/Ex15.jpg,right,training,easy,8,,,,,
,,,,,632222532c12ab0ab7ca00bd,001,30,Male,British,GCSE Level 2 NVQ AS,2024-02-26_20h43.44.299,CRL1e,2023.2.3,Win32,55.55555556,65dbad3905fde4fe1981dc61,65dcf750b67014841028363a,,,,,,,,,,,425.78,1.1,426.868,426.868,427.518,right,1,0.642,,427.518,428.515,0,2,2,4,1,total,1,images/Ex15.jpg,right,training,easy,8,,,,,
,,,,,632222532c12ab0ab7ca00bd,001,30,Male,British,GCSE Level 2 NVQ AS,2024-02-26_20h43.44.299,CRL1e,2023.2.3,Win32,55.55555556,65dbad3905fde4fe1981dc61,65dcf750b67014841028363a,,,,,,,,,,,428.515,1,429.515,429.515,430.548,left,0,1.03,,430.548,431.545,0,3,3,7,1,total,1,images/Ex16.jpg,right,training,easy,8,,,,,
,,,,,632222532c12ab0ab7ca00bd,001,30,Male,British,GCSE Level 2 NVQ AS,2024-02-26_20h43.44.299,CRL1e,2023.2.3,Win32,55.55555556,65dbad3905fde4fe1981dc61,65dcf750b67014841028363a,,,,,,,,,,,431.546,1,432.544,432.544,433.544,left,1,0.994,,433.544,434.542,0,4,4,0,1,total,1,images/Ex13.jpg,left,training,easy,8,,,,,
,,,,,632222532c12ab0ab7ca00bd,001,30,Male,British,GCSE Level 2 NVQ AS,2024-02-26_20h43.44.299,CRL1e,2023.2.3,Win32,55.55555556,65dbad3905fde4fe1981dc61,65dcf750b67014841028363a,,,,,,,,,,,434.543,0.7,435.241,435.241,435.932,left,1,0.687,,435.932,436.928,0,5,5,3,1,total,1,images/Ex14.jpg,left,training,easy,8,,,,,
,,,,,632222532c12ab0ab7ca00bd,001,30,Male,British,GCSE Level 2 NVQ AS,2024-02-26_20h43.44.299,CRL1e,2023.2.3,Win32,55.55555556,65dbad3905fde4fe1981dc61,65dcf750b67014841028363a,,,,,,,,,,,436.929,0.6,437.528,437.528,438.24,right,1,0.701,,438.24,439.237,0,6,6,6,1,total,1,images/Ex16.jpg,right,training,easy,8,,,,,
,,,,,632222532c12ab0ab7ca00bd,001,30,Male,British,GCSE Level 2 NVQ AS,2024-02-26_20h43.44.299,CRL1e,2023.2.3,Win32,55.55555556,65dbad3905fde4fe1981dc61,65dcf750b67014841028363a,,,,,,,,,,,439.239,1,440.236,440.236,440.987,right,0,0.743,,440.987,441.985,0,7,7,1,1,total,1,images/Ex13.jpg,left,training,easy,8,,,,,
,,,,,632222532c12ab0ab7ca00bd,001,30,Male,British,GCSE Level 2 NVQ AS,2024-02-26_20h43.44.299,CRL1e,2023.2.3,Win32,55.55555556,65dbad3905fde4fe1981dc61,65dcf750b67014841028363a,,,,,,,,,,,441.986,1.2,443.183,443.183,444.038,right,1,0.853,,444.038,445.031,1,0,8,7,1,total,1,images/Ex16.jpg,right,training,easy,8,,,,,
,,,,,632222532c12ab0ab7ca00bd,001,30,Male,British,GCSE Level 2 NVQ AS,2024-02-26_20h43.44.299,CRL1e,2023.2.3,Win32,55.55555556,65dbad3905fde4fe1981dc61,65dcf750b67014841028363a,,,,,,,,,,,445.031,1.5,446.53,446.53,447.545,right,1,1.008,,447.545,448.543,1,1,9,5,1,total,1,images/Ex15.jpg,right,training,easy,8,,,,,
,,,,,632222532c12ab0ab7ca00bd,001,30,Male,British,GCSE Level 2 NVQ AS,2024-02-26_20h43.44.299,CRL1e,2023.2.3,Win32,55.55555556,65dbad3905fde4fe1981dc61,65dcf750b67014841028363a,,,,,,,,,,,448.543,0.6,449.145,449.145,450.193,left,1,1.038,,450.193,451.194,1,2,10,2,1,total,1,images/Ex14.jpg,left,training,easy,8,,,,,
,,,,,632222532c12ab0ab7ca00bd,001,30,Male,British,GCSE Level 2 NVQ AS,2024-02-26_20h43.44.299,CRL1e,2023.2.3,Win32,55.55555556,65dbad3905fde4fe1981dc61,65dcf750b67014841028363a,,,,,,,,,,,451.195,0.9,452.089,452.089,453.092,left,0,0.993,,453.092,454.088,1,3,11,4,1,total,1,images/Ex15.jpg,right,training,easy,8,,,,,
,,,,,632222532c12ab0ab7ca00bd,001,30,Male,British,GCSE Level 2 NVQ AS,2024-02-26_20h43.44.299,CRL1e,2023.2.3,Win32,55.55555556,65dbad3905fde4fe1981dc61,65dcf750b67014841028363a,,,,,,,,,,,454.09,1.1,455.193,455.193,455.91,left,1,0.715,,455.91,456.906,1,4,12,3,1,total,1,images/Ex14.jpg,left,training,easy,8,,,,,
,,,,,632222532c12ab0ab7ca00bd,001,30,Male,British,GCSE Level 2 NVQ AS,2024-02-26_20h43.44.299,CRL1e,2023.2.3,Win32,55.55555556,65dbad3905fde4fe1981dc61,65dcf750b67014841028363a,,,,,,,,,,,456.908,1.3,458.201,458.201,458.9,right,1,0.687,,458.9,459.897,1,5,13,6,1,total,1,images/Ex16.jpg,right,training,easy,8,,,,,
,,,,,632222532c12ab0ab7ca00bd,001,30,Male,British,GCSE Level 2 NVQ AS,2024-02-26_20h43.44.299,CRL1e,2023.2.3,Win32,55.55555556,65dbad3905fde4fe1981dc61,65dcf750b67014841028363a,,,,,,,,,,,459.899,1,460.897,460.897,461.95,left,1,1.051,,461.95,462.949,1,6,14,1,1,total,1,images/Ex13.jpg,left,training,easy,8,,,,,
,,,,,632222532c12ab0ab7ca00bd,001,30,Male,British,GCSE Level 2 NVQ AS,2024-02-26_20h43.44.299,CRL1e,2023.2.3,Win32,55.55555556,65dbad3905fde4fe1981dc61,65dcf750b67014841028363a,,,,,,,,,,,462.952,1.4,464.348,464.348,465.196,left,1,0.846,,465.196,466.192,1,7,15,0,1,total,1,images/Ex13.jpg,left,training,easy,8,,,,,
,,,,,632222532c12ab0ab7ca00bd,001,30,Male,British,GCSE Level 2 NVQ AS,2024-02-26_20h43.44.299,CRL1e,2023.2.3,Win32,55.55555556,65dbad3905fde4fe1981dc61,65dcf750b67014841028363a,,,,,,,,,,,466.193,1.4,467.59,467.59,468.244,left,1,0.653,,468.244,469.243,2,0,16,3,1,total,1,images/Ex14.jpg,left,training,easy,8,,,,,
,,,,,632222532c12ab0ab7ca00bd,001,30,Male,British,GCSE Level 2 NVQ AS,2024-02-26_20h43.44.299,CRL1e,2023.2.3,Win32,55.55555556,65dbad3905fde4fe1981dc61,65dcf750b67014841028363a,,,,,,,,,,,469.244,1.4,470.642,470.642,471.258,right,1,0.614,,471.258,472.256,2,1,17,5,1,total,1,images/Ex15.jpg,right,training,easy,8,,,,,
,,,,,632222532c12ab0ab7ca00bd,001,30,Male,British,GCSE Level 2 NVQ AS,2024-02-26_20h43.44.299,CRL1e,2023.2.3,Win32,55.55555556,65dbad3905fde4fe1981dc61,65dcf750b67014841028363a,,,,,,,,,,,472.257,0.9,473.154,473.154,474.051,left,1,0.887,,474.051,475.047,2,2,18,1,1,total,1,images/Ex13.jpg,left,training,easy,8,,,,,
,,,,,632222532c12ab0ab7ca00bd,001,30,Male,British,GCSE Level 2 NVQ AS,2024-02-26_20h43.44.299,CRL1e,2023.2.3,Win32,55.55555556,65dbad3905fde4fe1981dc61,65dcf750b67014841028363a,,,,,,,,,,,475.049,0.9,475.947,475.947,476.914,right,1,0.959,,476.914,477.911,2,3,19,4,1,total,1,images/Ex15.jpg,right,training,easy,8,,,,,
,,,,,632222532c12ab0ab7ca00bd,001,30,Male,British,GCSE Level 2 NVQ AS,2024-02-26_20h43.44.299,CRL1e,2023.2.3,Win32,55.55555556,65dbad3905fde4fe1981dc61,65dcf750b67014841028363a,,,,,,,,,,,477.913,1.4,479.31,479.31,480.159,left,1,0.846,,480.159,481.158,2,4,20,2,1,total,1,images/Ex14.jpg,left,training,easy,8,,,,,
,,,,,632222532c12ab0ab7ca00bd,001,30,Male,British,GCSE Level 2 NVQ AS,2024-02-26_20h43.44.299,CRL1e,2023.2.3,Win32,55.55555556,65dbad3905fde4fe1981dc61,65dcf750b67014841028363a,,,,,,,,,,,481.159,1.3,482.456,482.456,483.358,right,0,0.892,,483.358,484.353,2,5,21,0,1,total,1,images/Ex13.jpg,left,training,easy,8,,,,,
,,,,,632222532c12ab0ab7ca00bd,001,30,Male,British,GCSE Level 2 NVQ AS,2024-02-26_20h43.44.299,CRL1e,2023.2.3,Win32,55.55555556,65dbad3905fde4fe1981dc61,65dcf750b67014841028363a,,,,,,,,,,,484.354,0.6,484.953,484.953,485.773,right,1,0.806,,485.774,486.769,2,6,22,7,1,total,1,images/Ex16.jpg,right,training,easy,8,,,,,
,,,,,632222532c12ab0ab7ca00bd,001,30,Male,British,GCSE Level 2 NVQ AS,2024-02-26_20h43.44.299,CRL1e,2023.2.3,Win32,55.55555556,65dbad3905fde4fe1981dc61,65dcf750b67014841028363a,,,,,,,,,,,486.771,1.5,488.267,488.267,489.066,right,1,0.794,,489.066,490.064,2,7,23,6,1,total,1,images/Ex16.jpg,right,training,easy,8,,,,,
,,,,,632222532c12ab0ab7ca00bd,001,30,Male,British,GCSE Level 2 NVQ AS,2024-02-26_20h43.44.299,CRL1e,2023.2.3,Win32,55.55555556,65dbad3905fde4fe1981dc61,65dcf750b67014841028363a,,,,,,,,,,,490.065,0.8,490.864,490.864,491.713,left,1,0.838,,491.713,492.711,3,0,24,2,1,total,1,images/Ex14.jpg,left,training,easy,8,,,,,
,,,,,632222532c12ab0ab7ca00bd,001,30,Male,British,GCSE Level 2 NVQ AS,2024-02-26_20h43.44.299,CRL1e,2023.2.3,Win32,55.55555556,65dbad3905fde4fe1981dc61,65dcf750b67014841028363a,,,,,,,,,,,492.712,0.8,493.511,493.511,494.443,left,1,0.926,,494.443,495.442,3,1,25,1,1,total,1,images/Ex13.jpg,left,training,easy,8,,,,,
,,,,,632222532c12ab0ab7ca00bd,001,30,Male,British,GCSE Level 2 NVQ AS,2024-02-26_20h43.44.299,CRL1e,2023.2.3,Win32,55.55555556,65dbad3905fde4fe1981dc61,65dcf750b67014841028363a,,,,,,,,,,,495.443,0.9,496.342,496.342,497.126,right,1,0.781,,497.126,498.123,3,2,26,5,1,total,1,images/Ex15.jpg,right,training,easy,8,,,,,
,,,,,632222532c12ab0ab7ca00bd,001,30,Male,British,GCSE Level 2 NVQ AS,2024-02-26_20h43.44.299,CRL1e,2023.2.3,Win32,55.55555556,65dbad3905fde4fe1981dc61,65dcf750b67014841028363a,,,,,,,,,,,498.124,0.9,499.023,499.023,499.89,right,1,0.857,,499.89,500.886,3,3,27,4,1,total,1,images/Ex15.jpg,right,training,easy,8,,,,,
,,,,,632222532c12ab0ab7ca00bd,001,30,Male,British,GCSE Level 2 NVQ AS,2024-02-26_20h43.44.299,CRL1e,2023.2.3,Win32,55.55555556,65dbad3905fde4fe1981dc61,65dcf750b67014841028363a,,,,,,,,,,,500.888,0.7,501.585,501.586,502.436,right,1,0.839,,502.436,503.434,3,4,28,7,1,total,1,images/Ex16.jpg,right,training,easy,8,,,,,
,,,,,632222532c12ab0ab7ca00bd,001,30,Male,British,GCSE Level 2 NVQ AS,2024-02-26_20h43.44.299,CRL1e,2023.2.3,Win32,55.55555556,65dbad3905fde4fe1981dc61,65dcf750b67014841028363a,,,,,,,,,,,503.434,0.7,504.132,504.132,504.815,right,1,0.673,,504.815,505.813,3,5,29,6,1,total,1,images/Ex16.jpg,right,training,easy,8,,,,,
,,,,,632222532c12ab0ab7ca00bd,001,30,Male,British,GCSE Level 2 NVQ AS,2024-02-26_20h43.44.299,CRL1e,2023.2.3,Win32,55.55555556,65dbad3905fde4fe1981dc61,65dcf750b67014841028363a,,,,,,,,,,,505.814,1,506.813,506.813,507.849,left,1,1.022,,507.849,508.844,3,6,30,0,1,total,1,images/Ex13.jpg,left,training,easy,8,,,,,
,,,,,632222532c12ab0ab7ca00bd,001,30,Male,British,GCSE Level 2 NVQ AS,2024-02-26_20h43.44.299,CRL1e,2023.2.3,Win32,55.55555556,65dbad3905fde4fe1981dc61,65dcf750b67014841028363a,,,,,,,,,,,508.844,0.7,509.543,509.543,510.46,left,1,0.907,,510.46,511.458,3,7,31,3,1,total,1,images/Ex14.jpg,left,training,easy,8,,,,,
,,,,,632222532c12ab0ab7ca00bd,001,30,Male,British,GCSE Level 2 NVQ AS,2024-02-26_20h43.44.299,CRL1e,2023.2.3,Win32,55.55555556,65dbad3905fde4fe1981dc61,65dcf750b67014841028363a,,,,,,,,,,,511.461,1.4,512.856,512.856,513.691,right,1,0.823,,513.691,514.688,4,0,32,4,1,total,1,images/Ex15.jpg,right,training,easy,8,,,,,
,,,,,632222532c12ab0ab7ca00bd,001,30,Male,British,GCSE Level 2 NVQ AS,2024-02-26_20h43.44.299,CRL1e,2023.2.3,Win32,55.55555556,65dbad3905fde4fe1981dc61,65dcf750b67014841028363a,,,,,,,,,,,514.69,1.1,515.785,515.785,516.656,left,1,0.858,,516.656,517.652,4,1,33,0,1,total,1,images/Ex13.jpg,left,training,easy,8,,,,,
,,,,,632222532c12ab0ab7ca00bd,001,30,Male,British,GCSE Level 2 NVQ AS,2024-02-26_20h43.44.299,CRL1e,2023.2.3,Win32,55.55555556,65dbad3905fde4fe1981dc61,65dcf750b67014841028363a,,,,,,,,,,,517.654,1.3,518.95,518.95,519.534,left,1,0.571,,519.534,520.53,4,2,34,3,1,total,1,images/Ex14.jpg,left,training,easy,8,,,,,
,,,,,632222532c12ab0ab7ca00bd,001,30,Male,British,GCSE Level 2 NVQ AS,2024-02-26_20h43.44.299,CRL1e,2023.2.3,Win32,55.55555556,65dbad3905fde4fe1981dc61,65dcf750b67014841028363a,,,,,,,,,,,520.531,0.5,521.03,521.03,522.047,right,1,1.007,,522.047,523.045,4,3,35,5,1,total,1,images/Ex15.jpg,right,training,easy,8,,,,,
,,,,,632222532c12ab0ab7ca00bd,001,30,Male,British,GCSE Level 2 NVQ AS,2024-02-26_20h43.44.299,CRL1e,2023.2.3,Win32,55.55555556,65dbad3905fde4fe1981dc61,65dcf750b67014841028363a,,,,,,,,,,,523.046,0.8,523.845,523.845,524.594,left,1,0.736,,524.594,525.592,4,4,36,1,1,total,1,images/Ex13.jpg,left,training,easy,8,,,,,
,,,,,632222532c12ab0ab7ca00bd,001,30,Male,British,GCSE Level 2 NVQ AS,2024-02-26_20h43.44.299,CRL1e,2023.2.3,Win32,55.55555556,65dbad3905fde4fe1981dc61,65dcf750b67014841028363a,,,,,,,,,,,525.594,1,526.592,526.593,527.313,right,1,0.717,,527.313,528.306,4,5,37,6,1,total,1,images/Ex16.jpg,right,training,easy,8,,,,,
,,,,,632222532c12ab0ab7ca00bd,001,30,Male,British,GCSE Level 2 NVQ AS,2024-02-26_20h43.44.299,CRL1e,2023.2.3,Win32,55.55555556,65dbad3905fde4fe1981dc61,65dcf750b67014841028363a,,,,,,,,,,,528.307,1,529.305,529.305,529.923,left,1,0.609,,529.923,530.92,4,6,38,2,1,total,1,images/Ex14.jpg,left,training,easy,8,,,,,
,,,,,632222532c12ab0ab7ca00bd,001,30,Male,British,GCSE Level 2 NVQ AS,2024-02-26_20h43.44.299,CRL1e,2023.2.3,Win32,55.55555556,65dbad3905fde4fe1981dc61,65dcf750b67014841028363a,,,,,,,,,,,530.922,1.1,532.018,532.018,532.637,right,1,0.613,,532.637,533.633,4,7,39,7,1,total,1,images/Ex16.jpg,right,training,easy,8,,,,,
,,,,,632222532c12ab0ab7ca00bd,001,30,Male,British,GCSE Level 2 NVQ AS,2024-02-26_20h43.44.299,CRL1e,2023.2.3,Win32,55.55555556,65dbad3905fde4fe1981dc61,65dcf750b67014841028363a,,,,,,,,,,,533.635,1.2,534.833,534.833,535.653,right,1,0.814,,535.653,536.647,5,0,40,5,1,total,1,images/Ex15.jpg,right,training,easy,8,,,,,
,,,,,632222532c12ab0ab7ca00bd,001,30,Male,British,GCSE Level 2 NVQ AS,2024-02-26_20h43.44.299,CRL1e,2023.2.3,Win32,55.55555556,65dbad3905fde4fe1981dc61,65dcf750b67014841028363a,,,,,,,,,,,536.649,0.9,537.545,537.545,538.146,right,1,0.595,,538.147,539.147,5,1,41,6,1,total,1,images/Ex16.jpg,right,training,easy,8,,,,,
,,,,,632222532c12ab0ab7ca00bd,001,30,Male,British,GCSE Level 2 NVQ AS,2024-02-26_20h43.44.299,CRL1e,2023.2.3,Win32,55.55555556,65dbad3905fde4fe1981dc61,65dcf750b67014841028363a,,,,,,,,,,,539.148,0.7,539.843,539.843,540.609,left,1,0.753,,540.609,541.608,5,2,42,1,1,total,1,images/Ex13.jpg,left,training,easy,8,,,,,
,,,,,632222532c12ab0ab7ca00bd,001,30,Male,British,GCSE Level 2 NVQ AS,2024-02-26_20h43.44.299,CRL1e,2023.2.3,Win32,55.55555556,65dbad3905fde4fe1981dc61,65dcf750b67014841028363a,,,,,,,,,,,541.61,0.9,542.507,542.507,543.273,right,1,0.758,,543.273,544.273,5,3,43,7,1,total,1,images/Ex16.jpg,right,training,easy,8,,,,,
,,,,,632222532c12ab0ab7ca00bd,001,30,Male,British,GCSE Level 2 NVQ AS,2024-02-26_20h43.44.299,CRL1e,2023.2.3,Win32,55.55555556,65dbad3905fde4fe1981dc61,65dcf750b67014841028363a,,,,,,,,,,,544.275,1.3,545.57,545.57,546.288,left,1,0.709,,546.288,547.285,5,4,44,0,1,total,1,images/Ex13.jpg,left,training,easy,8,,,,,
,,,,,632222532c12ab0ab7ca00bd,001,30,Male,British,GCSE Level 2 NVQ AS,2024-02-26_20h43.44.299,CRL1e,2023.2.3,Win32,55.55555556,65dbad3905fde4fe1981dc61,65dcf750b67014841028363a,,,,,,,,,,,547.288,0.7,547.984,547.984,548.668,left,1,0.672,,548.668,549.666,5,5,45,2,1,total,1,images/Ex14.jpg,left,training,easy,8,,,,,
,,,,,632222532c12ab0ab7ca00bd,001,30,Male,British,GCSE Level 2 NVQ AS,2024-02-26_20h43.44.299,CRL1e,2023.2.3,Win32,55.55555556,65dbad3905fde4fe1981dc61,65dcf750b67014841028363a,,,,,,,,,,,549.667,0.6,550.266,550.266,550.932,left,1,0.655,,550.933,551.93,5,6,46,3,1,total,1,images/Ex14.jpg,left,training,easy,8,,,,,
,,,,,632222532c12ab0ab7ca00bd,001,30,Male,British,GCSE Level 2 NVQ AS,2024-02-26_20h43.44.299,CRL1e,2023.2.3,Win32,55.55555556,65dbad3905fde4fe1981dc61,65dcf750b67014841028363a,,,,,,,,,,,551.932,1,552.929,552.929,553.664,right,1,0.72,,553.664,554.662,5,7,47,4,1,total,1,images/Ex15.jpg,right,training,easy,8,,,,,
,,,,,632222532c12ab0ab7ca00bd,001,30,Male,British,GCSE Level 2 NVQ AS,2024-02-26_20h43.44.299,CRL1e,2023.2.3,Win32,55.55555556,65dbad3905fde4fe1981dc61,65dcf750b67014841028363a,,,,,,,,,,,554.667,0.9,555.559,555.559,556.176,right,0,0.604,,556.176,557.176,0,0,0,6,1,total,2,images/Ex16.jpg,left,reversed,easy,8,,,,,
,,,,,632222532c12ab0ab7ca00bd,001,30,Male,British,GCSE Level 2 NVQ AS,2024-02-26_20h43.44.299,CRL1e,2023.2.3,Win32,55.55555556,65dbad3905fde4fe1981dc61,65dcf750b67014841028363a,,,,,,,,,,,557.177,0.6,557.774,557.774,558.984,left,0,1.196,,558.984,559.972,0,1,1,0,1,total,2,images/Ex13.jpg,right,reversed,easy,8,,,,,
,,,,,632222532c12ab0ab7ca00bd,001,30,Male,British,GCSE Level 2 NVQ AS,2024-02-26_20h43.44.299,CRL1e,2023.2.3,Win32,55.55555556,65dbad3905fde4fe1981dc61,65dcf750b67014841028363a,,,,,,,,,,,559.975,1.3,561.27,561.27,562.004,left,0,0.73,,562.004,563.001,0,2,2,2,1,total,2,images/Ex14.jpg,right,reversed,easy,8,,,,,
,,,,,632222532c12ab0ab7ca00bd,001,30,Male,British,GCSE Level 2 NVQ AS,2024-02-26_20h43.44.299,CRL1e,2023.2.3,Win32,55.55555556,65dbad3905fde4fe1981dc61,65dcf750b67014841028363a,,,,,,,,,,,563.003,1.3,564.299,564.299,566.165,left,0,1.857,,566.165,567.163,0,3,3,1,1,total,2,images/Ex13.jpg,right,reversed,easy,8,,,,,
,,,,,632222532c12ab0ab7ca00bd,001,30,Male,British,GCSE Level 2 NVQ AS,2024-02-26_20h43.44.299,CRL1e,2023.2.3,Win32,55.55555556,65dbad3905fde4fe1981dc61,65dcf750b67014841028363a,,,,,,,,,,,567.163,1.3,568.461,568.461,569.779,left,1,1.307,,569.779,570.776,0,4,4,7,1,total,2,images/Ex16.jpg,left,reversed,easy,8,,,,,
,,,,,632222532c12ab0ab7ca00bd,001,30,Male,British,GCSE Level 2 NVQ AS,2024-02-26_20h43.44.299,CRL1e,2023.2.3,Win32,55.55555556,65dbad3905fde4fe1981dc61,65dcf750b67014841028363a,,,,,,,,,,,570.778,0.6,571.375,571.375,572.275,right,1,0.89,,572.275,573.273,0,5,5,3,1,total,2,images/Ex14.jpg,right,reversed,easy,8,,,,,
,,,,,632222532c12ab0ab7ca00bd,001,30,Male,British,GCSE Level 2 NVQ AS,2024-02-26_20h43.44.299,CRL1e,2023.2.3,Win32,55.55555556,65dbad3905fde4fe1981dc61,65dcf750b67014841028363a,,,,,,,,,,,573.275,1.4,574.671,574.671,575.772,left,1,1.095,,575.773,576.772,0,6,6,5,1,total,2,images/Ex15.jpg,left,reversed,easy,8,,,,,
,,,,,632222532c12ab0ab7ca00bd,001,30,Male,British,GCSE Level 2 NVQ AS,2024-02-26_20h43.44.299,CRL1e,2023.2.3,Win32,55.55555556,65dbad3905fde4fe1981dc61,65dcf750b67014841028363a,,,,,,,,,,,576.773,0.8,577.568,577.568,578.268,left,1,0.687,,578.268,579.266,0,7,7,4,1,total,2,images/Ex15.jpg,left,reversed,easy,8,,,,,
,,,,,632222532c12ab0ab7ca00bd,001,30,Male,British,GCSE Level 2 NVQ AS,2024-02-26_20h43.44.299,CRL1e,2023.2.3,Win32,55.55555556,65dbad3905fde4fe1981dc61,65dcf750b67014841028363a,,,,,,,,,,,579.267,0.7,579.966,579.966,580.599,left,1,0.625,,580.6,581.597,1,0,8,5,1,total,2,images/Ex15.jpg,left,reversed,easy,8,,,,,
,,,,,632222532c12ab0ab7ca00bd,001,30,Male,British,GCSE Level 2 NVQ AS,2024-02-26_20h43.44.299,CRL1e,2023.2.3,Win32,55.55555556,65dbad3905fde4fe1981dc61,65dcf750b67014841028363a,,,,,,,,,,,581.597,1.3,582.896,582.896,583.484,left,1,0.582,,583.484,584.478,1,1,9,4,1,total,2,images/Ex15.jpg,left,reversed,easy,8,,,,,
,,,,,632222532c12ab0ab7ca00bd,001,30,Male,British,GCSE Level 2 NVQ AS,2024-02-26_20h43.44.299,CRL1e,2023.2.3,Win32,55.55555556,65dbad3905fde4fe1981dc61,65dcf750b67014841028363a,,,,,,,,,,,584.479,0.9,585.376,585.376,586.209,right,1,0.83,,586.209,587.208,1,2,10,0,1,total,2,images/Ex13.jpg,right,reversed,easy,8,,,,,
,,,,,632222532c12ab0ab7ca00bd,001,30,Male,British,GCSE Level 2 NVQ AS,2024-02-26_20h43.44.299,CRL1e,2023.2.3,Win32,55.55555556,65dbad3905fde4fe1981dc61,65dcf750b67014841028363a,,,,,,,,,,,587.21,1.2,588.406,588.406,589.256,left,1,0.846,,589.257,590.254,1,3,11,7,1,total,2,images/Ex16.jpg,left,reversed,easy,8,,,,,
,,,,,632222532c12ab0ab7ca00bd,001,30,Male,British,GCSE Level 2 NVQ AS,2024-02-26_20h43.44.299,CRL1e,2023.2.3,Win32,55.55555556,65dbad3905fde4fe1981dc61,65dcf750b67014841028363a,,,,,,,,,,,590.257,0.7,590.953,590.953,591.688,right,1,0.723,,591.688,592.685,1,4,12,3,1,total,2,images/Ex14.jpg,right,reversed,easy,8,,,,,
,,,,,632222532c12ab0ab7ca00bd,001,30,Male,British,GCSE Level 2 NVQ AS,2024-02-26_20h43.44.299,CRL1e,2023.2.3,Win32,55.55555556,65dbad3905fde4fe1981dc61,65dcf750b67014841028363a,,,,,,,,,,,592.687,1.3,593.984,593.984,594.95,right,1,0.958,,594.95,595.952,1,5,13,2,1,total,2,images/Ex14.jpg,right,reversed,easy,8,,,,,
,,,,,632222532c12ab0ab7ca00bd,001,30,Male,British,GCSE Level 2 NVQ AS,2024-02-26_20h43.44.299,CRL1e,2023.2.3,Win32,55.55555556,65dbad3905fde4fe1981dc61,65dcf750b67014841028363a,,,,,,,,,,,595.953,0.7,596.648,596.648,597.316,left,1,0.66,,597.316,598.313,1,6,14,6,1,total,2,images/Ex16.jpg,left,reversed,easy,8,,,,,
,,,,,632222532c12ab0ab7ca00bd,001,30,Male,British,GCSE Level 2 NVQ AS,2024-02-26_20h43.44.299,CRL1e,2023.2.3,Win32,55.55555556,65dbad3905fde4fe1981dc61,65dcf750b67014841028363a,,,,,,,,,,,598.313,1.1,599.41,599.41,600.495,right,1,1.074,,600.495,601.493,1,7,15,1,1,total,2,images/Ex13.jpg,right,reversed,easy,8,,,,,
,,,,,632222532c12ab0ab7ca00bd,001,30,Male,British,GCSE Level 2 NVQ AS,2024-02-26_20h43.44.299,CRL1e,2023.2.3,Win32,55.55555556,65dbad3905fde4fe1981dc61,65dcf750b67014841028363a,,,,,,,,,,,601.494,1.1,602.592,602.592,603.309,right,1,0.708,,603.309,604.306,2,0,16,3,1,total,2,images/Ex14.jpg,right,reversed,easy,8,,,,,
,,,,,632222532c12ab0ab7ca00bd,001,30,Male,British,GCSE Level 2 NVQ AS,2024-02-26_20h43.44.299,CRL1e,2023.2.3,Win32,55.55555556,65dbad3905fde4fe1981dc61,65dcf750b67014841028363a,,,,,,,,,,,604.307,0.8,605.106,605.106,606.636,left,1,1.525,,606.637,607.636,2,1,17,5,1,total,2,images/Ex15.jpg,left,reversed,easy,8,,,,,
,,,,,632222532c12ab0ab7ca00bd,001,30,Male,British,GCSE Level 2 NVQ AS,2024-02-26_20h43.44.299,CRL1e,2023.2.3,Win32,55.55555556,65dbad3905fde4fe1981dc61,65dcf750b67014841028363a,,,,,,,,,,,607.637,1.2,608.835,608.835,609.467,left,1,0.619,,609.467,610.466,2,2,18,4,1,total,2,images/Ex15.jpg,left,reversed,easy,8,,,,,
,,,,,632222532c12ab0ab7ca00bd,001,30,Male,British,GCSE Level 2 NVQ AS,2024-02-26_20h43.44.299,CRL1e,2023.2.3,Win32,55.55555556,65dbad3905fde4fe1981dc61,65dcf750b67014841028363a,,,,,,,,,,,610.467,1.1,611.565,611.565,612.816,right,1,1.247,,612.816,613.811,2,3,19,1,1,total,2,images/Ex13.jpg,right,reversed,easy,8,,,,,
,,,,,632222532c12ab0ab7ca00bd,001,30,Male,British,GCSE Level 2 NVQ AS,2024-02-26_20h43.44.299,CRL1e,2023.2.3,Win32,55.55555556,65dbad3905fde4fe1981dc61,65dcf750b67014841028363a,,,,,,,,,,,613.812,1,614.811,614.812,615.376,right,1,0.555,,615.376,616.376,2,4,20,0,1,total,2,images/Ex13.jpg,right,reversed,easy,8,,,,,
,,,,,632222532c12ab0ab7ca00bd,001,30,Male,British,GCSE Level 2 NVQ AS,2024-02-26_20h43.44.299,CRL1e,2023.2.3,Win32,55.55555556,65dbad3905fde4fe1981dc61,65dcf750b67014841028363a,,,,,,,,,,,616.378,1.2,617.574,617.574,618.792,right,1,1.207,,618.792,619.789,2,5,21,2,1,total,2,images/Ex14.jpg,right,reversed,easy,8,,,,,
,,,,,632222532c12ab0ab7ca00bd,001,30,Male,British,GCSE Level 2 NVQ AS,2024-02-26_20h43.44.299,CRL1e,2023.2.3,Win32,55.55555556,65dbad3905fde4fe1981dc61,65dcf750b67014841028363a,,,,,,,,,,,619.792,1.4,621.187,621.187,621.939,left,1,0.743,,621.94,622.935,2,6,22,7,1,total,2,images/Ex16.jpg,left,reversed,easy,8,,,,,
,,,,,632222532c12ab0ab7ca00bd,001,30,Male,British,GCSE Level 2 NVQ AS,2024-02-26_20h43.44.299,CRL1e,2023.2.3,Win32,55.55555556,65dbad3905fde4fe1981dc61,65dcf750b67014841028363a,,,,,,,,,,,622.936,1.4,624.333,624.333,625.25,left,1,0.906,,625.25,626.249,2,7,23,6,1,total,2,images/Ex16.jpg,left,reversed,easy,8,,,,,
,,,,,632222532c12ab0ab7ca00bd,001,30,Male,British,GCSE Level 2 NVQ AS,2024-02-26_20h43.44.299,CRL1e,2023.2.3,Win32,55.55555556,65dbad3905fde4fe1981dc61,65dcf750b67014841028363a,,,,,,,,,,,626.251,0.5,626.748,626.749,628.004,left,1,1.253,,628.004,628.995,3,0,24,7,1,total,2,images/Ex16.jpg,left,reversed,easy,8,,,,,
,,,,,632222532c12ab0ab7ca00bd,001,30,Male,British,GCSE Level 2 NVQ AS,2024-02-26_20h43.44.299,CRL1e,2023.2.3,Win32,55.55555556,65dbad3905fde4fe1981dc61,65dcf750b67014841028363a,,,,,,,,,,,628.996,1.4,630.394,630.394,631.325,right,0,0.926,,631.325,632.325,3,1,25,4,1,total,2,images/Ex15.jpg,left,reversed,easy,8,,,,,
,,,,,632222532c12ab0ab7ca00bd,001,30,Male,British,GCSE Level 2 NVQ AS,2024-02-26_20h43.44.299,CRL1e,2023.2.3,Win32,55.55555556,65dbad3905fde4fe1981dc61,65dcf750b67014841028363a,,,,,,,,,,,632.326,1.2,633.524,633.524,634.259,right,1,0.725,,634.259,635.254,3,2,26,3,1,total,2,images/Ex14.jpg,right,reversed,easy,8,,,,,
,,,,,632222532c12ab0ab7ca00bd,001,30,Male,British,GCSE Level 2 NVQ AS,2024-02-26_20h43.44.299,CRL1e,2023.2.3,Win32,55.55555556,65dbad3905fde4fe1981dc61,65dcf750b67014841028363a,,,,,,,,,,,635.256,0.7,635.954,635.954,637.203,right,1,1.246,,637.203,638.202,3,3,27,0,1,total,2,images/Ex13.jpg,right,reversed,easy,8,,,,,
,,,,,632222532c12ab0ab7ca00bd,001,30,Male,British,GCSE Level 2 NVQ AS,2024-02-26_20h43.44.299,CRL1e,2023.2.3,Win32,55.55555556,65dbad3905fde4fe1981dc61,65dcf750b67014841028363a,,,,,,,,,,,638.203,0.9,639.101,639.101,640.366,left,1,1.254,,640.366,641.365,3,4,28,5,1,total,2,images/Ex15.jpg,left,reversed,easy,8,,,,,
,,,,,632222532c12ab0ab7ca00bd,001,30,Male,British,GCSE Level 2 NVQ AS,2024-02-26_20h43.44.299,CRL1e,2023.2.3,Win32,55.55555556,65dbad3905fde4fe1981dc61,65dcf750b67014841028363a,,,,,,,,,,,641.366,0.9,642.264,642.264,643.046,left,1,0.775,,643.046,644.045,3,5,29,6,1,total,2,images/Ex16.jpg,left,reversed,easy,8,,,,,
,,,,,632222532c12ab0ab7ca00bd,001,30,Male,British,GCSE Level 2 NVQ AS,2024-02-26_20h43.44.299,CRL1e,2023.2.3,Win32,55.55555556,65dbad3905fde4fe1981dc61,65dcf750b67014841028363a,,,,,,,,,,,644.046,0.8,644.843,644.843,645.594,right,1,0.746,,645.594,646.592,3,6,30,2,1,total,2,images/Ex14.jpg,right,reversed,easy,8,,,,,
,,,,,632222532c12ab0ab7ca00bd,001,30,Male,British,GCSE Level 2 NVQ AS,2024-02-26_20h43.44.299,CRL1e,2023.2.3,Win32,55.55555556,65dbad3905fde4fe1981dc61,65dcf750b67014841028363a,,,,,,,,,,,646.594,1.5,648.092,648.092,649.074,right,1,0.972,,649.074,650.073,3,7,31,1,1,total,2,images/Ex13.jpg,right,reversed,easy,8,,,,,
,,,,,632222532c12ab0ab7ca00bd,001,30,Male,British,GCSE Level 2 NVQ AS,2024-02-26_20h43.44.299,CRL1e,2023.2.3,Win32,55.55555556,65dbad3905fde4fe1981dc61,65dcf750b67014841028363a,,,,,,,,,,,650.074,0.8,650.871,650.872,651.772,left,1,0.891,,651.773,652.769,4,0,32,5,1,total,2,images/Ex15.jpg,left,reversed,easy,8,,,,,
,,,,,632222532c12ab0ab7ca00bd,001,30,Male,British,GCSE Level 2 NVQ AS,2024-02-26_20h43.44.299,CRL1e,2023.2.3,Win32,55.55555556,65dbad3905fde4fe1981dc61,65dcf750b67014841028363a,,,,,,,,,,,652.771,1,653.768,653.768,654.168,left,1,0.391,,654.168,655.166,4,1,33,4,1,total,2,images/Ex15.jpg,left,reversed,easy,8,,,,,
,,,,,632222532c12ab0ab7ca00bd,001,30,Male,British,GCSE Level 2 NVQ AS,2024-02-26_20h43.44.299,CRL1e,2023.2.3,Win32,55.55555556,65dbad3905fde4fe1981dc61,65dcf750b67014841028363a,,,,,,,,,,,655.168,0.9,656.066,656.066,656.848,right,1,0.769,,656.848,657.847,4,2,34,0,1,total,2,images/Ex13.jpg,right,reversed,easy,8,,,,,
,,,,,632222532c12ab0ab7ca00bd,001,30,Male,British,GCSE Level 2 NVQ AS,2024-02-26_20h43.44.299,CRL1e,2023.2.3,Win32,55.55555556,65dbad3905fde4fe1981dc61,65dcf750b67014841028363a,,,,,,,,,,,657.848,0.8,658.645,658.645,659.162,right,1,0.51,,659.162,660.161,4,3,35,1,1,total,2,images/Ex13.jpg,right,reversed,easy,8,,,,,
,,,,,632222532c12ab0ab7ca00bd,001,30,Male,British,GCSE Level 2 NVQ AS,2024-02-26_20h43.44.299,CRL1e,2023.2.3,Win32,55.55555556,65dbad3905fde4fe1981dc61,65dcf750b67014841028363a,,,,,,,,,,,660.163,1.1,661.261,661.261,661.828,right,1,0.557,,661.828,662.825,4,4,36,3,1,total,2,images/Ex14.jpg,right,reversed,easy,8,,,,,
,,,,,632222532c12ab0ab7ca00bd,001,30,Male,British,GCSE Level 2 NVQ AS,2024-02-26_20h43.44.299,CRL1e,2023.2.3,Win32,55.55555556,65dbad3905fde4fe1981dc61,65dcf750b67014841028363a,,,,,,,,,,,662.827,1.4,664.222,664.222,664.856,left,1,0.629,,664.856,665.854,4,5,37,7,1,total,2,images/Ex16.jpg,left,reversed,easy,8,,,,,
,,,,,632222532c12ab0ab7ca00bd,001,30,Male,British,GCSE Level 2 NVQ AS,2024-02-26_20h43.44.299,CRL1e,2023.2.3,Win32,55.55555556,65dbad3905fde4fe1981dc61,65dcf750b67014841028363a,,,,,,,,,,,665.856,0.9,666.753,666.753,667.32,left,0,0.56,,667.321,668.318,4,6,38,2,1,total,2,images/Ex14.jpg,right,reversed,easy,8,,,,,
,,,,,632222532c12ab0ab7ca00bd,001,30,Male,British,GCSE Level 2 NVQ AS,2024-02-26_20h43.44.299,CRL1e,2023.2.3,Win32,55.55555556,65dbad3905fde4fe1981dc61,65dcf750b67014841028363a,,,,,,,,,,,668.321,0.6,668.918,668.918,669.767,left,1,0.841,,669.767,670.767,4,7,39,6,1,total,2,images/Ex16.jpg,left,reversed,easy,8,,,,,
,,,,,632222532c12ab0ab7ca00bd,001,30,Male,British,GCSE Level 2 NVQ AS,2024-02-26_20h43.44.299,CRL1e,2023.2.3,Win32,55.55555556,65dbad3905fde4fe1981dc61,65dcf750b67014841028363a,,,,,,,,,,,670.772,0.6,671.365,671.365,672.231,left,1,0.856,,672.232,673.229,5,0,40,4,1,total,2,images/Ex15.jpg,left,reversed,easy,8,,,,,
,,,,,632222532c12ab0ab7ca00bd,001,30,Male,British,GCSE Level 2 NVQ AS,2024-02-26_20h43.44.299,CRL1e,2023.2.3,Win32,55.55555556,65dbad3905fde4fe1981dc61,65dcf750b67014841028363a,,,,,,,,,,,673.231,0.7,673.928,673.928,674.445,right,1,0.51,,674.445,675.443,5,1,41,2,1,total,2,images/Ex14.jpg,right,reversed,easy,8,,,,,
,,,,,632222532c12ab0ab7ca00bd,001,30,Male,British,GCSE Level 2 NVQ AS,2024-02-26_20h43.44.299,CRL1e,2023.2.3,Win32,55.55555556,65dbad3905fde4fe1981dc61,65dcf750b67014841028363a,,,,,,,,,,,675.444,0.5,675.943,675.943,676.593,left,1,0.64,,676.593,677.592,5,2,42,6,1,total,2,images/Ex16.jpg,left,reversed,easy,8,,,,,
,,,,,632222532c12ab0ab7ca00bd,001,30,Male,British,GCSE Level 2 NVQ AS,2024-02-26_20h43.44.299,CRL1e,2023.2.3,Win32,55.55555556,65dbad3905fde4fe1981dc61,65dcf750b67014841028363a,,,,,,,,,,,677.594,0.8,678.39,678.39,679.207,right,1,0.808,,679.207,680.205,5,3,43,1,1,total,2,images/Ex13.jpg,right,reversed,easy,8,,,,,
,,,,,632222532c12ab0ab7ca00bd,001,30,Male,British,GCSE Level 2 NVQ AS,2024-02-26_20h43.44.299,CRL1e,2023.2.3,Win32,55.55555556,65dbad3905fde4fe1981dc61,65dcf750b67014841028363a,,,,,,,,,,,680.206,0.6,680.804,680.804,681.521,right,0,0.708,,681.521,682.519,5,4,44,5,1,total,2,images/Ex15.jpg,left,reversed,easy,8,,,,,
,,,,,632222532c12ab0ab7ca00bd,001,30,Male,British,GCSE Level 2 NVQ AS,2024-02-26_20h43.44.299,CRL1e,2023.2.3,Win32,55.55555556,65dbad3905fde4fe1981dc61,65dcf750b67014841028363a,,,,,,,,,,,682.52,1,683.519,683.519,684.534,left,1,1.007,,684.534,685.532,5,5,45,7,1,total,2,images/Ex16.jpg,left,reversed,easy,8,,,,,
,,,,,632222532c12ab0ab7ca00bd,001,30,Male,British,GCSE Level 2 NVQ AS,2024-02-26_20h43.44.299,CRL1e,2023.2.3,Win32,55.55555556,65dbad3905fde4fe1981dc61,65dcf750b67014841028363a,,,,,,,,,,,685.534,1.4,686.931,686.931,687.631,right,1,0.69,,687.631,688.629,5,6,46,3,1,total,2,images/Ex14.jpg,right,reversed,easy,8,,,,,
,,,,,632222532c12ab0ab7ca00bd,001,30,Male,British,GCSE Level 2 NVQ AS,2024-02-26_20h43.44.299,CRL1e,2023.2.3,Win32,55.55555556,65dbad3905fde4fe1981dc61,65dcf750b67014841028363a,,,,,,,,,,,688.629,1.3,689.928,689.928,690.629,left,0,0.699,,690.629,691.626,5,7,47,0,1,total,2,images/Ex13.jpg,right,reversed,easy,8,,,,,
,,,,,632222532c12ab0ab7ca00bd,001,30,Male,British,GCSE Level 2 NVQ AS,2024-02-26_20h43.44.299,CRL1e,2023.2.3,Win32,55.55555556,65dbad3905fde4fe1981dc61,65dcf750b67014841028363a,,,,,,,,,,,,,,,,,,,,,,,,,,,,,,,,,,691.629,711.089,space,19.43,