infCons.started,infCons.stopped,resp_consent.keys,resp_consent.rt,resp_consent.duration,participant,session,Age?,Gender?,Nationality?,Highest Educational Degree?,date,expName,psychopyVersion,OS,frameRate,STUDY_ID,SESSION_ID,instructions.started,instructions.stopped,resp_instructions.keys,resp_instructions.rt,resp_instructions.duration,nextTask.started,nextTask.stopped,ready_task.keys,ready_task.rt,ready_task.duration,fixation.started,ITI,fixation.stopped,stim.started,stim.stopped,response.keys,response.corr,response.rt,response.duration,feedback.started,feedback.stopped,trials.thisRepN,trials.thisTrialN,trials.thisN,trials.thisIndex,trials.ran,task,phase,Exemplars,r_correct,condition,difficulty,set,end.started,end.stopped,resp_end.keys,resp_end.rt,resp_end.duration
0.0002,13.7186,space,13.6948,,639f294882a3797f77a3dd81,001,52,male,uk,high school,2024-02-26_18h16.46.223,CRL1e,2023.2.3,Win32,60.24096386,65dbad3905fde4fe1981dc61,65dcd56929fb92e03946a9fd,,,,,,,,,,,,,,,,,,,,,,,,,,,,,,,,,,,,,,
,,,,,639f294882a3797f77a3dd81,001,52,male,uk,high school,2024-02-26_18h16.46.223,CRL1e,2023.2.3,Win32,60.24096386,65dbad3905fde4fe1981dc61,65dcd56929fb92e03946a9fd,13.7188,61.1006,space,47.3652,,,,,,,,,,,,,,,,,,,,,,,,,,,,,,,,,,
,,,,,639f294882a3797f77a3dd81,001,52,male,uk,high school,2024-02-26_18h16.46.223,CRL1e,2023.2.3,Win32,60.24096386,65dbad3905fde4fe1981dc61,65dcd56929fb92e03946a9fd,,,,,,61.1038,64.8573,space,3.7229,,64.8613,0.9,65.7588,65.759,67.3675,left,0,1.6004,,67.3678,68.3637,0,0,0,6,1,total,1,images/Ex12.jpg,right,training,easy,6,,,,,
,,,,,639f294882a3797f77a3dd81,001,52,male,uk,high school,2024-02-26_18h16.46.223,CRL1e,2023.2.3,Win32,60.24096386,65dbad3905fde4fe1981dc61,65dcd56929fb92e03946a9fd,,,,,,,,,,,68.3645,1.3,69.654,69.654,70.885,left,0,1.2272,,70.8851,71.8747,0,1,1,5,1,total,1,images/Ex11.jpg,right,training,easy,6,,,,,
,,,,,639f294882a3797f77a3dd81,001,52,male,uk,high school,2024-02-26_18h16.46.223,CRL1e,2023.2.3,Win32,60.24096386,65dbad3905fde4fe1981dc61,65dcd56929fb92e03946a9fd,,,,,,,,,,,71.8753,1.4,73.2773,73.2773,74.6974,left,1,1.4191,,74.6974,75.6937,0,2,2,0,1,total,1,images/Ex9.jpg,left,training,easy,6,,,,,
,,,,,639f294882a3797f77a3dd81,001,52,male,uk,high school,2024-02-26_18h16.46.223,CRL1e,2023.2.3,Win32,60.24096386,65dbad3905fde4fe1981dc61,65dcd56929fb92e03946a9fd,,,,,,,,,,,75.6943,1,76.684,76.684,78.2156,right,0,1.5179,,78.2157,79.2169,0,3,3,2,1,total,1,images/Ex10.jpg,left,training,easy,6,,,,,
,,,,,639f294882a3797f77a3dd81,001,52,male,uk,high school,2024-02-26_18h16.46.223,CRL1e,2023.2.3,Win32,60.24096386,65dbad3905fde4fe1981dc61,65dcd56929fb92e03946a9fd,,,,,,,,,,,79.2173,0.8,80.0185,80.0185,81.6218,right,1,1.5988,,81.6218,82.6261,0,4,4,7,1,total,1,images/Ex12.jpg,right,training,easy,6,,,,,
,,,,,639f294882a3797f77a3dd81,001,52,male,uk,high school,2024-02-26_18h16.46.223,CRL1e,2023.2.3,Win32,60.24096386,65dbad3905fde4fe1981dc61,65dcd56929fb92e03946a9fd,,,,,,,,,,,82.6266,1.2,83.8285,83.8285,84.8445,left,1,1.0047,,84.8446,85.8338,0,5,5,1,1,total,1,images/Ex9.jpg,left,training,easy,6,,,,,
,,,,,639f294882a3797f77a3dd81,001,52,male,uk,high school,2024-02-26_18h16.46.223,CRL1e,2023.2.3,Win32,60.24096386,65dbad3905fde4fe1981dc61,65dcd56929fb92e03946a9fd,,,,,,,,,,,85.8342,1.1,86.9312,86.9313,87.9218,right,0,0.9893,,87.9218,88.9182,0,6,6,3,1,total,1,images/Ex10.jpg,left,training,easy,6,,,,,
,,,,,639f294882a3797f77a3dd81,001,52,male,uk,high school,2024-02-26_18h16.46.223,CRL1e,2023.2.3,Win32,60.24096386,65dbad3905fde4fe1981dc61,65dcd56929fb92e03946a9fd,,,,,,,,,,,88.9187,0.9,89.8197,89.8197,90.7218,right,1,0.8936,,90.7218,91.7232,0,7,7,4,1,total,1,images/Ex11.jpg,right,training,easy,6,,,,,
,,,,,639f294882a3797f77a3dd81,001,52,male,uk,high school,2024-02-26_18h16.46.223,CRL1e,2023.2.3,Win32,60.24096386,65dbad3905fde4fe1981dc61,65dcd56929fb92e03946a9fd,,,,,,,,,,,91.7236,1,92.7254,92.7257,93.644,right,0,0.9073,,93.6441,94.6336,1,0,8,1,1,total,1,images/Ex9.jpg,left,training,easy,6,,,,,
,,,,,639f294882a3797f77a3dd81,001,52,male,uk,high school,2024-02-26_18h16.46.223,CRL1e,2023.2.3,Win32,60.24096386,65dbad3905fde4fe1981dc61,65dcd56929fb92e03946a9fd,,,,,,,,,,,94.6339,1.3,95.9311,95.9312,97.0558,right,0,1.1233,,97.0558,98.0555,1,1,9,3,1,total,1,images/Ex10.jpg,left,training,easy,6,,,,,
,,,,,639f294882a3797f77a3dd81,001,52,male,uk,high school,2024-02-26_18h16.46.223,CRL1e,2023.2.3,Win32,60.24096386,65dbad3905fde4fe1981dc61,65dcd56929fb92e03946a9fd,,,,,,,,,,,98.0557,1.1,99.1536,99.1536,100.223,right,1,1.0556,,100.2231,101.2243,1,2,10,6,1,total,1,images/Ex12.jpg,right,training,easy,6,,,,,
,,,,,639f294882a3797f77a3dd81,001,52,male,uk,high school,2024-02-26_18h16.46.223,CRL1e,2023.2.3,Win32,60.24096386,65dbad3905fde4fe1981dc61,65dcd56929fb92e03946a9fd,,,,,,,,,,,101.2247,1.2,102.4265,102.4266,103.501,left,1,1.0732,,103.501,104.5021,1,3,11,2,1,total,1,images/Ex10.jpg,left,training,easy,6,,,,,
,,,,,639f294882a3797f77a3dd81,001,52,male,uk,high school,2024-02-26_18h16.46.223,CRL1e,2023.2.3,Win32,60.24096386,65dbad3905fde4fe1981dc61,65dcd56929fb92e03946a9fd,,,,,,,,,,,104.5024,1.3,105.8033,105.8033,106.9687,right,1,1.1517,,106.9688,107.9701,1,4,12,7,1,total,1,images/Ex12.jpg,right,training,easy,6,,,,,
,,,,,639f294882a3797f77a3dd81,001,52,male,uk,high school,2024-02-26_18h16.46.223,CRL1e,2023.2.3,Win32,60.24096386,65dbad3905fde4fe1981dc61,65dcd56929fb92e03946a9fd,,,,,,,,,,,107.9704,1,108.9719,108.972,110.0743,right,1,1.0928,,110.0744,111.0791,1,5,13,4,1,total,1,images/Ex11.jpg,right,training,easy,6,,,,,
,,,,,639f294882a3797f77a3dd81,001,52,male,uk,high school,2024-02-26_18h16.46.223,CRL1e,2023.2.3,Win32,60.24096386,65dbad3905fde4fe1981dc61,65dcd56929fb92e03946a9fd,,,,,,,,,,,111.0794,1.1,112.178,112.178,112.8295,left,1,0.6469,,112.8296,113.8191,1,6,14,0,1,total,1,images/Ex9.jpg,left,training,easy,6,,,,,
,,,,,639f294882a3797f77a3dd81,001,52,male,uk,high school,2024-02-26_18h16.46.223,CRL1e,2023.2.3,Win32,60.24096386,65dbad3905fde4fe1981dc61,65dcd56929fb92e03946a9fd,,,,,,,,,,,113.8195,1.4,115.2167,115.2167,116.1357,right,1,0.9051,,116.1357,117.1252,1,7,15,5,1,total,1,images/Ex11.jpg,right,training,easy,6,,,,,
,,,,,639f294882a3797f77a3dd81,001,52,male,uk,high school,2024-02-26_18h16.46.223,CRL1e,2023.2.3,Win32,60.24096386,65dbad3905fde4fe1981dc61,65dcd56929fb92e03946a9fd,,,,,,,,,,,117.1256,1,118.1222,118.1222,119.0953,left,1,0.9719,,119.0953,120.0923,2,0,16,0,1,total,1,images/Ex9.jpg,left,training,easy,6,,,,,
,,,,,639f294882a3797f77a3dd81,001,52,male,uk,high school,2024-02-26_18h16.46.223,CRL1e,2023.2.3,Win32,60.24096386,65dbad3905fde4fe1981dc61,65dcd56929fb92e03946a9fd,,,,,,,,,,,120.0927,1.2,121.2948,121.2948,122.3637,right,0,1.0667,,122.3638,123.3652,2,1,17,3,1,total,1,images/Ex10.jpg,left,training,easy,6,,,,,
,,,,,639f294882a3797f77a3dd81,001,52,male,uk,high school,2024-02-26_18h16.46.223,CRL1e,2023.2.3,Win32,60.24096386,65dbad3905fde4fe1981dc61,65dcd56929fb92e03946a9fd,,,,,,,,,,,123.3657,1,124.3672,124.3675,125.1691,left,1,0.7873,,125.1691,126.1705,2,2,18,1,1,total,1,images/Ex9.jpg,left,training,easy,6,,,,,
,,,,,639f294882a3797f77a3dd81,001,52,male,uk,high school,2024-02-26_18h16.46.223,CRL1e,2023.2.3,Win32,60.24096386,65dbad3905fde4fe1981dc61,65dcd56929fb92e03946a9fd,,,,,,,,,,,126.1711,0.9,127.0771,127.0772,127.9409,right,1,0.8602,,127.9409,128.9465,2,3,19,5,1,total,1,images/Ex11.jpg,right,training,easy,6,,,,,
,,,,,639f294882a3797f77a3dd81,001,52,male,uk,high school,2024-02-26_18h16.46.223,CRL1e,2023.2.3,Win32,60.24096386,65dbad3905fde4fe1981dc61,65dcd56929fb92e03946a9fd,,,,,,,,,,,128.9467,0.6,129.5433,129.5433,130.4341,left,1,0.8898,,130.4341,131.4302,2,4,20,2,1,total,1,images/Ex10.jpg,left,training,easy,6,,,,,
,,,,,639f294882a3797f77a3dd81,001,52,male,uk,high school,2024-02-26_18h16.46.223,CRL1e,2023.2.3,Win32,60.24096386,65dbad3905fde4fe1981dc61,65dcd56929fb92e03946a9fd,,,,,,,,,,,131.4308,0.7,132.1313,132.1313,133.117,right,1,0.974,,133.117,134.1239,2,5,21,7,1,total,1,images/Ex12.jpg,right,training,easy,6,,,,,
,,,,,639f294882a3797f77a3dd81,001,52,male,uk,high school,2024-02-26_18h16.46.223,CRL1e,2023.2.3,Win32,60.24096386,65dbad3905fde4fe1981dc61,65dcd56929fb92e03946a9fd,,,,,,,,,,,134.1242,1.2,135.3208,135.3208,136.156,right,1,0.8324,,136.1561,137.1575,2,6,22,4,1,total,1,images/Ex11.jpg,right,training,easy,6,,,,,
,,,,,639f294882a3797f77a3dd81,001,52,male,uk,high school,2024-02-26_18h16.46.223,CRL1e,2023.2.3,Win32,60.24096386,65dbad3905fde4fe1981dc61,65dcd56929fb92e03946a9fd,,,,,,,,,,,137.1579,0.8,137.9477,137.9477,139.0491,left,0,1.1004,,139.0491,140.0459,2,7,23,6,1,total,1,images/Ex12.jpg,right,training,easy,6,,,,,
,,,,,639f294882a3797f77a3dd81,001,52,male,uk,high school,2024-02-26_18h16.46.223,CRL1e,2023.2.3,Win32,60.24096386,65dbad3905fde4fe1981dc61,65dcd56929fb92e03946a9fd,,,,,,,,,,,140.0462,0.6,140.6508,140.6508,141.4823,right,1,0.8227,,141.4824,142.4838,3,0,24,6,1,total,1,images/Ex12.jpg,right,training,easy,6,,,,,
,,,,,639f294882a3797f77a3dd81,001,52,male,uk,high school,2024-02-26_18h16.46.223,CRL1e,2023.2.3,Win32,60.24096386,65dbad3905fde4fe1981dc61,65dcd56929fb92e03946a9fd,,,,,,,,,,,142.4841,1.3,143.7863,143.7863,144.6049,right,0,0.8149,,144.605,145.6065,3,1,25,1,1,total,1,images/Ex9.jpg,left,training,easy,6,,,,,
,,,,,639f294882a3797f77a3dd81,001,52,male,uk,high school,2024-02-26_18h16.46.223,CRL1e,2023.2.3,Win32,60.24096386,65dbad3905fde4fe1981dc61,65dcd56929fb92e03946a9fd,,,,,,,,,,,145.6069,0.9,146.5081,146.5081,147.2599,right,1,0.7408,,147.2599,148.2612,3,2,26,4,1,total,1,images/Ex11.jpg,right,training,easy,6,,,,,
,,,,,639f294882a3797f77a3dd81,001,52,male,uk,high school,2024-02-26_18h16.46.223,CRL1e,2023.2.3,Win32,60.24096386,65dbad3905fde4fe1981dc61,65dcd56929fb92e03946a9fd,,,,,,,,,,,148.2616,1.5,149.7638,149.7638,150.3991,left,1,0.6215,,150.3991,151.4004,3,3,27,0,1,total,1,images/Ex9.jpg,left,training,easy,6,,,,,
,,,,,639f294882a3797f77a3dd81,001,52,male,uk,high school,2024-02-26_18h16.46.223,CRL1e,2023.2.3,Win32,60.24096386,65dbad3905fde4fe1981dc61,65dcd56929fb92e03946a9fd,,,,,,,,,,,151.4008,1.1,152.5025,152.5025,153.2375,left,0,0.7307,,153.2375,154.2444,3,4,28,7,1,total,1,images/Ex12.jpg,right,training,easy,6,,,,,
,,,,,639f294882a3797f77a3dd81,001,52,male,uk,high school,2024-02-26_18h16.46.223,CRL1e,2023.2.3,Win32,60.24096386,65dbad3905fde4fe1981dc61,65dcd56929fb92e03946a9fd,,,,,,,,,,,154.2448,0.6,154.8401,154.8401,155.6278,right,1,0.7866,,155.6278,156.6268,3,5,29,5,1,total,1,images/Ex11.jpg,right,training,easy,6,,,,,
,,,,,639f294882a3797f77a3dd81,001,52,male,uk,high school,2024-02-26_18h16.46.223,CRL1e,2023.2.3,Win32,60.24096386,65dbad3905fde4fe1981dc61,65dcd56929fb92e03946a9fd,,,,,,,,,,,156.6271,1.1,157.729,157.729,158.9034,right,0,1.1734,,158.9034,159.8993,3,6,30,2,1,total,1,images/Ex10.jpg,left,training,easy,6,,,,,
,,,,,639f294882a3797f77a3dd81,001,52,male,uk,high school,2024-02-26_18h16.46.223,CRL1e,2023.2.3,Win32,60.24096386,65dbad3905fde4fe1981dc61,65dcd56929fb92e03946a9fd,,,,,,,,,,,159.8996,1.1,161.0015,161.0015,161.536,left,1,0.5209,,161.5361,162.5378,3,7,31,3,1,total,1,images/Ex10.jpg,left,training,easy,6,,,,,
,,,,,639f294882a3797f77a3dd81,001,52,male,uk,high school,2024-02-26_18h16.46.223,CRL1e,2023.2.3,Win32,60.24096386,65dbad3905fde4fe1981dc61,65dcd56929fb92e03946a9fd,,,,,,,,,,,162.5382,0.7,163.2389,163.2389,163.9114,left,1,0.6716,,163.9114,164.9086,4,0,32,2,1,total,1,images/Ex10.jpg,left,training,easy,6,,,,,
,,,,,639f294882a3797f77a3dd81,001,52,male,uk,high school,2024-02-26_18h16.46.223,CRL1e,2023.2.3,Win32,60.24096386,65dbad3905fde4fe1981dc61,65dcd56929fb92e03946a9fd,,,,,,,,,,,164.909,0.9,165.8102,165.8102,166.9128,right,1,1.0954,,166.9129,167.9181,4,1,33,6,1,total,1,images/Ex12.jpg,right,training,easy,6,,,,,
,,,,,639f294882a3797f77a3dd81,001,52,male,uk,high school,2024-02-26_18h16.46.223,CRL1e,2023.2.3,Win32,60.24096386,65dbad3905fde4fe1981dc61,65dcd56929fb92e03946a9fd,,,,,,,,,,,167.9184,1.3,169.2168,169.2168,170.6529,left,1,1.4324,,170.6529,171.6425,4,2,34,3,1,total,1,images/Ex10.jpg,left,training,easy,6,,,,,
,,,,,639f294882a3797f77a3dd81,001,52,male,uk,high school,2024-02-26_18h16.46.223,CRL1e,2023.2.3,Win32,60.24096386,65dbad3905fde4fe1981dc61,65dcd56929fb92e03946a9fd,,,,,,,,,,,171.6429,1.3,172.9403,172.9403,173.6973,right,1,0.7561,,173.6973,174.6972,4,3,35,5,1,total,1,images/Ex11.jpg,right,training,easy,6,,,,,
,,,,,639f294882a3797f77a3dd81,001,52,male,uk,high school,2024-02-26_18h16.46.223,CRL1e,2023.2.3,Win32,60.24096386,65dbad3905fde4fe1981dc61,65dcd56929fb92e03946a9fd,,,,,,,,,,,174.6976,1,175.7001,175.7002,176.564,left,1,0.8611,,176.5641,177.5656,4,4,36,1,1,total,1,images/Ex9.jpg,left,training,easy,6,,,,,
,,,,,639f294882a3797f77a3dd81,001,52,male,uk,high school,2024-02-26_18h16.46.223,CRL1e,2023.2.3,Win32,60.24096386,65dbad3905fde4fe1981dc61,65dcd56929fb92e03946a9fd,,,,,,,,,,,177.5661,1.2,178.7677,178.7677,179.4528,right,1,0.6818,,179.4529,180.4428,4,5,37,4,1,total,1,images/Ex11.jpg,right,training,easy,6,,,,,
,,,,,639f294882a3797f77a3dd81,001,52,male,uk,high school,2024-02-26_18h16.46.223,CRL1e,2023.2.3,Win32,60.24096386,65dbad3905fde4fe1981dc61,65dcd56929fb92e03946a9fd,,,,,,,,,,,180.4431,0.7,181.1387,181.1387,182.141,left,1,0.9904,,182.1411,183.1425,4,6,38,0,1,total,1,images/Ex9.jpg,left,training,easy,6,,,,,
,,,,,639f294882a3797f77a3dd81,001,52,male,uk,high school,2024-02-26_18h16.46.223,CRL1e,2023.2.3,Win32,60.24096386,65dbad3905fde4fe1981dc61,65dcd56929fb92e03946a9fd,,,,,,,,,,,183.143,1.3,184.4448,184.4448,185.3304,right,1,0.8764,,185.3304,186.3318,4,7,39,7,1,total,1,images/Ex12.jpg,right,training,easy,6,,,,,
,,,,,639f294882a3797f77a3dd81,001,52,male,uk,high school,2024-02-26_18h16.46.223,CRL1e,2023.2.3,Win32,60.24096386,65dbad3905fde4fe1981dc61,65dcd56929fb92e03946a9fd,,,,,,,,,,,186.3321,0.7,187.0379,187.038,188.4248,left,1,1.3861,,188.4248,189.4208,5,0,40,2,1,total,1,images/Ex10.jpg,left,training,easy,6,,,,,
,,,,,639f294882a3797f77a3dd81,001,52,male,uk,high school,2024-02-26_18h16.46.223,CRL1e,2023.2.3,Win32,60.24096386,65dbad3905fde4fe1981dc61,65dcd56929fb92e03946a9fd,,,,,,,,,,,189.4211,0.7,190.1221,190.1221,191.1411,right,0,1.0151,,191.1411,192.1425,5,1,41,0,1,total,1,images/Ex9.jpg,left,training,easy,6,,,,,
,,,,,639f294882a3797f77a3dd81,001,52,male,uk,high school,2024-02-26_18h16.46.223,CRL1e,2023.2.3,Win32,60.24096386,65dbad3905fde4fe1981dc61,65dcd56929fb92e03946a9fd,,,,,,,,,,,192.143,0.9,193.0313,193.0314,193.934,right,1,0.9017,,193.9341,194.9311,5,2,42,7,1,total,1,images/Ex12.jpg,right,training,easy,6,,,,,
,,,,,639f294882a3797f77a3dd81,001,52,male,uk,high school,2024-02-26_18h16.46.223,CRL1e,2023.2.3,Win32,60.24096386,65dbad3905fde4fe1981dc61,65dcd56929fb92e03946a9fd,,,,,,,,,,,194.9316,1.1,196.033,196.033,196.7682,right,1,0.7216,,196.7682,197.7695,5,3,43,6,1,total,1,images/Ex12.jpg,right,training,easy,6,,,,,
,,,,,639f294882a3797f77a3dd81,001,52,male,uk,high school,2024-02-26_18h16.46.223,CRL1e,2023.2.3,Win32,60.24096386,65dbad3905fde4fe1981dc61,65dcd56929fb92e03946a9fd,,,,,,,,,,,197.7701,0.5,198.2705,198.2705,199.2058,right,1,0.9223,,199.2058,200.2074,5,4,44,4,1,total,1,images/Ex11.jpg,right,training,easy,6,,,,,
,,,,,639f294882a3797f77a3dd81,001,52,male,uk,high school,2024-02-26_18h16.46.223,CRL1e,2023.2.3,Win32,60.24096386,65dbad3905fde4fe1981dc61,65dcd56929fb92e03946a9fd,,,,,,,,,,,200.2078,0.9,201.1123,201.1123,201.6268,right,1,0.5137,,201.6268,202.6287,5,5,45,5,1,total,1,images/Ex11.jpg,right,training,easy,6,,,,,
,,,,,639f294882a3797f77a3dd81,001,52,male,uk,high school,2024-02-26_18h16.46.223,CRL1e,2023.2.3,Win32,60.24096386,65dbad3905fde4fe1981dc61,65dcd56929fb92e03946a9fd,,,,,,,,,,,202.6291,0.7,203.3297,203.3298,204.4985,right,0,1.1671,,204.4986,205.5003,5,6,46,1,1,total,1,images/Ex9.jpg,left,training,easy,6,,,,,
,,,,,639f294882a3797f77a3dd81,001,52,male,uk,high school,2024-02-26_18h16.46.223,CRL1e,2023.2.3,Win32,60.24096386,65dbad3905fde4fe1981dc61,65dcd56929fb92e03946a9fd,,,,,,,,,,,205.5006,0.6,206.1014,206.1014,206.9702,left,1,0.868,,206.9702,207.9718,5,7,47,3,1,total,1,images/Ex10.jpg,left,training,easy,6,,,,,
,,,,,639f294882a3797f77a3dd81,001,52,male,uk,high school,2024-02-26_18h16.46.223,CRL1e,2023.2.3,Win32,60.24096386,65dbad3905fde4fe1981dc61,65dcd56929fb92e03946a9fd,,,,,,,,,,,207.9744,0.9,208.8733,208.8733,209.5917,left,0,0.7047,,209.5917,210.5967,0,0,0,1,1,total,2,images/Ex9.jpg,right,reversed,easy,6,,,,,
,,,,,639f294882a3797f77a3dd81,001,52,male,uk,high school,2024-02-26_18h16.46.223,CRL1e,2023.2.3,Win32,60.24096386,65dbad3905fde4fe1981dc61,65dcd56929fb92e03946a9fd,,,,,,,,,,,210.5969,0.7,211.2994,211.2994,211.9291,right,0,0.6222,,211.9292,212.931,0,1,1,4,1,total,2,images/Ex11.jpg,left,reversed,easy,6,,,,,
,,,,,639f294882a3797f77a3dd81,001,52,male,uk,high school,2024-02-26_18h16.46.223,CRL1e,2023.2.3,Win32,60.24096386,65dbad3905fde4fe1981dc61,65dcd56929fb92e03946a9fd,,,,,,,,,,,212.9314,1.5,214.4337,214.4338,215.5695,left,1,1.1269,,215.5695,216.5712,0,2,2,6,1,total,2,images/Ex12.jpg,left,reversed,easy,6,,,,,
,,,,,639f294882a3797f77a3dd81,001,52,male,uk,high school,2024-02-26_18h16.46.223,CRL1e,2023.2.3,Win32,60.24096386,65dbad3905fde4fe1981dc61,65dcd56929fb92e03946a9fd,,,,,,,,,,,216.5716,0.8,217.3605,217.3605,217.9235,right,1,0.5527,,217.9235,218.9254,0,3,3,0,1,total,2,images/Ex9.jpg,right,reversed,easy,6,,,,,
,,,,,639f294882a3797f77a3dd81,001,52,male,uk,high school,2024-02-26_18h16.46.223,CRL1e,2023.2.3,Win32,60.24096386,65dbad3905fde4fe1981dc61,65dcd56929fb92e03946a9fd,,,,,,,,,,,218.9257,1,219.9155,219.9155,220.6315,left,0,0.7152,,220.6315,221.6305,0,4,4,2,1,total,2,images/Ex10.jpg,right,reversed,easy,6,,,,,
,,,,,639f294882a3797f77a3dd81,001,52,male,uk,high school,2024-02-26_18h16.46.223,CRL1e,2023.2.3,Win32,60.24096386,65dbad3905fde4fe1981dc61,65dcd56929fb92e03946a9fd,,,,,,,,,,,221.6308,1.1,222.7321,222.7321,223.9016,right,0,1.1655,,223.9017,224.8912,0,5,5,7,1,total,2,images/Ex12.jpg,left,reversed,easy,6,,,,,
,,,,,639f294882a3797f77a3dd81,001,52,male,uk,high school,2024-02-26_18h16.46.223,CRL1e,2023.2.3,Win32,60.24096386,65dbad3905fde4fe1981dc61,65dcd56929fb92e03946a9fd,,,,,,,,,,,224.8916,1.3,226.1886,226.1886,227.0571,right,0,0.8607,,227.0571,228.046,0,6,6,5,1,total,2,images/Ex11.jpg,left,reversed,easy,6,,,,,
,,,,,639f294882a3797f77a3dd81,001,52,male,uk,high school,2024-02-26_18h16.46.223,CRL1e,2023.2.3,Win32,60.24096386,65dbad3905fde4fe1981dc61,65dcd56929fb92e03946a9fd,,,,,,,,,,,228.0465,1.4,229.4448,229.4448,230.6641,left,0,1.2056,,230.6643,231.6537,0,7,7,3,1,total,2,images/Ex10.jpg,right,reversed,easy,6,,,,,
,,,,,639f294882a3797f77a3dd81,001,52,male,uk,high school,2024-02-26_18h16.46.223,CRL1e,2023.2.3,Win32,60.24096386,65dbad3905fde4fe1981dc61,65dcd56929fb92e03946a9fd,,,,,,,,,,,231.654,1.3,232.9513,232.9514,234.0037,left,0,1.0419,,234.0038,235.0049,1,0,8,2,1,total,2,images/Ex10.jpg,right,reversed,easy,6,,,,,
,,,,,639f294882a3797f77a3dd81,001,52,male,uk,high school,2024-02-26_18h16.46.223,CRL1e,2023.2.3,Win32,60.24096386,65dbad3905fde4fe1981dc61,65dcd56929fb92e03946a9fd,,,,,,,,,,,235.0052,1.3,236.3074,236.3075,237.4767,right,1,1.1656,,237.4768,238.4782,1,1,9,1,1,total,2,images/Ex9.jpg,right,reversed,easy,6,,,,,
,,,,,639f294882a3797f77a3dd81,001,52,male,uk,high school,2024-02-26_18h16.46.223,CRL1e,2023.2.3,Win32,60.24096386,65dbad3905fde4fe1981dc61,65dcd56929fb92e03946a9fd,,,,,,,,,,,238.4786,1.4,239.8809,239.8809,240.6327,right,0,0.744,,240.6327,241.634,1,2,10,5,1,total,2,images/Ex11.jpg,left,reversed,easy,6,,,,,
,,,,,639f294882a3797f77a3dd81,001,52,male,uk,high school,2024-02-26_18h16.46.223,CRL1e,2023.2.3,Win32,60.24096386,65dbad3905fde4fe1981dc61,65dcd56929fb92e03946a9fd,,,,,,,,,,,241.6343,0.8,242.4354,242.4355,243.4378,right,1,0.9972,,243.4378,244.4266,1,3,11,0,1,total,2,images/Ex9.jpg,right,reversed,easy,6,,,,,
,,,,,639f294882a3797f77a3dd81,001,52,male,uk,high school,2024-02-26_18h16.46.223,CRL1e,2023.2.3,Win32,60.24096386,65dbad3905fde4fe1981dc61,65dcd56929fb92e03946a9fd,,,,,,,,,,,244.427,1.3,245.725,245.725,246.8104,left,1,1.0716,,246.8105,247.8123,1,4,12,4,1,total,2,images/Ex11.jpg,left,reversed,easy,6,,,,,
,,,,,639f294882a3797f77a3dd81,001,52,male,uk,high school,2024-02-26_18h16.46.223,CRL1e,2023.2.3,Win32,60.24096386,65dbad3905fde4fe1981dc61,65dcd56929fb92e03946a9fd,,,,,,,,,,,247.8126,0.9,248.7192,248.7192,249.6829,right,1,0.9497,,249.6829,250.6886,1,5,13,3,1,total,2,images/Ex10.jpg,right,reversed,easy,6,,,,,
,,,,,639f294882a3797f77a3dd81,001,52,male,uk,high school,2024-02-26_18h16.46.223,CRL1e,2023.2.3,Win32,60.24096386,65dbad3905fde4fe1981dc61,65dcd56929fb92e03946a9fd,,,,,,,,,,,250.6889,1.1,251.7862,251.7862,252.9387,right,0,1.1386,,252.9387,253.9289,1,6,14,7,1,total,2,images/Ex12.jpg,left,reversed,easy,6,,,,,
,,,,,639f294882a3797f77a3dd81,001,52,male,uk,high school,2024-02-26_18h16.46.223,CRL1e,2023.2.3,Win32,60.24096386,65dbad3905fde4fe1981dc61,65dcd56929fb92e03946a9fd,,,,,,,,,,,253.9291,0.8,254.7279,254.7279,255.53,left,1,0.8016,,255.53,256.5283,1,7,15,6,1,total,2,images/Ex12.jpg,left,reversed,easy,6,,,,,
,,,,,639f294882a3797f77a3dd81,001,52,male,uk,high school,2024-02-26_18h16.46.223,CRL1e,2023.2.3,Win32,60.24096386,65dbad3905fde4fe1981dc61,65dcd56929fb92e03946a9fd,,,,,,,,,,,256.5289,0.8,257.3165,257.3165,258.3486,right,0,1.021,,258.3487,259.3501,2,0,16,5,1,total,2,images/Ex11.jpg,left,reversed,easy,6,,,,,
,,,,,639f294882a3797f77a3dd81,001,52,male,uk,high school,2024-02-26_18h16.46.223,CRL1e,2023.2.3,Win32,60.24096386,65dbad3905fde4fe1981dc61,65dcd56929fb92e03946a9fd,,,,,,,,,,,259.3505,1,260.3519,260.3519,261.4211,right,1,1.0651,,261.4212,262.4226,2,1,17,2,1,total,2,images/Ex10.jpg,right,reversed,easy,6,,,,,
,,,,,639f294882a3797f77a3dd81,001,52,male,uk,high school,2024-02-26_18h16.46.223,CRL1e,2023.2.3,Win32,60.24096386,65dbad3905fde4fe1981dc61,65dcd56929fb92e03946a9fd,,,,,,,,,,,262.423,0.9,263.312,263.3121,264.2137,right,1,0.9008,,264.2137,265.211,2,2,18,1,1,total,2,images/Ex9.jpg,right,reversed,easy,6,,,,,
,,,,,639f294882a3797f77a3dd81,001,52,male,uk,high school,2024-02-26_18h16.46.223,CRL1e,2023.2.3,Win32,60.24096386,65dbad3905fde4fe1981dc61,65dcd56929fb92e03946a9fd,,,,,,,,,,,265.2113,0.9,266.1124,266.1125,267.3488,right,0,1.225,,267.3488,268.3503,2,3,19,7,1,total,2,images/Ex12.jpg,left,reversed,easy,6,,,,,
,,,,,639f294882a3797f77a3dd81,001,52,male,uk,high school,2024-02-26_18h16.46.223,CRL1e,2023.2.3,Win32,60.24096386,65dbad3905fde4fe1981dc61,65dcd56929fb92e03946a9fd,,,,,,,,,,,268.3508,0.8,269.1514,269.1514,270.0871,left,1,0.9221,,270.0871,271.0885,2,4,20,4,1,total,2,images/Ex11.jpg,left,reversed,easy,6,,,,,
,,,,,639f294882a3797f77a3dd81,001,52,male,uk,high school,2024-02-26_18h16.46.223,CRL1e,2023.2.3,Win32,60.24096386,65dbad3905fde4fe1981dc61,65dcd56929fb92e03946a9fd,,,,,,,,,,,271.0889,0.7,271.7927,271.7927,272.7588,left,1,0.9605,,272.7588,273.7601,2,5,21,6,1,total,2,images/Ex12.jpg,left,reversed,easy,6,,,,,
,,,,,639f294882a3797f77a3dd81,001,52,male,uk,high school,2024-02-26_18h16.46.223,CRL1e,2023.2.3,Win32,60.24096386,65dbad3905fde4fe1981dc61,65dcd56929fb92e03946a9fd,,,,,,,,,,,273.7607,1.1,274.8504,274.8505,276.2151,right,1,1.3587,,276.2151,277.2192,2,6,22,0,1,total,2,images/Ex9.jpg,right,reversed,easy,6,,,,,
,,,,,639f294882a3797f77a3dd81,001,52,male,uk,high school,2024-02-26_18h16.46.223,CRL1e,2023.2.3,Win32,60.24096386,65dbad3905fde4fe1981dc61,65dcd56929fb92e03946a9fd,,,,,,,,,,,277.2197,0.7,277.9178,277.9179,279.0036,right,1,1.0833,,279.0036,279.9916,2,7,23,3,1,total,2,images/Ex10.jpg,right,reversed,easy,6,,,,,
,,,,,639f294882a3797f77a3dd81,001,52,male,uk,high school,2024-02-26_18h16.46.223,CRL1e,2023.2.3,Win32,60.24096386,65dbad3905fde4fe1981dc61,65dcd56929fb92e03946a9fd,,,,,,,,,,,279.992,0.7,280.6895,280.6898,281.2905,right,1,0.5999,,281.2907,282.2926,3,0,24,3,1,total,2,images/Ex10.jpg,right,reversed,easy,6,,,,,
,,,,,639f294882a3797f77a3dd81,001,52,male,uk,high school,2024-02-26_18h16.46.223,CRL1e,2023.2.3,Win32,60.24096386,65dbad3905fde4fe1981dc61,65dcd56929fb92e03946a9fd,,,,,,,,,,,282.293,1.4,283.6986,283.6987,284.6305,left,1,0.9184,,284.6305,285.6322,3,1,25,4,1,total,2,images/Ex11.jpg,left,reversed,easy,6,,,,,
,,,,,639f294882a3797f77a3dd81,001,52,male,uk,high school,2024-02-26_18h16.46.223,CRL1e,2023.2.3,Win32,60.24096386,65dbad3905fde4fe1981dc61,65dcd56929fb92e03946a9fd,,,,,,,,,,,285.6325,0.9,286.5336,286.5336,287.319,right,1,0.7799,,287.319,288.3203,3,2,26,1,1,total,2,images/Ex9.jpg,right,reversed,easy,6,,,,,
,,,,,639f294882a3797f77a3dd81,001,52,male,uk,high school,2024-02-26_18h16.46.223,CRL1e,2023.2.3,Win32,60.24096386,65dbad3905fde4fe1981dc61,65dcd56929fb92e03946a9fd,,,,,,,,,,,288.3207,1.3,289.6228,289.6229,290.5583,left,1,0.9219,,290.5583,291.5595,3,3,27,5,1,total,2,images/Ex11.jpg,left,reversed,easy,6,,,,,
,,,,,639f294882a3797f77a3dd81,001,52,male,uk,high school,2024-02-26_18h16.46.223,CRL1e,2023.2.3,Win32,60.24096386,65dbad3905fde4fe1981dc61,65dcd56929fb92e03946a9fd,,,,,,,,,,,291.5598,0.8,292.361,292.3611,293.1629,right,1,0.7925,,293.163,294.1518,3,4,28,2,1,total,2,images/Ex10.jpg,right,reversed,easy,6,,,,,
,,,,,639f294882a3797f77a3dd81,001,52,male,uk,high school,2024-02-26_18h16.46.223,CRL1e,2023.2.3,Win32,60.24096386,65dbad3905fde4fe1981dc61,65dcd56929fb92e03946a9fd,,,,,,,,,,,294.1523,1.2,295.3501,295.3501,296.4693,left,1,1.1066,,296.4693,297.4707,3,5,29,7,1,total,2,images/Ex12.jpg,left,reversed,easy,6,,,,,
,,,,,639f294882a3797f77a3dd81,001,52,male,uk,high school,2024-02-26_18h16.46.223,CRL1e,2023.2.3,Win32,60.24096386,65dbad3905fde4fe1981dc61,65dcd56929fb92e03946a9fd,,,,,,,,,,,297.471,1.3,298.7731,298.7732,299.3106,right,1,0.5366,,299.3106,300.309,3,6,30,0,1,total,2,images/Ex9.jpg,right,reversed,easy,6,,,,,
,,,,,639f294882a3797f77a3dd81,001,52,male,uk,high school,2024-02-26_18h16.46.223,CRL1e,2023.2.3,Win32,60.24096386,65dbad3905fde4fe1981dc61,65dcd56929fb92e03946a9fd,,,,,,,,,,,300.3093,1.4,301.7118,301.7118,302.636,left,1,0.9232,,302.636,303.6321,3,7,31,6,1,total,2,images/Ex12.jpg,left,reversed,easy,6,,,,,
,,,,,639f294882a3797f77a3dd81,001,52,male,uk,high school,2024-02-26_18h16.46.223,CRL1e,2023.2.3,Win32,60.24096386,65dbad3905fde4fe1981dc61,65dcd56929fb92e03946a9fd,,,,,,,,,,,303.6325,1.1,304.7372,304.7373,305.5025,right,1,0.7522,,305.5026,306.5041,4,0,32,2,1,total,2,images/Ex10.jpg,right,reversed,easy,6,,,,,
,,,,,639f294882a3797f77a3dd81,001,52,male,uk,high school,2024-02-26_18h16.46.223,CRL1e,2023.2.3,Win32,60.24096386,65dbad3905fde4fe1981dc61,65dcd56929fb92e03946a9fd,,,,,,,,,,,306.5044,0.5,307.0051,307.0051,307.7733,left,1,0.7589,,307.7733,308.7747,4,1,33,7,1,total,2,images/Ex12.jpg,left,reversed,easy,6,,,,,
,,,,,639f294882a3797f77a3dd81,001,52,male,uk,high school,2024-02-26_18h16.46.223,CRL1e,2023.2.3,Win32,60.24096386,65dbad3905fde4fe1981dc61,65dcd56929fb92e03946a9fd,,,,,,,,,,,308.7751,1.2,309.9649,309.965,310.6453,right,1,0.6679,,310.6454,311.6469,4,2,34,3,1,total,2,images/Ex10.jpg,right,reversed,easy,6,,,,,
,,,,,639f294882a3797f77a3dd81,001,52,male,uk,high school,2024-02-26_18h16.46.223,CRL1e,2023.2.3,Win32,60.24096386,65dbad3905fde4fe1981dc61,65dcd56929fb92e03946a9fd,,,,,,,,,,,311.6472,1.1,312.737,312.737,313.4006,right,0,0.6497,,313.4006,314.402,4,3,35,5,1,total,2,images/Ex11.jpg,left,reversed,easy,6,,,,,
,,,,,639f294882a3797f77a3dd81,001,52,male,uk,high school,2024-02-26_18h16.46.223,CRL1e,2023.2.3,Win32,60.24096386,65dbad3905fde4fe1981dc61,65dcd56929fb92e03946a9fd,,,,,,,,,,,314.4024,1.5,315.9047,315.9047,316.7398,right,1,0.8325,,316.7399,317.7416,4,4,36,0,1,total,2,images/Ex9.jpg,right,reversed,easy,6,,,,,
,,,,,639f294882a3797f77a3dd81,001,52,male,uk,high school,2024-02-26_18h16.46.223,CRL1e,2023.2.3,Win32,60.24096386,65dbad3905fde4fe1981dc61,65dcd56929fb92e03946a9fd,,,,,,,,,,,317.7421,0.6,318.3427,318.3427,319.1443,left,1,0.7944,,319.1443,320.146,4,5,37,4,1,total,2,images/Ex11.jpg,left,reversed,easy,6,,,,,
,,,,,639f294882a3797f77a3dd81,001,52,male,uk,high school,2024-02-26_18h16.46.223,CRL1e,2023.2.3,Win32,60.24096386,65dbad3905fde4fe1981dc61,65dcd56929fb92e03946a9fd,,,,,,,,,,,320.1464,0.7,320.8528,320.8528,321.8494,left,1,0.9884,,321.8495,322.8508,4,6,38,6,1,total,2,images/Ex12.jpg,left,reversed,easy,6,,,,,
,,,,,639f294882a3797f77a3dd81,001,52,male,uk,high school,2024-02-26_18h16.46.223,CRL1e,2023.2.3,Win32,60.24096386,65dbad3905fde4fe1981dc61,65dcd56929fb92e03946a9fd,,,,,,,,,,,322.8511,1.5,324.3538,324.3538,325.1056,right,1,0.738,,325.1057,326.1067,4,7,39,1,1,total,2,images/Ex9.jpg,right,reversed,easy,6,,,,,
,,,,,639f294882a3797f77a3dd81,001,52,male,uk,high school,2024-02-26_18h16.46.223,CRL1e,2023.2.3,Win32,60.24096386,65dbad3905fde4fe1981dc61,65dcd56929fb92e03946a9fd,,,,,,,,,,,326.1071,1.3,327.3971,327.3971,328.1613,right,1,0.7565,,328.1613,329.1677,5,0,40,2,1,total,2,images/Ex10.jpg,right,reversed,easy,6,,,,,
,,,,,639f294882a3797f77a3dd81,001,52,male,uk,high school,2024-02-26_18h16.46.223,CRL1e,2023.2.3,Win32,60.24096386,65dbad3905fde4fe1981dc61,65dcd56929fb92e03946a9fd,,,,,,,,,,,329.168,1.3,330.465,330.4651,331.2668,left,1,0.7879,,331.2668,332.2683,5,1,41,7,1,total,2,images/Ex12.jpg,left,reversed,easy,6,,,,,
,,,,,639f294882a3797f77a3dd81,001,52,male,uk,high school,2024-02-26_18h16.46.223,CRL1e,2023.2.3,Win32,60.24096386,65dbad3905fde4fe1981dc61,65dcd56929fb92e03946a9fd,,,,,,,,,,,332.2686,0.9,333.173,333.173,334.022,left,0,0.8439,,334.022,335.0234,5,2,42,1,1,total,2,images/Ex9.jpg,right,reversed,easy,6,,,,,
,,,,,639f294882a3797f77a3dd81,001,52,male,uk,high school,2024-02-26_18h16.46.223,CRL1e,2023.2.3,Win32,60.24096386,65dbad3905fde4fe1981dc61,65dcd56929fb92e03946a9fd,,,,,,,,,,,335.0238,1.1,336.1255,336.1255,336.8315,right,1,0.7052,,336.8315,337.8286,5,3,43,0,1,total,2,images/Ex9.jpg,right,reversed,easy,6,,,,,
,,,,,639f294882a3797f77a3dd81,001,52,male,uk,high school,2024-02-26_18h16.46.223,CRL1e,2023.2.3,Win32,60.24096386,65dbad3905fde4fe1981dc61,65dcd56929fb92e03946a9fd,,,,,,,,,,,337.829,0.7,338.5184,338.5185,339.3483,left,1,0.8192,,339.3484,340.35,5,4,44,5,1,total,2,images/Ex11.jpg,left,reversed,easy,6,,,,,
,,,,,639f294882a3797f77a3dd81,001,52,male,uk,high school,2024-02-26_18h16.46.223,CRL1e,2023.2.3,Win32,60.24096386,65dbad3905fde4fe1981dc61,65dcd56929fb92e03946a9fd,,,,,,,,,,,340.3504,1.4,341.7526,341.7527,342.4569,left,1,0.7033,,342.457,343.4557,5,5,45,6,1,total,2,images/Ex12.jpg,left,reversed,easy,6,,,,,
,,,,,639f294882a3797f77a3dd81,001,52,male,uk,high school,2024-02-26_18h16.46.223,CRL1e,2023.2.3,Win32,60.24096386,65dbad3905fde4fe1981dc61,65dcd56929fb92e03946a9fd,,,,,,,,,,,343.4559,1.3,344.7581,344.7582,345.4264,left,1,0.6673,,345.4264,346.4279,5,6,46,4,1,total,2,images/Ex11.jpg,left,reversed,easy,6,,,,,
,,,,,639f294882a3797f77a3dd81,001,52,male,uk,high school,2024-02-26_18h16.46.223,CRL1e,2023.2.3,Win32,60.24096386,65dbad3905fde4fe1981dc61,65dcd56929fb92e03946a9fd,,,,,,,,,,,346.4283,1.3,347.7304,347.7304,348.4654,right,1,0.7267,,348.4655,349.4669,5,7,47,3,1,total,2,images/Ex10.jpg,right,reversed,easy,6,,,,,
,,,,,639f294882a3797f77a3dd81,001,52,male,uk,high school,2024-02-26_18h16.46.223,CRL1e,2023.2.3,Win32,60.24096386,65dbad3905fde4fe1981dc61,65dcd56929fb92e03946a9fd,,,,,,349.4675,363.7099,space,14.2181,,363.7127,1,364.7172,364.7172,365.5633,left,1,0.836,,365.5633,366.5651,0,0,0,1,1,partial,1,images/Ex13.jpg,left,training,easy,6,,,,,
,,,,,639f294882a3797f77a3dd81,001,52,male,uk,high school,2024-02-26_18h16.46.223,CRL1e,2023.2.3,Win32,60.24096386,65dbad3905fde4fe1981dc61,65dcd56929fb92e03946a9fd,,,,,,,,,,,366.5655,0.8,367.3666,367.3666,368.1851,left,1,0.8102,,368.1851,369.1733,0,1,1,2,1,partial,1,images/Ex14.jpg,left,training,easy,6,,,,,
,,,,,639f294882a3797f77a3dd81,001,52,male,uk,high school,2024-02-26_18h16.46.223,CRL1e,2023.2.3,Win32,60.24096386,65dbad3905fde4fe1981dc61,65dcd56929fb92e03946a9fd,,,,,,,,,,,369.1736,0.6,369.7711,369.7711,370.7063,right,1,0.9259,,370.7064,371.708,0,2,2,7,1,partial,1,images/Ex16.jpg,right,training,easy,6,,,,,
,,,,,639f294882a3797f77a3dd81,001,52,male,uk,high school,2024-02-26_18h16.46.223,CRL1e,2023.2.3,Win32,60.24096386,65dbad3905fde4fe1981dc61,65dcd56929fb92e03946a9fd,,,,,,,,,,,371.7084,0.8,372.5095,372.5095,373.1942,left,1,0.6754,,373.1942,374.1958,0,3,3,0,1,partial,1,images/Ex13.jpg,left,training,easy,6,,,,,
,,,,,639f294882a3797f77a3dd81,001,52,male,uk,high school,2024-02-26_18h16.46.223,CRL1e,2023.2.3,Win32,60.24096386,65dbad3905fde4fe1981dc61,65dcd56929fb92e03946a9fd,,,,,,,,,,,374.1962,0.7,374.8972,374.8973,375.6039,right,1,0.7056,,375.6039,376.6003,0,4,4,6,1,partial,1,images/Ex16.jpg,right,training,easy,6,,,,,
,,,,,639f294882a3797f77a3dd81,001,52,male,uk,high school,2024-02-26_18h16.46.223,CRL1e,2023.2.3,Win32,60.24096386,65dbad3905fde4fe1981dc61,65dcd56929fb92e03946a9fd,,,,,,,,,,,376.6009,1.3,377.9027,377.9028,378.6574,left,1,0.7536,,378.6574,379.656,0,5,5,3,1,partial,1,images/Ex14.jpg,left,training,easy,6,,,,,
,,,,,639f294882a3797f77a3dd81,001,52,male,uk,high school,2024-02-26_18h16.46.223,CRL1e,2023.2.3,Win32,60.24096386,65dbad3905fde4fe1981dc61,65dcd56929fb92e03946a9fd,,,,,,,,,,,379.6564,0.8,380.4575,380.4576,381.1922,right,1,0.7212,,381.1923,382.194,0,6,6,4,1,partial,1,images/Ex15.jpg,right,training,easy,6,,,,,
,,,,,639f294882a3797f77a3dd81,001,52,male,uk,high school,2024-02-26_18h16.46.223,CRL1e,2023.2.3,Win32,60.24096386,65dbad3905fde4fe1981dc61,65dcd56929fb92e03946a9fd,,,,,,,,,,,382.1944,1.1,383.2959,383.2959,384.084,right,1,0.7874,,384.0841,385.0826,0,7,7,5,1,partial,1,images/Ex15.jpg,right,training,easy,6,,,,,
,,,,,639f294882a3797f77a3dd81,001,52,male,uk,high school,2024-02-26_18h16.46.223,CRL1e,2023.2.3,Win32,60.24096386,65dbad3905fde4fe1981dc61,65dcd56929fb92e03946a9fd,,,,,,,,,,,385.083,1.2,386.2714,386.2714,386.8582,right,1,0.5859,,386.8583,387.8585,1,0,8,7,1,partial,1,images/Ex16.jpg,right,training,easy,6,,,,,
,,,,,639f294882a3797f77a3dd81,001,52,male,uk,high school,2024-02-26_18h16.46.223,CRL1e,2023.2.3,Win32,60.24096386,65dbad3905fde4fe1981dc61,65dcd56929fb92e03946a9fd,,,,,,,,,,,387.8588,1.2,389.0568,389.0568,389.7252,right,1,0.6576,,389.7252,390.7265,1,1,9,4,1,partial,1,images/Ex15.jpg,right,training,easy,6,,,,,
,,,,,639f294882a3797f77a3dd81,001,52,male,uk,high school,2024-02-26_18h16.46.223,CRL1e,2023.2.3,Win32,60.24096386,65dbad3905fde4fe1981dc61,65dcd56929fb92e03946a9fd,,,,,,,,,,,390.7269,1.3,392.029,392.029,392.7304,right,1,0.6881,,392.7305,393.7319,1,2,10,6,1,partial,1,images/Ex16.jpg,right,training,easy,6,,,,,
,,,,,639f294882a3797f77a3dd81,001,52,male,uk,high school,2024-02-26_18h16.46.223,CRL1e,2023.2.3,Win32,60.24096386,65dbad3905fde4fe1981dc61,65dcd56929fb92e03946a9fd,,,,,,,,,,,393.7322,1.4,395.1347,395.1347,396.0914,left,1,0.9556,,396.0914,397.088,1,3,11,3,1,partial,1,images/Ex14.jpg,left,training,easy,6,,,,,
,,,,,639f294882a3797f77a3dd81,001,52,male,uk,high school,2024-02-26_18h16.46.223,CRL1e,2023.2.3,Win32,60.24096386,65dbad3905fde4fe1981dc61,65dcd56929fb92e03946a9fd,,,,,,,,,,,397.0884,1.1,398.1904,398.1904,398.8114,left,1,0.6199,,398.8114,399.81,1,4,12,0,1,partial,1,images/Ex13.jpg,left,training,easy,6,,,,,
,,,,,639f294882a3797f77a3dd81,001,52,male,uk,high school,2024-02-26_18h16.46.223,CRL1e,2023.2.3,Win32,60.24096386,65dbad3905fde4fe1981dc61,65dcd56929fb92e03946a9fd,,,,,,,,,,,399.8104,0.8,400.6115,400.6116,401.066,left,1,0.4538,,401.066,402.0688,1,5,13,1,1,partial,1,images/Ex13.jpg,left,training,easy,6,,,,,
,,,,,639f294882a3797f77a3dd81,001,52,male,uk,high school,2024-02-26_18h16.46.223,CRL1e,2023.2.3,Win32,60.24096386,65dbad3905fde4fe1981dc61,65dcd56929fb92e03946a9fd,,,,,,,,,,,402.0692,0.8,402.8703,402.8703,403.3835,left,1,0.5068,,403.3836,404.3906,1,6,14,2,1,partial,1,images/Ex14.jpg,left,training,easy,6,,,,,
,,,,,639f294882a3797f77a3dd81,001,52,male,uk,high school,2024-02-26_18h16.46.223,CRL1e,2023.2.3,Win32,60.24096386,65dbad3905fde4fe1981dc61,65dcd56929fb92e03946a9fd,,,,,,,,,,,404.3908,1.1,405.4871,405.4871,406.3057,right,1,0.8049,,406.3057,407.3071,1,7,15,5,1,partial,1,images/Ex15.jpg,right,training,easy,6,,,,,
,,,,,639f294882a3797f77a3dd81,001,52,male,uk,high school,2024-02-26_18h16.46.223,CRL1e,2023.2.3,Win32,60.24096386,65dbad3905fde4fe1981dc61,65dcd56929fb92e03946a9fd,,,,,,,,,,,407.3074,1.3,408.6146,408.6146,409.3656,left,1,0.7502,,409.3656,410.3677,2,0,16,1,1,partial,1,images/Ex13.jpg,left,training,easy,6,,,,,
,,,,,639f294882a3797f77a3dd81,001,52,male,uk,high school,2024-02-26_18h16.46.223,CRL1e,2023.2.3,Win32,60.24096386,65dbad3905fde4fe1981dc61,65dcd56929fb92e03946a9fd,,,,,,,,,,,410.3681,0.6,410.9637,410.9638,411.5819,right,1,0.6052,,411.582,412.5836,2,1,17,6,1,partial,1,images/Ex16.jpg,right,training,easy,6,,,,,
,,,,,639f294882a3797f77a3dd81,001,52,male,uk,high school,2024-02-26_18h16.46.223,CRL1e,2023.2.3,Win32,60.24096386,65dbad3905fde4fe1981dc61,65dcd56929fb92e03946a9fd,,,,,,,,,,,412.584,1.1,413.6857,413.6857,414.4207,left,1,0.7233,,414.4208,415.4222,2,2,18,3,1,partial,1,images/Ex14.jpg,left,training,easy,6,,,,,
,,,,,639f294882a3797f77a3dd81,001,52,male,uk,high school,2024-02-26_18h16.46.223,CRL1e,2023.2.3,Win32,60.24096386,65dbad3905fde4fe1981dc61,65dcd56929fb92e03946a9fd,,,,,,,,,,,415.4226,1.4,416.8246,416.8246,417.443,right,1,0.608,,417.443,418.4444,2,3,19,4,1,partial,1,images/Ex15.jpg,right,training,easy,6,,,,,
,,,,,639f294882a3797f77a3dd81,001,52,male,uk,high school,2024-02-26_18h16.46.223,CRL1e,2023.2.3,Win32,60.24096386,65dbad3905fde4fe1981dc61,65dcd56929fb92e03946a9fd,,,,,,,,,,,418.445,0.6,419.0456,419.0456,419.6469,left,1,0.5956,,419.6469,420.6538,2,4,20,0,1,partial,1,images/Ex13.jpg,left,training,easy,6,,,,,
,,,,,639f294882a3797f77a3dd81,001,52,male,uk,high school,2024-02-26_18h16.46.223,CRL1e,2023.2.3,Win32,60.24096386,65dbad3905fde4fe1981dc61,65dcd56929fb92e03946a9fd,,,,,,,,,,,420.6541,0.9,421.5501,421.5501,422.1515,right,1,0.5949,,422.1516,423.1531,2,5,21,5,1,partial,1,images/Ex15.jpg,right,training,easy,6,,,,,
,,,,,639f294882a3797f77a3dd81,001,52,male,uk,high school,2024-02-26_18h16.46.223,CRL1e,2023.2.3,Win32,60.24096386,65dbad3905fde4fe1981dc61,65dcd56929fb92e03946a9fd,,,,,,,,,,,423.1536,0.6,423.7543,423.7543,424.4277,right,1,0.6724,,424.4278,425.4241,2,6,22,7,1,partial,1,images/Ex16.jpg,right,training,easy,6,,,,,
,,,,,639f294882a3797f77a3dd81,001,52,male,uk,high school,2024-02-26_18h16.46.223,CRL1e,2023.2.3,Win32,60.24096386,65dbad3905fde4fe1981dc61,65dcd56929fb92e03946a9fd,,,,,,,,,,,425.4244,1.5,426.9268,426.9268,427.5836,left,1,0.6557,,427.5836,428.584,2,7,23,2,1,partial,1,images/Ex14.jpg,left,training,easy,6,,,,,
,,,,,639f294882a3797f77a3dd81,001,52,male,uk,high school,2024-02-26_18h16.46.223,CRL1e,2023.2.3,Win32,60.24096386,65dbad3905fde4fe1981dc61,65dcd56929fb92e03946a9fd,,,,,,,,,,,428.5843,0.9,429.4815,429.4815,430.0858,right,1,0.6032,,430.0858,431.0846,3,0,24,6,1,partial,1,images/Ex16.jpg,right,training,easy,6,,,,,
,,,,,639f294882a3797f77a3dd81,001,52,male,uk,high school,2024-02-26_18h16.46.223,CRL1e,2023.2.3,Win32,60.24096386,65dbad3905fde4fe1981dc61,65dcd56929fb92e03946a9fd,,,,,,,,,,,431.0848,1.1,432.1747,432.1748,432.8049,left,1,0.6184,,432.8049,433.8062,3,1,25,1,1,partial,1,images/Ex13.jpg,left,training,easy,6,,,,,
,,,,,639f294882a3797f77a3dd81,001,52,male,uk,high school,2024-02-26_18h16.46.223,CRL1e,2023.2.3,Win32,60.24096386,65dbad3905fde4fe1981dc61,65dcd56929fb92e03946a9fd,,,,,,,,,,,433.8066,0.7,434.4958,434.4958,435.0587,left,1,0.5533,,435.0587,436.0605,3,2,26,2,1,partial,1,images/Ex14.jpg,left,training,easy,6,,,,,
,,,,,639f294882a3797f77a3dd81,001,52,male,uk,high school,2024-02-26_18h16.46.223,CRL1e,2023.2.3,Win32,60.24096386,65dbad3905fde4fe1981dc61,65dcd56929fb92e03946a9fd,,,,,,,,,,,436.0609,1.1,437.1624,437.1624,437.6857,right,1,0.5222,,437.6858,438.6818,3,3,27,7,1,partial,1,images/Ex16.jpg,right,training,easy,6,,,,,
,,,,,639f294882a3797f77a3dd81,001,52,male,uk,high school,2024-02-26_18h16.46.223,CRL1e,2023.2.3,Win32,60.24096386,65dbad3905fde4fe1981dc61,65dcd56929fb92e03946a9fd,,,,,,,,,,,438.6822,1.1,439.784,439.784,440.4909,left,1,0.7059,,440.4909,441.487,3,4,28,0,1,partial,1,images/Ex13.jpg,left,training,easy,6,,,,,
,,,,,639f294882a3797f77a3dd81,001,52,male,uk,high school,2024-02-26_18h16.46.223,CRL1e,2023.2.3,Win32,60.24096386,65dbad3905fde4fe1981dc61,65dcd56929fb92e03946a9fd,,,,,,,,,,,441.4874,1.1,442.5889,442.589,443.1071,left,1,0.5161,,443.1072,444.1084,3,5,29,3,1,partial,1,images/Ex14.jpg,left,training,easy,6,,,,,
,,,,,639f294882a3797f77a3dd81,001,52,male,uk,high school,2024-02-26_18h16.46.223,CRL1e,2023.2.3,Win32,60.24096386,65dbad3905fde4fe1981dc61,65dcd56929fb92e03946a9fd,,,,,,,,,,,444.1088,1.4,445.4992,445.4992,446.1671,right,1,0.667,,446.1671,447.1693,3,6,30,4,1,partial,1,images/Ex15.jpg,right,training,easy,6,,,,,
,,,,,639f294882a3797f77a3dd81,001,52,male,uk,high school,2024-02-26_18h16.46.223,CRL1e,2023.2.3,Win32,60.24096386,65dbad3905fde4fe1981dc61,65dcd56929fb92e03946a9fd,,,,,,,,,,,447.1696,0.6,447.7653,447.7653,448.388,right,1,0.6219,,448.388,449.39,3,7,31,5,1,partial,1,images/Ex15.jpg,right,training,easy,6,,,,,
,,,,,639f294882a3797f77a3dd81,001,52,male,uk,high school,2024-02-26_18h16.46.223,CRL1e,2023.2.3,Win32,60.24096386,65dbad3905fde4fe1981dc61,65dcd56929fb92e03946a9fd,,,,,,,,,,,449.3905,0.7,450.0863,450.0863,450.6041,right,1,0.5083,,450.6042,451.6109,4,0,32,4,1,partial,1,images/Ex15.jpg,right,training,easy,6,,,,,
,,,,,639f294882a3797f77a3dd81,001,52,male,uk,high school,2024-02-26_18h16.46.223,CRL1e,2023.2.3,Win32,60.24096386,65dbad3905fde4fe1981dc61,65dcd56929fb92e03946a9fd,,,,,,,,,,,451.6113,0.7,452.307,452.3071,452.9248,left,1,0.6135,,452.9248,453.9266,4,1,33,1,1,partial,1,images/Ex13.jpg,left,training,easy,6,,,,,
,,,,,639f294882a3797f77a3dd81,001,52,male,uk,high school,2024-02-26_18h16.46.223,CRL1e,2023.2.3,Win32,60.24096386,65dbad3905fde4fe1981dc61,65dcd56929fb92e03946a9fd,,,,,,,,,,,453.9271,1.4,455.3294,455.3294,456.0978,left,1,0.7559,,456.0979,457.0993,4,2,34,2,1,partial,1,images/Ex14.jpg,left,training,easy,6,,,,,
,,,,,639f294882a3797f77a3dd81,001,52,male,uk,high school,2024-02-26_18h16.46.223,CRL1e,2023.2.3,Win32,60.24096386,65dbad3905fde4fe1981dc61,65dcd56929fb92e03946a9fd,,,,,,,,,,,457.0998,0.7,457.8035,457.8037,458.3184,left,1,0.5013,,458.3185,459.3067,4,3,35,0,1,partial,1,images/Ex13.jpg,left,training,easy,6,,,,,
,,,,,639f294882a3797f77a3dd81,001,52,male,uk,high school,2024-02-26_18h16.46.223,CRL1e,2023.2.3,Win32,60.24096386,65dbad3905fde4fe1981dc61,65dcd56929fb92e03946a9fd,,,,,,,,,,,459.3071,0.9,460.2051,460.2051,460.7449,right,1,0.5387,,460.7449,461.7412,4,4,36,5,1,partial,1,images/Ex15.jpg,right,training,easy,6,,,,,
,,,,,639f294882a3797f77a3dd81,001,52,male,uk,high school,2024-02-26_18h16.46.223,CRL1e,2023.2.3,Win32,60.24096386,65dbad3905fde4fe1981dc61,65dcd56929fb92e03946a9fd,,,,,,,,,,,461.7416,0.7,462.4454,462.4454,463.1439,right,1,0.6917,,463.144,464.1456,4,5,37,6,1,partial,1,images/Ex16.jpg,right,training,easy,6,,,,,
,,,,,639f294882a3797f77a3dd81,001,52,male,uk,high school,2024-02-26_18h16.46.223,CRL1e,2023.2.3,Win32,60.24096386,65dbad3905fde4fe1981dc61,65dcd56929fb92e03946a9fd,,,,,,,,,,,464.1461,0.6,464.7468,464.7469,465.3694,right,1,0.6217,,465.3694,466.3665,4,6,38,7,1,partial,1,images/Ex16.jpg,right,training,easy,6,,,,,
,,,,,639f294882a3797f77a3dd81,001,52,male,uk,high school,2024-02-26_18h16.46.223,CRL1e,2023.2.3,Win32,60.24096386,65dbad3905fde4fe1981dc61,65dcd56929fb92e03946a9fd,,,,,,,,,,,466.3668,0.7,467.0567,467.0567,467.819,left,1,0.752,,467.8191,468.809,4,7,39,3,1,partial,1,images/Ex14.jpg,left,training,easy,6,,,,,
,,,,,639f294882a3797f77a3dd81,001,52,male,uk,high school,2024-02-26_18h16.46.223,CRL1e,2023.2.3,Win32,60.24096386,65dbad3905fde4fe1981dc61,65dcd56929fb92e03946a9fd,,,,,,,,,,,468.8094,0.8,469.6104,469.6104,470.1234,left,1,0.5027,,470.1235,471.1128,5,0,40,0,1,partial,1,images/Ex13.jpg,left,training,easy,6,,,,,
,,,,,639f294882a3797f77a3dd81,001,52,male,uk,high school,2024-02-26_18h16.46.223,CRL1e,2023.2.3,Win32,60.24096386,65dbad3905fde4fe1981dc61,65dcd56929fb92e03946a9fd,,,,,,,,,,,471.113,1.4,472.5112,472.5112,473.1962,right,1,0.6749,,473.1963,474.1859,5,1,41,4,1,partial,1,images/Ex15.jpg,right,training,easy,6,,,,,
,,,,,639f294882a3797f77a3dd81,001,52,male,uk,high school,2024-02-26_18h16.46.223,CRL1e,2023.2.3,Win32,60.24096386,65dbad3905fde4fe1981dc61,65dcd56929fb92e03946a9fd,,,,,,,,,,,474.1862,0.7,474.882,474.882,475.5503,right,1,0.6633,,475.5503,476.557,5,2,42,5,1,partial,1,images/Ex15.jpg,right,training,easy,6,,,,,
,,,,,639f294882a3797f77a3dd81,001,52,male,uk,high school,2024-02-26_18h16.46.223,CRL1e,2023.2.3,Win32,60.24096386,65dbad3905fde4fe1981dc61,65dcd56929fb92e03946a9fd,,,,,,,,,,,476.5573,1.3,477.8544,477.8544,478.5393,left,1,0.6827,,478.5393,479.5462,5,3,43,1,1,partial,1,images/Ex13.jpg,left,training,easy,6,,,,,
,,,,,639f294882a3797f77a3dd81,001,52,male,uk,high school,2024-02-26_18h16.46.223,CRL1e,2023.2.3,Win32,60.24096386,65dbad3905fde4fe1981dc61,65dcd56929fb92e03946a9fd,,,,,,,,,,,479.5466,0.7,480.2419,480.242,480.7932,left,1,0.543,,480.7933,481.7951,5,4,44,2,1,partial,1,images/Ex14.jpg,left,training,easy,6,,,,,
,,,,,639f294882a3797f77a3dd81,001,52,male,uk,high school,2024-02-26_18h16.46.223,CRL1e,2023.2.3,Win32,60.24096386,65dbad3905fde4fe1981dc61,65dcd56929fb92e03946a9fd,,,,,,,,,,,481.7955,1.4,483.1856,483.1856,483.7156,left,1,0.5198,,483.7156,484.722,5,5,45,3,1,partial,1,images/Ex14.jpg,left,training,easy,6,,,,,
,,,,,639f294882a3797f77a3dd81,001,52,male,uk,high school,2024-02-26_18h16.46.223,CRL1e,2023.2.3,Win32,60.24096386,65dbad3905fde4fe1981dc61,65dcd56929fb92e03946a9fd,,,,,,,,,,,484.7224,1.5,486.2199,486.2199,486.7255,right,1,0.5045,,486.7256,487.7271,5,6,46,7,1,partial,1,images/Ex16.jpg,right,training,easy,6,,,,,
,,,,,639f294882a3797f77a3dd81,001,52,male,uk,high school,2024-02-26_18h16.46.223,CRL1e,2023.2.3,Win32,60.24096386,65dbad3905fde4fe1981dc61,65dcd56929fb92e03946a9fd,,,,,,,,,,,487.7276,1.1,488.8247,488.8247,489.4595,right,1,0.6325,,489.4595,490.461,5,7,47,6,1,partial,1,images/Ex16.jpg,right,training,easy,6,,,,,
,,,,,639f294882a3797f77a3dd81,001,52,male,uk,high school,2024-02-26_18h16.46.223,CRL1e,2023.2.3,Win32,60.24096386,65dbad3905fde4fe1981dc61,65dcd56929fb92e03946a9fd,,,,,,,,,,,490.4635,0.9,491.3665,491.3665,491.9972,left,0,0.6265,,491.9973,492.999,0,0,0,1,1,partial,2,images/Ex13.jpg,right,reversed,easy,6,,,,,
,,,,,639f294882a3797f77a3dd81,001,52,male,uk,high school,2024-02-26_18h16.46.223,CRL1e,2023.2.3,Win32,60.24096386,65dbad3905fde4fe1981dc61,65dcd56929fb92e03946a9fd,,,,,,,,,,,492.9994,0.7,493.7003,493.7003,494.435,right,0,0.7248,,494.4351,495.4369,0,1,1,5,1,partial,2,images/Ex15.jpg,left,reversed,easy,6,,,,,
,,,,,639f294882a3797f77a3dd81,001,52,male,uk,high school,2024-02-26_18h16.46.223,CRL1e,2023.2.3,Win32,60.24096386,65dbad3905fde4fe1981dc61,65dcd56929fb92e03946a9fd,,,,,,,,,,,495.4373,1.1,496.5252,496.5252,497.5245,right,1,0.9875,,497.5246,498.5309,0,2,2,0,1,partial,2,images/Ex13.jpg,right,reversed,easy,6,,,,,
,,,,,639f294882a3797f77a3dd81,001,52,male,uk,high school,2024-02-26_18h16.46.223,CRL1e,2023.2.3,Win32,60.24096386,65dbad3905fde4fe1981dc61,65dcd56929fb92e03946a9fd,,,,,,,,,,,498.5313,1,499.5275,499.5276,500.5353,right,0,1.007,,500.5354,501.5344,0,3,3,2,1,partial,2,images/Ex14.jpg,left,nonreversed,easy,6,,,,,
,,,,,639f294882a3797f77a3dd81,001,52,male,uk,high school,2024-02-26_18h16.46.223,CRL1e,2023.2.3,Win32,60.24096386,65dbad3905fde4fe1981dc61,65dcd56929fb92e03946a9fd,,,,,,,,,,,501.5348,1.2,502.7338,502.7338,503.4565,right,1,0.7218,,503.4565,504.4536,0,4,4,6,1,partial,2,images/Ex16.jpg,right,nonreversed,easy,6,,,,,
,,,,,639f294882a3797f77a3dd81,001,52,male,uk,high school,2024-02-26_18h16.46.223,CRL1e,2023.2.3,Win32,60.24096386,65dbad3905fde4fe1981dc61,65dcd56929fb92e03946a9fd,,,,,,,,,,,504.454,0.8,505.2551,505.2551,506.3074,right,0,1.05,,506.3074,507.3121,0,5,5,3,1,partial,2,images/Ex14.jpg,left,nonreversed,easy,6,,,,,
,,,,,639f294882a3797f77a3dd81,001,52,male,uk,high school,2024-02-26_18h16.46.223,CRL1e,2023.2.3,Win32,60.24096386,65dbad3905fde4fe1981dc61,65dcd56929fb92e03946a9fd,,,,,,,,,,,507.3124,1.2,508.5161,508.5161,509.1794,right,1,0.653,,509.1794,510.1809,0,6,6,7,1,partial,2,images/Ex16.jpg,right,nonreversed,easy,6,,,,,
,,,,,639f294882a3797f77a3dd81,001,52,male,uk,high school,2024-02-26_18h16.46.223,CRL1e,2023.2.3,Win32,60.24096386,65dbad3905fde4fe1981dc61,65dcd56929fb92e03946a9fd,,,,,,,,,,,510.1813,1.4,511.5833,511.5834,512.352,right,0,0.7547,,512.3521,513.3533,0,7,7,4,1,partial,2,images/Ex15.jpg,left,reversed,easy,6,,,,,
,,,,,639f294882a3797f77a3dd81,001,52,male,uk,high school,2024-02-26_18h16.46.223,CRL1e,2023.2.3,Win32,60.24096386,65dbad3905fde4fe1981dc61,65dcd56929fb92e03946a9fd,,,,,,,,,,,513.3536,0.7,514.0577,514.0577,515.4911,right,0,1.4235,,515.4912,516.4924,1,0,8,5,1,partial,2,images/Ex15.jpg,left,reversed,easy,6,,,,,
,,,,,639f294882a3797f77a3dd81,001,52,male,uk,high school,2024-02-26_18h16.46.223,CRL1e,2023.2.3,Win32,60.24096386,65dbad3905fde4fe1981dc61,65dcd56929fb92e03946a9fd,,,,,,,,,,,516.4927,0.6,517.0936,517.0936,517.8115,right,1,0.7155,,517.8116,518.8134,1,1,9,6,1,partial,2,images/Ex16.jpg,right,nonreversed,easy,6,,,,,
,,,,,639f294882a3797f77a3dd81,001,52,male,uk,high school,2024-02-26_18h16.46.223,CRL1e,2023.2.3,Win32,60.24096386,65dbad3905fde4fe1981dc61,65dcd56929fb92e03946a9fd,,,,,,,,,,,518.8138,0.6,519.4146,519.4147,520.8342,right,1,1.4056,,520.8343,521.8358,1,2,10,0,1,partial,2,images/Ex13.jpg,right,reversed,easy,6,,,,,
,,,,,639f294882a3797f77a3dd81,001,52,male,uk,high school,2024-02-26_18h16.46.223,CRL1e,2023.2.3,Win32,60.24096386,65dbad3905fde4fe1981dc61,65dcd56929fb92e03946a9fd,,,,,,,,,,,521.8363,0.7,522.542,522.5421,524.1238,left,1,1.5789,,524.1238,525.1306,1,3,11,2,1,partial,2,images/Ex14.jpg,left,nonreversed,easy,6,,,,,
,,,,,639f294882a3797f77a3dd81,001,52,male,uk,high school,2024-02-26_18h16.46.223,CRL1e,2023.2.3,Win32,60.24096386,65dbad3905fde4fe1981dc61,65dcd56929fb92e03946a9fd,,,,,,,,,,,525.1308,0.7,525.8264,525.8264,526.9175,right,1,1.09,,526.9175,527.9182,1,4,12,1,1,partial,2,images/Ex13.jpg,right,reversed,easy,6,,,,,
,,,,,639f294882a3797f77a3dd81,001,52,male,uk,high school,2024-02-26_18h16.46.223,CRL1e,2023.2.3,Win32,60.24096386,65dbad3905fde4fe1981dc61,65dcd56929fb92e03946a9fd,,,,,,,,,,,527.9186,1.5,529.4163,529.4164,530.2725,right,0,0.855,,530.2725,531.2695,1,5,13,4,1,partial,2,images/Ex15.jpg,left,reversed,easy,6,,,,,
,,,,,639f294882a3797f77a3dd81,001,52,male,uk,high school,2024-02-26_18h16.46.223,CRL1e,2023.2.3,Win32,60.24096386,65dbad3905fde4fe1981dc61,65dcd56929fb92e03946a9fd,,,,,,,,,,,531.2699,0.8,532.0711,532.0712,533.5912,right,0,1.5067,,533.5913,534.5926,1,6,14,3,1,partial,2,images/Ex14.jpg,left,nonreversed,easy,6,,,,,
,,,,,639f294882a3797f77a3dd81,001,52,male,uk,high school,2024-02-26_18h16.46.223,CRL1e,2023.2.3,Win32,60.24096386,65dbad3905fde4fe1981dc61,65dcd56929fb92e03946a9fd,,,,,,,,,,,534.593,1.4,535.9836,535.9836,536.6469,right,1,0.6575,,536.6469,537.6482,1,7,15,7,1,partial,2,images/Ex16.jpg,right,nonreversed,easy,6,,,,,
,,,,,639f294882a3797f77a3dd81,001,52,male,uk,high school,2024-02-26_18h16.46.223,CRL1e,2023.2.3,Win32,60.24096386,65dbad3905fde4fe1981dc61,65dcd56929fb92e03946a9fd,,,,,,,,,,,537.6487,1.4,539.051,539.051,539.8906,right,1,0.8386,,539.8906,540.8926,2,0,16,1,1,partial,2,images/Ex13.jpg,right,reversed,easy,6,,,,,
,,,,,639f294882a3797f77a3dd81,001,52,male,uk,high school,2024-02-26_18h16.46.223,CRL1e,2023.2.3,Win32,60.24096386,65dbad3905fde4fe1981dc61,65dcd56929fb92e03946a9fd,,,,,,,,,,,540.8929,1.3,542.1901,542.1901,542.7966,right,1,0.6058,,542.7966,543.7928,2,1,17,0,1,partial,2,images/Ex13.jpg,right,reversed,easy,6,,,,,
,,,,,639f294882a3797f77a3dd81,001,52,male,uk,high school,2024-02-26_18h16.46.223,CRL1e,2023.2.3,Win32,60.24096386,65dbad3905fde4fe1981dc61,65dcd56929fb92e03946a9fd,,,,,,,,,,,543.7931,0.7,544.4943,544.4944,545.5326,left,1,1.0373,,545.5327,546.5314,2,2,18,2,1,partial,2,images/Ex14.jpg,left,nonreversed,easy,6,,,,,
,,,,,639f294882a3797f77a3dd81,001,52,male,uk,high school,2024-02-26_18h16.46.223,CRL1e,2023.2.3,Win32,60.24096386,65dbad3905fde4fe1981dc61,65dcd56929fb92e03946a9fd,,,,,,,,,,,546.5317,1.1,547.6335,547.6335,548.7243,left,1,1.0898,,548.7244,549.7206,2,3,19,4,1,partial,2,images/Ex15.jpg,left,reversed,easy,6,,,,,
,,,,,639f294882a3797f77a3dd81,001,52,male,uk,high school,2024-02-26_18h16.46.223,CRL1e,2023.2.3,Win32,60.24096386,65dbad3905fde4fe1981dc61,65dcd56929fb92e03946a9fd,,,,,,,,,,,549.721,1.2,550.9228,550.9229,551.5243,right,1,0.5901,,551.5243,552.5305,2,4,20,7,1,partial,2,images/Ex16.jpg,right,nonreversed,easy,6,,,,,
,,,,,639f294882a3797f77a3dd81,001,52,male,uk,high school,2024-02-26_18h16.46.223,CRL1e,2023.2.3,Win32,60.24096386,65dbad3905fde4fe1981dc61,65dcd56929fb92e03946a9fd,,,,,,,,,,,552.5309,0.7,553.2272,553.2272,553.8785,right,1,0.6383,,553.8786,554.8802,2,5,21,6,1,partial,2,images/Ex16.jpg,right,nonreversed,easy,6,,,,,
,,,,,639f294882a3797f77a3dd81,001,52,male,uk,high school,2024-02-26_18h16.46.223,CRL1e,2023.2.3,Win32,60.24096386,65dbad3905fde4fe1981dc61,65dcd56929fb92e03946a9fd,,,,,,,,,,,554.8805,1.5,556.3885,556.3885,557.2067,right,0,0.8173,,557.2067,558.203,2,6,22,3,1,partial,2,images/Ex14.jpg,left,nonreversed,easy,6,,,,,
,,,,,639f294882a3797f77a3dd81,001,52,male,uk,high school,2024-02-26_18h16.46.223,CRL1e,2023.2.3,Win32,60.24096386,65dbad3905fde4fe1981dc61,65dcd56929fb92e03946a9fd,,,,,,,,,,,558.2034,1.3,559.5052,559.5052,560.5907,left,1,1.0721,,560.5908,561.5927,2,7,23,5,1,partial,2,images/Ex15.jpg,left,reversed,easy,6,,,,,
,,,,,639f294882a3797f77a3dd81,001,52,male,uk,high school,2024-02-26_18h16.46.223,CRL1e,2023.2.3,Win32,60.24096386,65dbad3905fde4fe1981dc61,65dcd56929fb92e03946a9fd,,,,,,,,,,,561.593,0.8,562.3993,562.3993,563.73,right,1,1.3215,,563.73,564.719,3,0,24,1,1,partial,2,images/Ex13.jpg,right,reversed,easy,6,,,,,
,,,,,639f294882a3797f77a3dd81,001,52,male,uk,high school,2024-02-26_18h16.46.223,CRL1e,2023.2.3,Win32,60.24096386,65dbad3905fde4fe1981dc61,65dcd56929fb92e03946a9fd,,,,,,,,,,,564.7192,1.1,565.8222,565.8222,566.8077,left,1,0.9848,,566.8077,567.804,3,1,25,5,1,partial,2,images/Ex15.jpg,left,reversed,easy,6,,,,,
,,,,,639f294882a3797f77a3dd81,001,52,male,uk,high school,2024-02-26_18h16.46.223,CRL1e,2023.2.3,Win32,60.24096386,65dbad3905fde4fe1981dc61,65dcd56929fb92e03946a9fd,,,,,,,,,,,567.8043,1.1,568.8927,568.8928,569.8967,right,1,1.0031,,569.8968,570.8931,3,2,26,0,1,partial,2,images/Ex13.jpg,right,reversed,easy,6,,,,,
,,,,,639f294882a3797f77a3dd81,001,52,male,uk,high school,2024-02-26_18h16.46.223,CRL1e,2023.2.3,Win32,60.24096386,65dbad3905fde4fe1981dc61,65dcd56929fb92e03946a9fd,,,,,,,,,,,570.8935,1.3,572.1956,572.1956,573.4369,right,0,1.2403,,573.437,574.4329,3,3,27,2,1,partial,2,images/Ex14.jpg,left,nonreversed,easy,6,,,,,
,,,,,639f294882a3797f77a3dd81,001,52,male,uk,high school,2024-02-26_18h16.46.223,CRL1e,2023.2.3,Win32,60.24096386,65dbad3905fde4fe1981dc61,65dcd56929fb92e03946a9fd,,,,,,,,,,,574.4332,0.6,575.0342,575.0342,575.7523,right,1,0.7048,,575.7524,576.7425,3,4,28,6,1,partial,2,images/Ex16.jpg,right,nonreversed,easy,6,,,,,
,,,,,639f294882a3797f77a3dd81,001,52,male,uk,high school,2024-02-26_18h16.46.223,CRL1e,2023.2.3,Win32,60.24096386,65dbad3905fde4fe1981dc61,65dcd56929fb92e03946a9fd,,,,,,,,,,,576.7428,0.8,577.5434,577.5435,578.1901,right,1,0.6419,,578.1902,579.1919,3,5,29,7,1,partial,2,images/Ex16.jpg,right,nonreversed,easy,6,,,,,
,,,,,639f294882a3797f77a3dd81,001,52,male,uk,high school,2024-02-26_18h16.46.223,CRL1e,2023.2.3,Win32,60.24096386,65dbad3905fde4fe1981dc61,65dcd56929fb92e03946a9fd,,,,,,,,,,,579.1922,0.9,580.0936,580.0936,581.1288,left,1,1.0269,,581.1289,582.1306,3,6,30,3,1,partial,2,images/Ex14.jpg,left,nonreversed,easy,6,,,,,
,,,,,639f294882a3797f77a3dd81,001,52,male,uk,high school,2024-02-26_18h16.46.223,CRL1e,2023.2.3,Win32,60.24096386,65dbad3905fde4fe1981dc61,65dcd56929fb92e03946a9fd,,,,,,,,,,,582.1309,0.7,582.8317,582.8317,584.0345,right,0,1.1888,,584.0345,585.0359,3,7,31,4,1,partial,2,images/Ex15.jpg,left,reversed,easy,6,,,,,
,,,,,639f294882a3797f77a3dd81,001,52,male,uk,high school,2024-02-26_18h16.46.223,CRL1e,2023.2.3,Win32,60.24096386,65dbad3905fde4fe1981dc61,65dcd56929fb92e03946a9fd,,,,,,,,,,,585.0364,1.5,586.5275,586.5276,587.4577,right,1,0.9215,,587.4577,588.4588,4,0,32,1,1,partial,2,images/Ex13.jpg,right,reversed,easy,6,,,,,
,,,,,639f294882a3797f77a3dd81,001,52,male,uk,high school,2024-02-26_18h16.46.223,CRL1e,2023.2.3,Win32,60.24096386,65dbad3905fde4fe1981dc61,65dcd56929fb92e03946a9fd,,,,,,,,,,,588.4593,0.8,589.2605,589.2605,590.1123,left,1,0.8381,,590.1124,591.1138,4,1,33,5,1,partial,2,images/Ex15.jpg,left,reversed,easy,6,,,,,
,,,,,639f294882a3797f77a3dd81,001,52,male,uk,high school,2024-02-26_18h16.46.223,CRL1e,2023.2.3,Win32,60.24096386,65dbad3905fde4fe1981dc61,65dcd56929fb92e03946a9fd,,,,,,,,,,,591.1142,0.6,591.715,591.715,593.0344,right,0,1.3096,,593.0346,594.0414,4,2,34,3,1,partial,2,images/Ex14.jpg,left,nonreversed,easy,6,,,,,
,,,,,639f294882a3797f77a3dd81,001,52,male,uk,high school,2024-02-26_18h16.46.223,CRL1e,2023.2.3,Win32,60.24096386,65dbad3905fde4fe1981dc61,65dcd56929fb92e03946a9fd,,,,,,,,,,,594.0417,0.7,594.7373,594.7373,595.9231,right,1,1.1756,,595.9232,596.9246,4,3,35,0,1,partial,2,images/Ex13.jpg,right,reversed,easy,6,,,,,
,,,,,639f294882a3797f77a3dd81,001,52,male,uk,high school,2024-02-26_18h16.46.223,CRL1e,2023.2.3,Win32,60.24096386,65dbad3905fde4fe1981dc61,65dcd56929fb92e03946a9fd,,,,,,,,,,,596.925,1.1,598.0268,598.0268,598.6783,right,1,0.6461,,598.6783,599.6675,4,4,36,6,1,partial,2,images/Ex16.jpg,right,nonreversed,easy,6,,,,,
,,,,,639f294882a3797f77a3dd81,001,52,male,uk,high school,2024-02-26_18h16.46.223,CRL1e,2023.2.3,Win32,60.24096386,65dbad3905fde4fe1981dc61,65dcd56929fb92e03946a9fd,,,,,,,,,,,599.6678,0.8,600.4683,600.4683,601.3885,left,1,0.9192,,601.3885,602.39,4,5,37,4,1,partial,2,images/Ex15.jpg,left,reversed,easy,6,,,,,
,,,,,639f294882a3797f77a3dd81,001,52,male,uk,high school,2024-02-26_18h16.46.223,CRL1e,2023.2.3,Win32,60.24096386,65dbad3905fde4fe1981dc61,65dcd56929fb92e03946a9fd,,,,,,,,,,,602.3903,1.1,603.4867,603.4867,604.6447,left,1,1.1571,,604.6447,605.6408,4,6,38,2,1,partial,2,images/Ex14.jpg,left,nonreversed,easy,6,,,,,
,,,,,639f294882a3797f77a3dd81,001,52,male,uk,high school,2024-02-26_18h16.46.223,CRL1e,2023.2.3,Win32,60.24096386,65dbad3905fde4fe1981dc61,65dcd56929fb92e03946a9fd,,,,,,,,,,,605.6411,1.1,606.7428,606.7429,607.4111,right,1,0.6585,,607.4112,608.4007,4,7,39,7,1,partial,2,images/Ex16.jpg,right,nonreversed,easy,6,,,,,
,,,,,639f294882a3797f77a3dd81,001,52,male,uk,high school,2024-02-26_18h16.46.223,CRL1e,2023.2.3,Win32,60.24096386,65dbad3905fde4fe1981dc61,65dcd56929fb92e03946a9fd,,,,,,,,,,,608.4011,0.7,609.0971,609.0971,609.6484,left,1,0.5437,,609.6485,610.65,5,0,40,3,1,partial,2,images/Ex14.jpg,left,nonreversed,easy,6,,,,,
,,,,,639f294882a3797f77a3dd81,001,52,male,uk,high school,2024-02-26_18h16.46.223,CRL1e,2023.2.3,Win32,60.24096386,65dbad3905fde4fe1981dc61,65dcd56929fb92e03946a9fd,,,,,,,,,,,610.6504,1.2,611.8572,611.8572,612.7706,left,1,0.9119,,612.7706,613.7761,5,1,41,4,1,partial,2,images/Ex15.jpg,left,reversed,easy,6,,,,,
,,,,,639f294882a3797f77a3dd81,001,52,male,uk,high school,2024-02-26_18h16.46.223,CRL1e,2023.2.3,Win32,60.24096386,65dbad3905fde4fe1981dc61,65dcd56929fb92e03946a9fd,,,,,,,,,,,613.7764,0.6,614.3736,614.3736,615.6288,left,0,1.2541,,615.6288,616.6277,5,2,42,0,1,partial,2,images/Ex13.jpg,right,reversed,easy,6,,,,,
,,,,,639f294882a3797f77a3dd81,001,52,male,uk,high school,2024-02-26_18h16.46.223,CRL1e,2023.2.3,Win32,60.24096386,65dbad3905fde4fe1981dc61,65dcd56929fb92e03946a9fd,,,,,,,,,,,616.6281,0.7,617.3165,617.3165,617.947,right,1,0.6286,,617.947,618.9487,5,3,43,6,1,partial,2,images/Ex16.jpg,right,nonreversed,easy,6,,,,,
,,,,,639f294882a3797f77a3dd81,001,52,male,uk,high school,2024-02-26_18h16.46.223,CRL1e,2023.2.3,Win32,60.24096386,65dbad3905fde4fe1981dc61,65dcd56929fb92e03946a9fd,,,,,,,,,,,618.9491,0.8,619.7502,619.7502,621.1866,left,1,1.4266,,621.1867,622.1881,5,4,44,5,1,partial,2,images/Ex15.jpg,left,reversed,easy,6,,,,,
,,,,,639f294882a3797f77a3dd81,001,52,male,uk,high school,2024-02-26_18h16.46.223,CRL1e,2023.2.3,Win32,60.24096386,65dbad3905fde4fe1981dc61,65dcd56929fb92e03946a9fd,,,,,,,,,,,622.1885,1.2,623.3903,623.3903,624.4927,left,1,1.0988,,624.4928,625.4822,5,5,45,2,1,partial,2,images/Ex14.jpg,left,nonreversed,easy,6,,,,,
,,,,,639f294882a3797f77a3dd81,001,52,male,uk,high school,2024-02-26_18h16.46.223,CRL1e,2023.2.3,Win32,60.24096386,65dbad3905fde4fe1981dc61,65dcd56929fb92e03946a9fd,,,,,,,,,,,625.4826,0.6,626.0839,626.084,626.8803,right,1,0.7829,,626.8803,627.8819,5,6,46,7,1,partial,2,images/Ex16.jpg,right,nonreversed,easy,6,,,,,
,,,,,639f294882a3797f77a3dd81,001,52,male,uk,high school,2024-02-26_18h16.46.223,CRL1e,2023.2.3,Win32,60.24096386,65dbad3905fde4fe1981dc61,65dcd56929fb92e03946a9fd,,,,,,,,,,,627.8823,1.1,628.9839,628.9839,629.8911,left,0,0.906,,629.8911,630.8873,5,7,47,1,1,partial,2,images/Ex13.jpg,right,reversed,easy,6,,,,,
,,,,,639f294882a3797f77a3dd81,001,52,male,uk,high school,2024-02-26_18h16.46.223,CRL1e,2023.2.3,Win32,60.24096386,65dbad3905fde4fe1981dc61,65dcd56929fb92e03946a9fd,,,,,,,,,,,,,,,,,,,,,,,,,,,,,,,,,,630.8877,672.7321,space,41.806,