infCons.started,infCons.stopped,resp_consent.keys,resp_consent.rt,resp_consent.duration,participant,session,Age?,Gender?,Nationality?,Highest Educational Degree?,date,expName,psychopyVersion,OS,frameRate,STUDY_ID,SESSION_ID,instructions.started,instructions.stopped,resp_instructions.keys,resp_instructions.rt,resp_instructions.duration,nextTask.started,nextTask.stopped,ready_task.keys,ready_task.rt,ready_task.duration,fixation.started,ITI,fixation.stopped,stim.started,stim.stopped,response.keys,response.corr,response.rt,response.duration,feedback.started,feedback.stopped,trials.thisRepN,trials.thisTrialN,trials.thisN,trials.thisIndex,trials.ran,task,phase,Exemplars,r_correct,condition,difficulty,set,end.started,end.stopped,resp_end.keys,resp_end.rt,resp_end.duration
0.0003,19.7125,space,19.6824,,63ea8ec521931832f4b6b7cb,001,24,female,british,bachelors,2024-02-25_21h16.10.429,CRL1e,2023.2.3,MacIntel,60.24096386,65dbad3905fde4fe1981dc61,65dbadeeedc3d103f0e373fe,,,,,,,,,,,,,,,,,,,,,,,,,,,,,,,,,,,,,,
,,,,,63ea8ec521931832f4b6b7cb,001,24,female,british,bachelors,2024-02-25_21h16.10.429,CRL1e,2023.2.3,MacIntel,60.24096386,65dbad3905fde4fe1981dc61,65dbadeeedc3d103f0e373fe,19.7132,36.9141,space,17.1823,,,,,,,,,,,,,,,,,,,,,,,,,,,,,,,,,,
,,,,,63ea8ec521931832f4b6b7cb,001,24,female,british,bachelors,2024-02-25_21h16.10.429,CRL1e,2023.2.3,MacIntel,60.24096386,65dbad3905fde4fe1981dc61,65dbadeeedc3d103f0e373fe,,,,,,36.9187,38.396,space,1.4655,,38.4008,0.9,39.2972,39.2977,41.4471,right,1,2.1364,,41.4475,42.4475,0,0,0,4,1,partial,1,images/Ex7.jpg,right,training,easy,1,,,,,
,,,,,63ea8ec521931832f4b6b7cb,001,24,female,british,bachelors,2024-02-25_21h16.10.429,CRL1e,2023.2.3,MacIntel,60.24096386,65dbad3905fde4fe1981dc61,65dbadeeedc3d103f0e373fe,,,,,,,,,,,42.4481,0.9,43.3467,43.3467,44.348,left,1,0.9948,,44.348,45.3493,0,1,1,2,1,partial,1,images/Ex6.jpg,left,training,easy,1,,,,,
,,,,,63ea8ec521931832f4b6b7cb,001,24,female,british,bachelors,2024-02-25_21h16.10.429,CRL1e,2023.2.3,MacIntel,60.24096386,65dbad3905fde4fe1981dc61,65dbadeeedc3d103f0e373fe,,,,,,,,,,,45.3498,0.8,46.1473,46.1473,47.048,right,1,0.8919,,47.048,48.0472,0,2,2,5,1,partial,1,images/Ex7.jpg,right,training,easy,1,,,,,
,,,,,63ea8ec521931832f4b6b7cb,001,24,female,british,bachelors,2024-02-25_21h16.10.429,CRL1e,2023.2.3,MacIntel,60.24096386,65dbad3905fde4fe1981dc61,65dbadeeedc3d103f0e373fe,,,,,,,,,,,48.0485,1.3,49.3469,49.3469,50.1181,left,0,0.7653,,50.1181,51.114,0,3,3,6,1,partial,1,images/Ex8.jpg,right,training,easy,1,,,,,
,,,,,63ea8ec521931832f4b6b7cb,001,24,female,british,bachelors,2024-02-25_21h16.10.429,CRL1e,2023.2.3,MacIntel,60.24096386,65dbad3905fde4fe1981dc61,65dbadeeedc3d103f0e373fe,,,,,,,,,,,51.1153,1,52.1141,52.1143,53.0987,right,1,0.9781,,53.0987,54.0975,0,4,4,7,1,partial,1,images/Ex8.jpg,right,training,easy,1,,,,,
,,,,,63ea8ec521931832f4b6b7cb,001,24,female,british,bachelors,2024-02-25_21h16.10.429,CRL1e,2023.2.3,MacIntel,60.24096386,65dbad3905fde4fe1981dc61,65dbadeeedc3d103f0e373fe,,,,,,,,,,,54.0988,0.7,54.7992,54.7992,56.1979,left,1,1.3926,,56.1979,57.1977,0,5,5,3,1,partial,1,images/Ex6.jpg,left,training,easy,1,,,,,
,,,,,63ea8ec521931832f4b6b7cb,001,24,female,british,bachelors,2024-02-25_21h16.10.429,CRL1e,2023.2.3,MacIntel,60.24096386,65dbad3905fde4fe1981dc61,65dbadeeedc3d103f0e373fe,,,,,,,,,,,57.199,0.7,57.8994,57.8995,59.0324,left,1,1.1256,,59.0324,60.0315,0,6,6,1,1,partial,1,images/Ex5.jpg,left,training,easy,1,,,,,
,,,,,63ea8ec521931832f4b6b7cb,001,24,female,british,bachelors,2024-02-25_21h16.10.429,CRL1e,2023.2.3,MacIntel,60.24096386,65dbad3905fde4fe1981dc61,65dbadeeedc3d103f0e373fe,,,,,,,,,,,60.0331,0.7,60.7315,60.7315,61.6327,left,1,0.8919,,61.6328,62.6314,0,7,7,0,1,partial,1,images/Ex5.jpg,left,training,easy,1,,,,,
,,,,,63ea8ec521931832f4b6b7cb,001,24,female,british,bachelors,2024-02-25_21h16.10.429,CRL1e,2023.2.3,MacIntel,60.24096386,65dbad3905fde4fe1981dc61,65dbadeeedc3d103f0e373fe,,,,,,,,,,,62.6329,1.2,63.8313,63.8315,64.6317,left,1,0.7935,,64.6317,65.6316,1,0,8,0,1,partial,1,images/Ex5.jpg,left,training,easy,1,,,,,
,,,,,63ea8ec521931832f4b6b7cb,001,24,female,british,bachelors,2024-02-25_21h16.10.429,CRL1e,2023.2.3,MacIntel,60.24096386,65dbad3905fde4fe1981dc61,65dbadeeedc3d103f0e373fe,,,,,,,,,,,65.6329,0.6,66.2318,66.2319,67.232,right,1,0.9884,,67.2321,68.2317,1,1,9,5,1,partial,1,images/Ex7.jpg,right,training,easy,1,,,,,
,,,,,63ea8ec521931832f4b6b7cb,001,24,female,british,bachelors,2024-02-25_21h16.10.429,CRL1e,2023.2.3,MacIntel,60.24096386,65dbad3905fde4fe1981dc61,65dbadeeedc3d103f0e373fe,,,,,,,,,,,68.2327,0.9,69.1318,69.1318,70.3728,left,1,1.2384,,70.3728,71.3668,1,2,10,3,1,partial,1,images/Ex6.jpg,left,training,easy,1,,,,,
,,,,,63ea8ec521931832f4b6b7cb,001,24,female,british,bachelors,2024-02-25_21h16.10.429,CRL1e,2023.2.3,MacIntel,60.24096386,65dbad3905fde4fe1981dc61,65dbadeeedc3d103f0e373fe,,,,,,,,,,,71.367,0.6,71.9654,71.9655,72.7006,right,1,0.7221,,72.7006,73.699,1,3,11,4,1,partial,1,images/Ex7.jpg,right,training,easy,1,,,,,
,,,,,63ea8ec521931832f4b6b7cb,001,24,female,british,bachelors,2024-02-25_21h16.10.429,CRL1e,2023.2.3,MacIntel,60.24096386,65dbad3905fde4fe1981dc61,65dbadeeedc3d103f0e373fe,,,,,,,,,,,73.6999,1.1,74.7989,74.799,75.617,left,1,0.8078,,75.6171,76.6157,1,4,12,2,1,partial,1,images/Ex6.jpg,left,training,easy,1,,,,,
,,,,,63ea8ec521931832f4b6b7cb,001,24,female,british,bachelors,2024-02-25_21h16.10.429,CRL1e,2023.2.3,MacIntel,60.24096386,65dbad3905fde4fe1981dc61,65dbadeeedc3d103f0e373fe,,,,,,,,,,,76.6165,1,77.617,77.6173,78.5841,right,0,0.9621,,78.5841,79.5826,1,5,13,1,1,partial,1,images/Ex5.jpg,left,training,easy,1,,,,,
,,,,,63ea8ec521931832f4b6b7cb,001,24,female,british,bachelors,2024-02-25_21h16.10.429,CRL1e,2023.2.3,MacIntel,60.24096386,65dbad3905fde4fe1981dc61,65dbadeeedc3d103f0e373fe,,,,,,,,,,,79.5843,1.4,80.9835,80.9836,81.6339,left,0,0.6421,,81.634,82.6329,1,6,14,7,1,partial,1,images/Ex8.jpg,right,training,easy,1,,,,,
,,,,,63ea8ec521931832f4b6b7cb,001,24,female,british,bachelors,2024-02-25_21h16.10.429,CRL1e,2023.2.3,MacIntel,60.24096386,65dbad3905fde4fe1981dc61,65dbadeeedc3d103f0e373fe,,,,,,,,,,,82.6342,0.8,83.4333,83.4334,84.618,left,0,1.1767,,84.6181,85.6164,1,7,15,6,1,partial,1,images/Ex8.jpg,right,training,easy,1,,,,,
,,,,,63ea8ec521931832f4b6b7cb,001,24,female,british,bachelors,2024-02-25_21h16.10.429,CRL1e,2023.2.3,MacIntel,60.24096386,65dbad3905fde4fe1981dc61,65dbadeeedc3d103f0e373fe,,,,,,,,,,,85.6177,0.5,86.1168,86.1172,86.8505,right,1,0.7276,,86.8505,87.8503,2,0,16,6,1,partial,1,images/Ex8.jpg,right,training,easy,1,,,,,
,,,,,63ea8ec521931832f4b6b7cb,001,24,female,british,bachelors,2024-02-25_21h16.10.429,CRL1e,2023.2.3,MacIntel,60.24096386,65dbad3905fde4fe1981dc61,65dbadeeedc3d103f0e373fe,,,,,,,,,,,87.8513,0.7,88.55,88.55,89.1511,right,1,0.5927,,89.1511,90.1507,2,1,17,7,1,partial,1,images/Ex8.jpg,right,training,easy,1,,,,,
,,,,,63ea8ec521931832f4b6b7cb,001,24,female,british,bachelors,2024-02-25_21h16.10.429,CRL1e,2023.2.3,MacIntel,60.24096386,65dbad3905fde4fe1981dc61,65dbadeeedc3d103f0e373fe,,,,,,,,,,,90.1515,1,91.1514,91.1514,91.985,left,1,0.8314,,91.985,92.9835,2,2,18,1,1,partial,1,images/Ex5.jpg,left,training,easy,1,,,,,
,,,,,63ea8ec521931832f4b6b7cb,001,24,female,british,bachelors,2024-02-25_21h16.10.429,CRL1e,2023.2.3,MacIntel,60.24096386,65dbad3905fde4fe1981dc61,65dbadeeedc3d103f0e373fe,,,,,,,,,,,92.9847,0.6,93.5838,93.5838,94.8675,left,0,1.2738,,94.8675,95.8677,2,3,19,4,1,partial,1,images/Ex7.jpg,right,training,easy,1,,,,,
,,,,,63ea8ec521931832f4b6b7cb,001,24,female,british,bachelors,2024-02-25_21h16.10.429,CRL1e,2023.2.3,MacIntel,60.24096386,65dbad3905fde4fe1981dc61,65dbadeeedc3d103f0e373fe,,,,,,,,,,,95.8687,0.8,96.6672,96.6672,97.4679,left,1,0.7885,,97.468,98.4682,2,4,20,2,1,partial,1,images/Ex6.jpg,left,training,easy,1,,,,,
,,,,,63ea8ec521931832f4b6b7cb,001,24,female,british,bachelors,2024-02-25_21h16.10.429,CRL1e,2023.2.3,MacIntel,60.24096386,65dbad3905fde4fe1981dc61,65dbadeeedc3d103f0e373fe,,,,,,,,,,,98.4693,1.5,99.9675,99.9676,100.888,left,1,0.9146,,100.8881,101.8841,2,5,21,0,1,partial,1,images/Ex5.jpg,left,training,easy,1,,,,,
,,,,,63ea8ec521931832f4b6b7cb,001,24,female,british,bachelors,2024-02-25_21h16.10.429,CRL1e,2023.2.3,MacIntel,60.24096386,65dbad3905fde4fe1981dc61,65dbadeeedc3d103f0e373fe,,,,,,,,,,,101.8853,1.4,103.2842,103.2843,104.334,right,1,1.047,,104.334,105.3342,2,6,22,5,1,partial,1,images/Ex7.jpg,right,training,easy,1,,,,,
,,,,,63ea8ec521931832f4b6b7cb,001,24,female,british,bachelors,2024-02-25_21h16.10.429,CRL1e,2023.2.3,MacIntel,60.24096386,65dbad3905fde4fe1981dc61,65dbadeeedc3d103f0e373fe,,,,,,,,,,,105.335,1.3,106.635,106.635,107.384,left,1,0.7448,,107.384,108.3844,2,7,23,3,1,partial,1,images/Ex6.jpg,left,training,easy,1,,,,,
,,,,,63ea8ec521931832f4b6b7cb,001,24,female,british,bachelors,2024-02-25_21h16.10.429,CRL1e,2023.2.3,MacIntel,60.24096386,65dbad3905fde4fe1981dc61,65dbadeeedc3d103f0e373fe,,,,,,,,,,,108.3851,1.2,109.5848,109.5848,110.4011,left,1,0.808,,110.4011,111.4015,3,0,24,1,1,partial,1,images/Ex5.jpg,left,training,easy,1,,,,,
,,,,,63ea8ec521931832f4b6b7cb,001,24,female,british,bachelors,2024-02-25_21h16.10.429,CRL1e,2023.2.3,MacIntel,60.24096386,65dbad3905fde4fe1981dc61,65dbadeeedc3d103f0e373fe,,,,,,,,,,,111.4023,1,112.4013,112.4013,112.951,right,1,0.5442,,112.951,113.9514,3,1,25,4,1,partial,1,images/Ex7.jpg,right,training,easy,1,,,,,
,,,,,63ea8ec521931832f4b6b7cb,001,24,female,british,bachelors,2024-02-25_21h16.10.429,CRL1e,2023.2.3,MacIntel,60.24096386,65dbad3905fde4fe1981dc61,65dbadeeedc3d103f0e373fe,,,,,,,,,,,113.9521,1,114.9515,114.9515,115.5848,right,1,0.6238,,115.5848,116.5849,3,2,26,6,1,partial,1,images/Ex8.jpg,right,training,easy,1,,,,,
,,,,,63ea8ec521931832f4b6b7cb,001,24,female,british,bachelors,2024-02-25_21h16.10.429,CRL1e,2023.2.3,MacIntel,60.24096386,65dbad3905fde4fe1981dc61,65dbadeeedc3d103f0e373fe,,,,,,,,,,,116.5854,0.6,117.1852,117.1853,117.8522,left,1,0.6624,,117.8522,118.8517,3,3,27,2,1,partial,1,images/Ex6.jpg,left,training,easy,1,,,,,
,,,,,63ea8ec521931832f4b6b7cb,001,24,female,british,bachelors,2024-02-25_21h16.10.429,CRL1e,2023.2.3,MacIntel,60.24096386,65dbad3905fde4fe1981dc61,65dbadeeedc3d103f0e373fe,,,,,,,,,,,118.8523,1.3,120.1517,120.1517,120.8852,right,1,0.7316,,120.8852,121.8855,3,4,28,5,1,partial,1,images/Ex7.jpg,right,training,easy,1,,,,,
,,,,,63ea8ec521931832f4b6b7cb,001,24,female,british,bachelors,2024-02-25_21h16.10.429,CRL1e,2023.2.3,MacIntel,60.24096386,65dbad3905fde4fe1981dc61,65dbadeeedc3d103f0e373fe,,,,,,,,,,,121.8861,1.5,123.3857,123.3857,124.0195,right,1,0.6239,,124.0196,125.0194,3,5,29,7,1,partial,1,images/Ex8.jpg,right,training,easy,1,,,,,
,,,,,63ea8ec521931832f4b6b7cb,001,24,female,british,bachelors,2024-02-25_21h16.10.429,CRL1e,2023.2.3,MacIntel,60.24096386,65dbad3905fde4fe1981dc61,65dbadeeedc3d103f0e373fe,,,,,,,,,,,125.0208,0.5,125.5196,125.5197,126.1696,left,1,0.6411,,126.1696,127.1698,3,6,30,3,1,partial,1,images/Ex6.jpg,left,training,easy,1,,,,,
,,,,,63ea8ec521931832f4b6b7cb,001,24,female,british,bachelors,2024-02-25_21h16.10.429,CRL1e,2023.2.3,MacIntel,60.24096386,65dbad3905fde4fe1981dc61,65dbadeeedc3d103f0e373fe,,,,,,,,,,,127.1707,1.1,128.2706,128.271,129.0029,left,1,0.7249,,129.003,130.0027,3,7,31,0,1,partial,1,images/Ex5.jpg,left,training,easy,1,,,,,
,,,,,63ea8ec521931832f4b6b7cb,001,24,female,british,bachelors,2024-02-25_21h16.10.429,CRL1e,2023.2.3,MacIntel,60.24096386,65dbad3905fde4fe1981dc61,65dbadeeedc3d103f0e373fe,,,,,,,,,,,130.0036,0.9,130.9027,130.9027,131.57,left,1,0.6567,,131.5704,132.5694,4,0,32,0,1,partial,1,images/Ex5.jpg,left,training,easy,1,,,,,
,,,,,63ea8ec521931832f4b6b7cb,001,24,female,british,bachelors,2024-02-25_21h16.10.429,CRL1e,2023.2.3,MacIntel,60.24096386,65dbad3905fde4fe1981dc61,65dbadeeedc3d103f0e373fe,,,,,,,,,,,132.5701,0.6,133.1703,133.1704,133.7865,right,1,0.6057,,133.7865,134.7863,4,1,33,7,1,partial,1,images/Ex8.jpg,right,training,easy,1,,,,,
,,,,,63ea8ec521931832f4b6b7cb,001,24,female,british,bachelors,2024-02-25_21h16.10.429,CRL1e,2023.2.3,MacIntel,60.24096386,65dbad3905fde4fe1981dc61,65dbadeeedc3d103f0e373fe,,,,,,,,,,,134.7875,1.2,135.9866,135.9868,136.4727,right,1,0.4802,,136.4727,137.4697,4,2,34,5,1,partial,1,images/Ex7.jpg,right,training,easy,1,,,,,
,,,,,63ea8ec521931832f4b6b7cb,001,24,female,british,bachelors,2024-02-25_21h16.10.429,CRL1e,2023.2.3,MacIntel,60.24096386,65dbad3905fde4fe1981dc61,65dbadeeedc3d103f0e373fe,,,,,,,,,,,137.4704,1.1,138.5711,138.5711,139.104,left,1,0.5251,,139.104,140.1034,4,3,35,2,1,partial,1,images/Ex6.jpg,left,training,easy,1,,,,,
,,,,,63ea8ec521931832f4b6b7cb,001,24,female,british,bachelors,2024-02-25_21h16.10.429,CRL1e,2023.2.3,MacIntel,60.24096386,65dbad3905fde4fe1981dc61,65dbadeeedc3d103f0e373fe,,,,,,,,,,,140.1045,0.6,140.7033,140.7033,141.3382,left,1,0.6295,,141.3382,142.3371,4,4,36,3,1,partial,1,images/Ex6.jpg,left,training,easy,1,,,,,
,,,,,63ea8ec521931832f4b6b7cb,001,24,female,british,bachelors,2024-02-25_21h16.10.429,CRL1e,2023.2.3,MacIntel,60.24096386,65dbad3905fde4fe1981dc61,65dbadeeedc3d103f0e373fe,,,,,,,,,,,142.3382,1,143.3378,143.3379,143.854,right,1,0.508,,143.854,144.8537,4,5,37,4,1,partial,1,images/Ex7.jpg,right,training,easy,1,,,,,
,,,,,63ea8ec521931832f4b6b7cb,001,24,female,british,bachelors,2024-02-25_21h16.10.429,CRL1e,2023.2.3,MacIntel,60.24096386,65dbad3905fde4fe1981dc61,65dbadeeedc3d103f0e373fe,,,,,,,,,,,144.8551,1,145.8543,145.8544,146.3532,right,1,0.4939,,146.3532,147.3541,4,6,38,6,1,partial,1,images/Ex8.jpg,right,training,easy,1,,,,,
,,,,,63ea8ec521931832f4b6b7cb,001,24,female,british,bachelors,2024-02-25_21h16.10.429,CRL1e,2023.2.3,MacIntel,60.24096386,65dbad3905fde4fe1981dc61,65dbadeeedc3d103f0e373fe,,,,,,,,,,,147.3545,0.6,147.9538,147.9539,148.4372,left,1,0.4739,,148.4373,149.4374,4,7,39,1,1,partial,1,images/Ex5.jpg,left,training,easy,1,,,,,
,,,,,63ea8ec521931832f4b6b7cb,001,24,female,british,bachelors,2024-02-25_21h16.10.429,CRL1e,2023.2.3,MacIntel,60.24096386,65dbad3905fde4fe1981dc61,65dbadeeedc3d103f0e373fe,,,,,,,,,,,149.4388,1.2,150.6381,150.6381,151.1236,right,1,0.48,,151.1236,152.121,5,0,40,5,1,partial,1,images/Ex7.jpg,right,training,easy,1,,,,,
,,,,,63ea8ec521931832f4b6b7cb,001,24,female,british,bachelors,2024-02-25_21h16.10.429,CRL1e,2023.2.3,MacIntel,60.24096386,65dbad3905fde4fe1981dc61,65dbadeeedc3d103f0e373fe,,,,,,,,,,,152.1223,1.2,153.3209,153.3209,153.9083,left,1,0.5817,,153.9083,154.9048,5,1,41,0,1,partial,1,images/Ex5.jpg,left,training,easy,1,,,,,
,,,,,63ea8ec521931832f4b6b7cb,001,24,female,british,bachelors,2024-02-25_21h16.10.429,CRL1e,2023.2.3,MacIntel,60.24096386,65dbad3905fde4fe1981dc61,65dbadeeedc3d103f0e373fe,,,,,,,,,,,154.9061,1.1,156.0044,156.0044,156.5717,right,1,0.5608,,156.5717,157.5712,5,2,42,7,1,partial,1,images/Ex8.jpg,right,training,easy,1,,,,,
,,,,,63ea8ec521931832f4b6b7cb,001,24,female,british,bachelors,2024-02-25_21h16.10.429,CRL1e,2023.2.3,MacIntel,60.24096386,65dbad3905fde4fe1981dc61,65dbadeeedc3d103f0e373fe,,,,,,,,,,,157.5724,1,158.5714,158.5714,159.205,left,1,0.6269,,159.205,160.205,5,3,43,3,1,partial,1,images/Ex6.jpg,left,training,easy,1,,,,,
,,,,,63ea8ec521931832f4b6b7cb,001,24,female,british,bachelors,2024-02-25_21h16.10.429,CRL1e,2023.2.3,MacIntel,60.24096386,65dbad3905fde4fe1981dc61,65dbadeeedc3d103f0e373fe,,,,,,,,,,,160.2064,0.5,160.7048,160.7049,161.1896,left,1,0.4787,,161.1896,162.1884,5,4,44,1,1,partial,1,images/Ex5.jpg,left,training,easy,1,,,,,
,,,,,63ea8ec521931832f4b6b7cb,001,24,female,british,bachelors,2024-02-25_21h16.10.429,CRL1e,2023.2.3,MacIntel,60.24096386,65dbad3905fde4fe1981dc61,65dbadeeedc3d103f0e373fe,,,,,,,,,,,162.1893,0.8,162.9883,162.9883,163.5062,right,1,0.5131,,163.5062,164.5067,5,5,45,4,1,partial,1,images/Ex7.jpg,right,training,easy,1,,,,,
,,,,,63ea8ec521931832f4b6b7cb,001,24,female,british,bachelors,2024-02-25_21h16.10.429,CRL1e,2023.2.3,MacIntel,60.24096386,65dbad3905fde4fe1981dc61,65dbadeeedc3d103f0e373fe,,,,,,,,,,,164.507,1.4,165.9054,165.9056,166.4219,right,1,0.5065,,166.4219,167.4218,5,6,46,6,1,partial,1,images/Ex8.jpg,right,training,easy,1,,,,,
,,,,,63ea8ec521931832f4b6b7cb,001,24,female,british,bachelors,2024-02-25_21h16.10.429,CRL1e,2023.2.3,MacIntel,60.24096386,65dbad3905fde4fe1981dc61,65dbadeeedc3d103f0e373fe,,,,,,,,,,,167.4227,0.9,168.3219,168.322,168.8562,left,1,0.5233,,168.8562,169.8553,5,7,47,2,1,partial,1,images/Ex6.jpg,left,training,easy,1,,,,,
,,,,,63ea8ec521931832f4b6b7cb,001,24,female,british,bachelors,2024-02-25_21h16.10.429,CRL1e,2023.2.3,MacIntel,60.24096386,65dbad3905fde4fe1981dc61,65dbadeeedc3d103f0e373fe,,,,,,,,,,,169.8614,0.6,170.4557,170.4557,171.089,left,1,0.625,,171.089,172.0893,0,0,0,1,1,partial,2,images/Ex5.jpg,left,nonreversed,easy,1,,,,,
,,,,,63ea8ec521931832f4b6b7cb,001,24,female,british,bachelors,2024-02-25_21h16.10.429,CRL1e,2023.2.3,MacIntel,60.24096386,65dbad3905fde4fe1981dc61,65dbadeeedc3d103f0e373fe,,,,,,,,,,,172.0903,1.5,173.589,173.589,174.1226,right,1,0.5247,,174.1226,175.1229,0,1,1,4,1,partial,2,images/Ex7.jpg,right,nonreversed,easy,1,,,,,
,,,,,63ea8ec521931832f4b6b7cb,001,24,female,british,bachelors,2024-02-25_21h16.10.429,CRL1e,2023.2.3,MacIntel,60.24096386,65dbad3905fde4fe1981dc61,65dbadeeedc3d103f0e373fe,,,,,,,,,,,175.1238,1.1,176.2221,176.2221,176.7897,left,1,0.5613,,176.7897,177.7894,0,2,2,0,1,partial,2,images/Ex5.jpg,left,nonreversed,easy,1,,,,,
,,,,,63ea8ec521931832f4b6b7cb,001,24,female,british,bachelors,2024-02-25_21h16.10.429,CRL1e,2023.2.3,MacIntel,60.24096386,65dbad3905fde4fe1981dc61,65dbadeeedc3d103f0e373fe,,,,,,,,,,,177.7903,1.3,179.0893,179.0894,179.5236,right,0,0.4257,,179.5236,180.5229,0,3,3,6,1,partial,2,images/Ex8.jpg,left,reversed,easy,1,,,,,
,,,,,63ea8ec521931832f4b6b7cb,001,24,female,british,bachelors,2024-02-25_21h16.10.429,CRL1e,2023.2.3,MacIntel,60.24096386,65dbad3905fde4fe1981dc61,65dbadeeedc3d103f0e373fe,,,,,,,,,,,180.524,1.4,181.9227,181.9228,182.557,left,0,0.6227,,182.5572,183.5562,0,4,4,3,1,partial,2,images/Ex6.jpg,right,reversed,easy,1,,,,,
,,,,,63ea8ec521931832f4b6b7cb,001,24,female,british,bachelors,2024-02-25_21h16.10.429,CRL1e,2023.2.3,MacIntel,60.24096386,65dbad3905fde4fe1981dc61,65dbadeeedc3d103f0e373fe,,,,,,,,,,,183.558,1.2,184.7563,184.7564,185.6733,left,1,0.909,,185.6734,186.6732,0,5,5,7,1,partial,2,images/Ex8.jpg,left,reversed,easy,1,,,,,
,,,,,63ea8ec521931832f4b6b7cb,001,24,female,british,bachelors,2024-02-25_21h16.10.429,CRL1e,2023.2.3,MacIntel,60.24096386,65dbad3905fde4fe1981dc61,65dbadeeedc3d103f0e373fe,,,,,,,,,,,186.6748,1.2,187.8733,187.8733,188.6576,right,1,0.7731,,188.6577,189.6568,0,6,6,5,1,partial,2,images/Ex7.jpg,right,nonreversed,easy,1,,,,,
,,,,,63ea8ec521931832f4b6b7cb,001,24,female,british,bachelors,2024-02-25_21h16.10.429,CRL1e,2023.2.3,MacIntel,60.24096386,65dbad3905fde4fe1981dc61,65dbadeeedc3d103f0e373fe,,,,,,,,,,,189.6583,1.1,190.757,190.757,191.7657,right,1,0.9798,,191.7658,192.7569,0,7,7,2,1,partial,2,images/Ex6.jpg,right,reversed,easy,1,,,,,
,,,,,63ea8ec521931832f4b6b7cb,001,24,female,british,bachelors,2024-02-25_21h16.10.429,CRL1e,2023.2.3,MacIntel,60.24096386,65dbad3905fde4fe1981dc61,65dbadeeedc3d103f0e373fe,,,,,,,,,,,192.758,1.4,194.1572,194.1573,195.1737,right,1,1.0132,,195.1738,196.1737,1,0,8,3,1,partial,2,images/Ex6.jpg,right,reversed,easy,1,,,,,
,,,,,63ea8ec521931832f4b6b7cb,001,24,female,british,bachelors,2024-02-25_21h16.10.429,CRL1e,2023.2.3,MacIntel,60.24096386,65dbad3905fde4fe1981dc61,65dbadeeedc3d103f0e373fe,,,,,,,,,,,196.1743,1.3,197.4739,197.4739,198.7067,left,1,1.2265,,198.7067,199.7078,1,1,9,0,1,partial,2,images/Ex5.jpg,left,nonreversed,easy,1,,,,,
,,,,,63ea8ec521931832f4b6b7cb,001,24,female,british,bachelors,2024-02-25_21h16.10.429,CRL1e,2023.2.3,MacIntel,60.24096386,65dbad3905fde4fe1981dc61,65dbadeeedc3d103f0e373fe,,,,,,,,,,,199.7086,1.5,201.2074,201.2074,202.5743,left,0,1.3597,,202.5744,203.5743,1,2,10,5,1,partial,2,images/Ex7.jpg,right,nonreversed,easy,1,,,,,
,,,,,63ea8ec521931832f4b6b7cb,001,24,female,british,bachelors,2024-02-25_21h16.10.429,CRL1e,2023.2.3,MacIntel,60.24096386,65dbad3905fde4fe1981dc61,65dbadeeedc3d103f0e373fe,,,,,,,,,,,203.575,0.8,204.3744,204.3745,205.4406,left,1,1.0563,,205.4406,206.4413,1,3,11,7,1,partial,2,images/Ex8.jpg,left,reversed,easy,1,,,,,
,,,,,63ea8ec521931832f4b6b7cb,001,24,female,british,bachelors,2024-02-25_21h16.10.429,CRL1e,2023.2.3,MacIntel,60.24096386,65dbad3905fde4fe1981dc61,65dbadeeedc3d103f0e373fe,,,,,,,,,,,206.442,0.5,206.9413,206.9413,207.7079,left,1,0.7622,,207.708,208.7078,1,4,12,6,1,partial,2,images/Ex8.jpg,left,reversed,easy,1,,,,,
,,,,,63ea8ec521931832f4b6b7cb,001,24,female,british,bachelors,2024-02-25_21h16.10.429,CRL1e,2023.2.3,MacIntel,60.24096386,65dbad3905fde4fe1981dc61,65dbadeeedc3d103f0e373fe,,,,,,,,,,,208.7083,1.1,209.8079,209.808,210.5245,right,1,0.7145,,210.5245,211.5247,1,5,13,4,1,partial,2,images/Ex7.jpg,right,nonreversed,easy,1,,,,,
,,,,,63ea8ec521931832f4b6b7cb,001,24,female,british,bachelors,2024-02-25_21h16.10.429,CRL1e,2023.2.3,MacIntel,60.24096386,65dbad3905fde4fe1981dc61,65dbadeeedc3d103f0e373fe,,,,,,,,,,,211.5259,0.9,212.4256,212.4256,213.3912,right,0,0.9583,,213.3912,214.3918,1,6,14,1,1,partial,2,images/Ex5.jpg,left,nonreversed,easy,1,,,,,
,,,,,63ea8ec521931832f4b6b7cb,001,24,female,british,bachelors,2024-02-25_21h16.10.429,CRL1e,2023.2.3,MacIntel,60.24096386,65dbad3905fde4fe1981dc61,65dbadeeedc3d103f0e373fe,,,,,,,,,,,214.3923,0.6,214.9919,214.9919,216.1414,right,1,1.1424,,216.1415,217.142,1,7,15,2,1,partial,2,images/Ex6.jpg,right,reversed,easy,1,,,,,
,,,,,63ea8ec521931832f4b6b7cb,001,24,female,british,bachelors,2024-02-25_21h16.10.429,CRL1e,2023.2.3,MacIntel,60.24096386,65dbad3905fde4fe1981dc61,65dbadeeedc3d103f0e373fe,,,,,,,,,,,217.143,1.2,218.3425,218.3426,219.276,left,1,0.9243,,219.2761,220.2755,2,0,16,1,1,partial,2,images/Ex5.jpg,left,nonreversed,easy,1,,,,,
,,,,,63ea8ec521931832f4b6b7cb,001,24,female,british,bachelors,2024-02-25_21h16.10.429,CRL1e,2023.2.3,MacIntel,60.24096386,65dbad3905fde4fe1981dc61,65dbadeeedc3d103f0e373fe,,,,,,,,,,,220.276,1.2,221.4758,221.4758,223.0756,right,1,1.5951,,223.0756,224.0761,2,1,17,2,1,partial,2,images/Ex6.jpg,right,reversed,easy,1,,,,,
,,,,,63ea8ec521931832f4b6b7cb,001,24,female,british,bachelors,2024-02-25_21h16.10.429,CRL1e,2023.2.3,MacIntel,60.24096386,65dbad3905fde4fe1981dc61,65dbadeeedc3d103f0e373fe,,,,,,,,,,,224.0769,1.2,225.2752,225.2753,226.4254,right,1,1.1395,,226.4255,227.4253,2,2,18,5,1,partial,2,images/Ex7.jpg,right,nonreversed,easy,1,,,,,
,,,,,63ea8ec521931832f4b6b7cb,001,24,female,british,bachelors,2024-02-25_21h16.10.429,CRL1e,2023.2.3,MacIntel,60.24096386,65dbad3905fde4fe1981dc61,65dbadeeedc3d103f0e373fe,,,,,,,,,,,227.4256,1.2,228.6261,228.6261,230.3472,left,1,1.7171,,230.3472,231.345,2,3,19,0,1,partial,2,images/Ex5.jpg,left,nonreversed,easy,1,,,,,
,,,,,63ea8ec521931832f4b6b7cb,001,24,female,british,bachelors,2024-02-25_21h16.10.429,CRL1e,2023.2.3,MacIntel,60.24096386,65dbad3905fde4fe1981dc61,65dbadeeedc3d103f0e373fe,,,,,,,,,,,231.3578,0.7,232.0595,232.0596,233.5424,left,1,1.4738,,233.5424,234.543,2,4,20,7,1,partial,2,images/Ex8.jpg,left,reversed,easy,1,,,,,
,,,,,63ea8ec521931832f4b6b7cb,001,24,female,british,bachelors,2024-02-25_21h16.10.429,CRL1e,2023.2.3,MacIntel,60.24096386,65dbad3905fde4fe1981dc61,65dbadeeedc3d103f0e373fe,,,,,,,,,,,234.5435,1.2,235.7432,235.7432,237.2266,right,1,1.4725,,237.2267,238.2266,2,5,21,3,1,partial,2,images/Ex6.jpg,right,reversed,easy,1,,,,,
,,,,,63ea8ec521931832f4b6b7cb,001,24,female,british,bachelors,2024-02-25_21h16.10.429,CRL1e,2023.2.3,MacIntel,60.24096386,65dbad3905fde4fe1981dc61,65dbadeeedc3d103f0e373fe,,,,,,,,,,,238.2271,1.3,239.5265,239.5266,240.5764,right,1,1.043,,240.5764,241.5768,2,6,22,4,1,partial,2,images/Ex7.jpg,right,nonreversed,easy,1,,,,,
,,,,,63ea8ec521931832f4b6b7cb,001,24,female,british,bachelors,2024-02-25_21h16.10.429,CRL1e,2023.2.3,MacIntel,60.24096386,65dbad3905fde4fe1981dc61,65dbadeeedc3d103f0e373fe,,,,,,,,,,,241.5775,1.3,242.877,242.8771,243.6934,left,1,0.8111,,243.6934,244.6938,2,7,23,6,1,partial,2,images/Ex8.jpg,left,reversed,easy,1,,,,,
,,,,,63ea8ec521931832f4b6b7cb,001,24,female,british,bachelors,2024-02-25_21h16.10.429,CRL1e,2023.2.3,MacIntel,60.24096386,65dbad3905fde4fe1981dc61,65dbadeeedc3d103f0e373fe,,,,,,,,,,,244.6945,0.7,245.3938,245.3938,246.2621,right,1,0.8637,,246.2622,247.262,3,0,24,3,1,partial,2,images/Ex6.jpg,right,reversed,easy,1,,,,,
,,,,,63ea8ec521931832f4b6b7cb,001,24,female,british,bachelors,2024-02-25_21h16.10.429,CRL1e,2023.2.3,MacIntel,60.24096386,65dbad3905fde4fe1981dc61,65dbadeeedc3d103f0e373fe,,,,,,,,,,,247.2625,1.1,248.3605,248.3605,249.477,right,1,1.1123,,249.477,250.4775,3,1,25,4,1,partial,2,images/Ex7.jpg,right,nonreversed,easy,1,,,,,
,,,,,63ea8ec521931832f4b6b7cb,001,24,female,british,bachelors,2024-02-25_21h16.10.429,CRL1e,2023.2.3,MacIntel,60.24096386,65dbad3905fde4fe1981dc61,65dbadeeedc3d103f0e373fe,,,,,,,,,,,250.4782,1,251.4774,251.4774,252.3273,left,1,0.8397,,252.3274,253.3277,3,2,26,6,1,partial,2,images/Ex8.jpg,left,reversed,easy,1,,,,,
,,,,,63ea8ec521931832f4b6b7cb,001,24,female,british,bachelors,2024-02-25_21h16.10.429,CRL1e,2023.2.3,MacIntel,60.24096386,65dbad3905fde4fe1981dc61,65dbadeeedc3d103f0e373fe,,,,,,,,,,,253.3282,1.4,254.7278,254.7278,255.5446,right,1,0.8078,,255.5446,256.5448,3,3,27,5,1,partial,2,images/Ex7.jpg,right,nonreversed,easy,1,,,,,
,,,,,63ea8ec521931832f4b6b7cb,001,24,female,british,bachelors,2024-02-25_21h16.10.429,CRL1e,2023.2.3,MacIntel,60.24096386,65dbad3905fde4fe1981dc61,65dbadeeedc3d103f0e373fe,,,,,,,,,,,256.5453,0.5,257.0446,257.0446,257.8126,left,1,0.7569,,257.8126,258.8116,3,4,28,7,1,partial,2,images/Ex8.jpg,left,reversed,easy,1,,,,,
,,,,,63ea8ec521931832f4b6b7cb,001,24,female,british,bachelors,2024-02-25_21h16.10.429,CRL1e,2023.2.3,MacIntel,60.24096386,65dbad3905fde4fe1981dc61,65dbadeeedc3d103f0e373fe,,,,,,,,,,,258.8133,0.6,259.4119,259.4119,260.5119,right,1,1.0889,,260.512,261.5122,3,5,29,2,1,partial,2,images/Ex6.jpg,right,reversed,easy,1,,,,,
,,,,,63ea8ec521931832f4b6b7cb,001,24,female,british,bachelors,2024-02-25_21h16.10.429,CRL1e,2023.2.3,MacIntel,60.24096386,65dbad3905fde4fe1981dc61,65dbadeeedc3d103f0e373fe,,,,,,,,,,,261.5133,1.4,262.9121,262.9122,263.6125,left,1,0.6895,,263.6126,264.6127,3,6,30,1,1,partial,2,images/Ex5.jpg,left,nonreversed,easy,1,,,,,
,,,,,63ea8ec521931832f4b6b7cb,001,24,female,british,bachelors,2024-02-25_21h16.10.429,CRL1e,2023.2.3,MacIntel,60.24096386,65dbad3905fde4fe1981dc61,65dbadeeedc3d103f0e373fe,,,,,,,,,,,264.6139,0.6,265.2123,265.2124,266.1898,left,1,0.9723,,266.1899,267.1788,3,7,31,0,1,partial,2,images/Ex5.jpg,left,nonreversed,easy,1,,,,,
,,,,,63ea8ec521931832f4b6b7cb,001,24,female,british,bachelors,2024-02-25_21h16.10.429,CRL1e,2023.2.3,MacIntel,60.24096386,65dbad3905fde4fe1981dc61,65dbadeeedc3d103f0e373fe,,,,,,,,,,,267.1797,0.5,267.6788,267.6789,268.5285,right,1,0.8391,,268.5285,269.5304,4,0,32,3,1,partial,2,images/Ex6.jpg,right,reversed,easy,1,,,,,
,,,,,63ea8ec521931832f4b6b7cb,001,24,female,british,bachelors,2024-02-25_21h16.10.429,CRL1e,2023.2.3,MacIntel,60.24096386,65dbad3905fde4fe1981dc61,65dbadeeedc3d103f0e373fe,,,,,,,,,,,269.5309,1.2,270.7289,270.7289,271.463,right,0,0.7267,,271.4631,272.4626,4,1,33,0,1,partial,2,images/Ex5.jpg,left,nonreversed,easy,1,,,,,
,,,,,63ea8ec521931832f4b6b7cb,001,24,female,british,bachelors,2024-02-25_21h16.10.429,CRL1e,2023.2.3,MacIntel,60.24096386,65dbad3905fde4fe1981dc61,65dbadeeedc3d103f0e373fe,,,,,,,,,,,272.4639,0.6,273.0627,273.0627,274.3319,left,1,1.264,,274.3319,275.3297,4,2,34,6,1,partial,2,images/Ex8.jpg,left,reversed,easy,1,,,,,
,,,,,63ea8ec521931832f4b6b7cb,001,24,female,british,bachelors,2024-02-25_21h16.10.429,CRL1e,2023.2.3,MacIntel,60.24096386,65dbad3905fde4fe1981dc61,65dbadeeedc3d103f0e373fe,,,,,,,,,,,275.3307,0.6,275.9302,275.9303,277.0485,right,0,1.1126,,277.0485,278.0463,4,3,35,1,1,partial,2,images/Ex5.jpg,left,nonreversed,easy,1,,,,,
,,,,,63ea8ec521931832f4b6b7cb,001,24,female,british,bachelors,2024-02-25_21h16.10.429,CRL1e,2023.2.3,MacIntel,60.24096386,65dbad3905fde4fe1981dc61,65dbadeeedc3d103f0e373fe,,,,,,,,,,,278.0475,1.5,279.5461,279.5463,280.7131,left,1,1.1541,,280.7131,281.7132,4,4,36,7,1,partial,2,images/Ex8.jpg,left,reversed,easy,1,,,,,
,,,,,63ea8ec521931832f4b6b7cb,001,24,female,british,bachelors,2024-02-25_21h16.10.429,CRL1e,2023.2.3,MacIntel,60.24096386,65dbad3905fde4fe1981dc61,65dbadeeedc3d103f0e373fe,,,,,,,,,,,281.7139,1.4,283.1133,283.1133,283.6126,left,0,0.4929,,283.6126,284.6131,4,5,37,2,1,partial,2,images/Ex6.jpg,right,reversed,easy,1,,,,,
,,,,,63ea8ec521931832f4b6b7cb,001,24,female,british,bachelors,2024-02-25_21h16.10.429,CRL1e,2023.2.3,MacIntel,60.24096386,65dbad3905fde4fe1981dc61,65dbadeeedc3d103f0e373fe,,,,,,,,,,,284.6137,1.2,285.8126,285.8127,286.9962,right,1,1.1776,,286.9964,287.9967,4,6,38,4,1,partial,2,images/Ex7.jpg,right,nonreversed,easy,1,,,,,
,,,,,63ea8ec521931832f4b6b7cb,001,24,female,british,bachelors,2024-02-25_21h16.10.429,CRL1e,2023.2.3,MacIntel,60.24096386,65dbad3905fde4fe1981dc61,65dbadeeedc3d103f0e373fe,,,,,,,,,,,287.9972,0.6,288.5855,288.5855,289.3801,right,1,0.7926,,289.3802,290.3807,4,7,39,5,1,partial,2,images/Ex7.jpg,right,nonreversed,easy,1,,,,,
,,,,,63ea8ec521931832f4b6b7cb,001,24,female,british,bachelors,2024-02-25_21h16.10.429,CRL1e,2023.2.3,MacIntel,60.24096386,65dbad3905fde4fe1981dc61,65dbadeeedc3d103f0e373fe,,,,,,,,,,,290.3815,1.1,291.4803,291.4803,292.2965,right,1,0.8074,,292.2966,293.2971,5,0,40,2,1,partial,2,images/Ex6.jpg,right,reversed,easy,1,,,,,
,,,,,63ea8ec521931832f4b6b7cb,001,24,female,british,bachelors,2024-02-25_21h16.10.429,CRL1e,2023.2.3,MacIntel,60.24096386,65dbad3905fde4fe1981dc61,65dbadeeedc3d103f0e373fe,,,,,,,,,,,293.2978,1.2,294.4971,294.4972,295.114,left,1,0.6061,,295.1141,296.1139,5,1,41,6,1,partial,2,images/Ex8.jpg,left,reversed,easy,1,,,,,
,,,,,63ea8ec521931832f4b6b7cb,001,24,female,british,bachelors,2024-02-25_21h16.10.429,CRL1e,2023.2.3,MacIntel,60.24096386,65dbad3905fde4fe1981dc61,65dbadeeedc3d103f0e373fe,,,,,,,,,,,296.1145,0.7,296.8141,296.8141,297.7136,right,1,0.8937,,297.7137,298.7141,5,2,42,5,1,partial,2,images/Ex7.jpg,right,nonreversed,easy,1,,,,,
,,,,,63ea8ec521931832f4b6b7cb,001,24,female,british,bachelors,2024-02-25_21h16.10.429,CRL1e,2023.2.3,MacIntel,60.24096386,65dbad3905fde4fe1981dc61,65dbadeeedc3d103f0e373fe,,,,,,,,,,,298.7146,1.2,299.9142,299.9143,301.381,left,1,1.4589,,301.3812,302.381,5,3,43,1,1,partial,2,images/Ex5.jpg,left,nonreversed,easy,1,,,,,
,,,,,63ea8ec521931832f4b6b7cb,001,24,female,british,bachelors,2024-02-25_21h16.10.429,CRL1e,2023.2.3,MacIntel,60.24096386,65dbad3905fde4fe1981dc61,65dbadeeedc3d103f0e373fe,,,,,,,,,,,302.3815,1.5,303.8812,303.8812,304.3313,left,1,0.445,,304.3313,305.3312,5,4,44,7,1,partial,2,images/Ex8.jpg,left,reversed,easy,1,,,,,
,,,,,63ea8ec521931832f4b6b7cb,001,24,female,british,bachelors,2024-02-25_21h16.10.429,CRL1e,2023.2.3,MacIntel,60.24096386,65dbad3905fde4fe1981dc61,65dbadeeedc3d103f0e373fe,,,,,,,,,,,305.3319,1.4,306.7312,306.7312,307.6309,left,0,0.8952,,307.6309,308.6318,5,5,45,4,1,partial,2,images/Ex7.jpg,right,nonreversed,easy,1,,,,,
,,,,,63ea8ec521931832f4b6b7cb,001,24,female,british,bachelors,2024-02-25_21h16.10.429,CRL1e,2023.2.3,MacIntel,60.24096386,65dbad3905fde4fe1981dc61,65dbadeeedc3d103f0e373fe,,,,,,,,,,,308.6326,0.7,309.3315,309.3316,310.4644,right,1,1.1283,,310.4644,311.465,5,6,46,3,1,partial,2,images/Ex6.jpg,right,reversed,easy,1,,,,,
,,,,,63ea8ec521931832f4b6b7cb,001,24,female,british,bachelors,2024-02-25_21h16.10.429,CRL1e,2023.2.3,MacIntel,60.24096386,65dbad3905fde4fe1981dc61,65dbadeeedc3d103f0e373fe,,,,,,,,,,,311.4655,1.5,312.9647,312.9647,314.1649,left,1,1.1957,,314.165,315.1652,5,7,47,0,1,partial,2,images/Ex5.jpg,left,nonreversed,easy,1,,,,,
,,,,,63ea8ec521931832f4b6b7cb,001,24,female,british,bachelors,2024-02-25_21h16.10.429,CRL1e,2023.2.3,MacIntel,60.24096386,65dbad3905fde4fe1981dc61,65dbadeeedc3d103f0e373fe,,,,,,315.1669,370.5866,space,55.41,,370.6009,1,371.6025,371.6025,373.2869,right,1,1.6826,,373.287,374.2862,0,0,0,4,1,total,1,images/Ex3.jpg,right,training,easy,1,,,,,
,,,,,63ea8ec521931832f4b6b7cb,001,24,female,british,bachelors,2024-02-25_21h16.10.429,CRL1e,2023.2.3,MacIntel,60.24096386,65dbad3905fde4fe1981dc61,65dbadeeedc3d103f0e373fe,,,,,,,,,,,374.2868,1,375.2859,375.286,376.2857,left,1,0.9919,,376.2857,377.2864,0,1,1,0,1,total,1,images/Ex1.jpg,left,training,easy,1,,,,,
,,,,,63ea8ec521931832f4b6b7cb,001,24,female,british,bachelors,2024-02-25_21h16.10.429,CRL1e,2023.2.3,MacIntel,60.24096386,65dbad3905fde4fe1981dc61,65dbadeeedc3d103f0e373fe,,,,,,,,,,,377.287,0.8,378.0863,378.0863,378.936,left,1,0.8454,,378.936,379.9371,0,2,2,1,1,total,1,images/Ex1.jpg,left,training,easy,1,,,,,
,,,,,63ea8ec521931832f4b6b7cb,001,24,female,british,bachelors,2024-02-25_21h16.10.429,CRL1e,2023.2.3,MacIntel,60.24096386,65dbad3905fde4fe1981dc61,65dbadeeedc3d103f0e373fe,,,,,,,,,,,379.9379,0.9,380.8457,380.8457,381.8031,right,0,0.9503,,381.8031,382.8032,0,3,3,3,1,total,1,images/Ex2.jpg,left,training,easy,1,,,,,
,,,,,63ea8ec521931832f4b6b7cb,001,24,female,british,bachelors,2024-02-25_21h16.10.429,CRL1e,2023.2.3,MacIntel,60.24096386,65dbad3905fde4fe1981dc61,65dbadeeedc3d103f0e373fe,,,,,,,,,,,382.8039,0.7,383.503,383.503,384.6372,right,1,1.1288,,384.6372,385.6369,0,4,4,5,1,total,1,images/Ex3.jpg,right,training,easy,1,,,,,
,,,,,63ea8ec521931832f4b6b7cb,001,24,female,british,bachelors,2024-02-25_21h16.10.429,CRL1e,2023.2.3,MacIntel,60.24096386,65dbad3905fde4fe1981dc61,65dbadeeedc3d103f0e373fe,,,,,,,,,,,385.638,1.5,387.137,387.1371,388.8063,right,1,1.6651,,388.8063,389.8055,0,5,5,7,1,total,1,images/Ex4.jpg,right,training,easy,1,,,,,
,,,,,63ea8ec521931832f4b6b7cb,001,24,female,british,bachelors,2024-02-25_21h16.10.429,CRL1e,2023.2.3,MacIntel,60.24096386,65dbad3905fde4fe1981dc61,65dbadeeedc3d103f0e373fe,,,,,,,,,,,389.806,1.2,391.0046,391.0047,391.6406,right,1,0.6314,,391.6407,392.6381,0,6,6,6,1,total,1,images/Ex4.jpg,right,training,easy,1,,,,,
,,,,,63ea8ec521931832f4b6b7cb,001,24,female,british,bachelors,2024-02-25_21h16.10.429,CRL1e,2023.2.3,MacIntel,60.24096386,65dbad3905fde4fe1981dc61,65dbadeeedc3d103f0e373fe,,,,,,,,,,,392.639,1.5,394.1375,394.1376,395.0046,left,1,0.859,,395.0046,396.0043,0,7,7,2,1,total,1,images/Ex2.jpg,left,training,easy,1,,,,,
,,,,,63ea8ec521931832f4b6b7cb,001,24,female,british,bachelors,2024-02-25_21h16.10.429,CRL1e,2023.2.3,MacIntel,60.24096386,65dbad3905fde4fe1981dc61,65dbadeeedc3d103f0e373fe,,,,,,,,,,,396.0055,0.5,396.5037,396.5037,397.1538,left,1,0.6443,,397.1538,398.1546,1,0,8,3,1,total,1,images/Ex2.jpg,left,training,easy,1,,,,,
,,,,,63ea8ec521931832f4b6b7cb,001,24,female,british,bachelors,2024-02-25_21h16.10.429,CRL1e,2023.2.3,MacIntel,60.24096386,65dbad3905fde4fe1981dc61,65dbadeeedc3d103f0e373fe,,,,,,,,,,,398.1563,1.1,399.255,399.255,400.1716,right,1,0.9113,,400.1716,401.1714,1,1,9,4,1,total,1,images/Ex3.jpg,right,training,easy,1,,,,,
,,,,,63ea8ec521931832f4b6b7cb,001,24,female,british,bachelors,2024-02-25_21h16.10.429,CRL1e,2023.2.3,MacIntel,60.24096386,65dbad3905fde4fe1981dc61,65dbadeeedc3d103f0e373fe,,,,,,,,,,,401.1727,0.6,401.7723,401.7727,402.4708,right,1,0.6905,,402.4708,403.4715,1,2,10,7,1,total,1,images/Ex4.jpg,right,training,easy,1,,,,,
,,,,,63ea8ec521931832f4b6b7cb,001,24,female,british,bachelors,2024-02-25_21h16.10.429,CRL1e,2023.2.3,MacIntel,60.24096386,65dbad3905fde4fe1981dc61,65dbadeeedc3d103f0e373fe,,,,,,,,,,,403.4731,1.5,404.9715,404.9715,405.6897,left,1,0.7071,,405.6897,406.6885,1,3,11,2,1,total,1,images/Ex2.jpg,left,training,easy,1,,,,,
,,,,,63ea8ec521931832f4b6b7cb,001,24,female,british,bachelors,2024-02-25_21h16.10.429,CRL1e,2023.2.3,MacIntel,60.24096386,65dbad3905fde4fe1981dc61,65dbadeeedc3d103f0e373fe,,,,,,,,,,,406.6892,1,407.6889,407.6889,408.6386,left,1,0.9427,,408.6387,409.6397,1,4,12,0,1,total,1,images/Ex1.jpg,left,training,easy,1,,,,,
,,,,,63ea8ec521931832f4b6b7cb,001,24,female,british,bachelors,2024-02-25_21h16.10.429,CRL1e,2023.2.3,MacIntel,60.24096386,65dbad3905fde4fe1981dc61,65dbadeeedc3d103f0e373fe,,,,,,,,,,,409.6408,1.4,411.0387,411.0388,412.4894,right,1,1.4393,,412.4898,413.4887,1,5,13,5,1,total,1,images/Ex3.jpg,right,training,easy,1,,,,,
,,,,,63ea8ec521931832f4b6b7cb,001,24,female,british,bachelors,2024-02-25_21h16.10.429,CRL1e,2023.2.3,MacIntel,60.24096386,65dbad3905fde4fe1981dc61,65dbadeeedc3d103f0e373fe,,,,,,,,,,,413.4898,0.8,414.289,414.2893,414.9221,right,1,0.6252,,414.9224,415.9223,1,6,14,6,1,total,1,images/Ex4.jpg,right,training,easy,1,,,,,
,,,,,63ea8ec521931832f4b6b7cb,001,24,female,british,bachelors,2024-02-25_21h16.10.429,CRL1e,2023.2.3,MacIntel,60.24096386,65dbad3905fde4fe1981dc61,65dbadeeedc3d103f0e373fe,,,,,,,,,,,415.923,1.2,417.1238,417.1239,417.9068,left,1,0.7773,,417.9068,418.9074,1,7,15,1,1,total,1,images/Ex1.jpg,left,training,easy,1,,,,,
,,,,,63ea8ec521931832f4b6b7cb,001,24,female,british,bachelors,2024-02-25_21h16.10.429,CRL1e,2023.2.3,MacIntel,60.24096386,65dbad3905fde4fe1981dc61,65dbadeeedc3d103f0e373fe,,,,,,,,,,,418.908,0.5,419.4059,419.4059,420.0893,left,1,0.6733,,420.0893,421.0893,2,0,16,3,1,total,1,images/Ex2.jpg,left,training,easy,1,,,,,
,,,,,63ea8ec521931832f4b6b7cb,001,24,female,british,bachelors,2024-02-25_21h16.10.429,CRL1e,2023.2.3,MacIntel,60.24096386,65dbad3905fde4fe1981dc61,65dbadeeedc3d103f0e373fe,,,,,,,,,,,421.0909,1.2,422.2901,422.2903,422.9225,left,1,0.6274,,422.9226,423.923,2,1,17,0,1,total,1,images/Ex1.jpg,left,training,easy,1,,,,,
,,,,,63ea8ec521931832f4b6b7cb,001,24,female,british,bachelors,2024-02-25_21h16.10.429,CRL1e,2023.2.3,MacIntel,60.24096386,65dbad3905fde4fe1981dc61,65dbadeeedc3d103f0e373fe,,,,,,,,,,,423.9247,1.4,425.3241,425.3242,425.923,right,1,0.5902,,425.9231,426.9233,2,2,18,6,1,total,1,images/Ex4.jpg,right,training,easy,1,,,,,
,,,,,63ea8ec521931832f4b6b7cb,001,24,female,british,bachelors,2024-02-25_21h16.10.429,CRL1e,2023.2.3,MacIntel,60.24096386,65dbad3905fde4fe1981dc61,65dbadeeedc3d103f0e373fe,,,,,,,,,,,426.9247,1.4,428.3231,428.3232,429.023,right,1,0.6919,,429.0231,430.0234,2,3,19,4,1,total,1,images/Ex3.jpg,right,training,easy,1,,,,,
,,,,,63ea8ec521931832f4b6b7cb,001,24,female,british,bachelors,2024-02-25_21h16.10.429,CRL1e,2023.2.3,MacIntel,60.24096386,65dbad3905fde4fe1981dc61,65dbadeeedc3d103f0e373fe,,,,,,,,,,,430.0241,1,431.0245,431.0245,431.5728,left,1,0.5396,,431.5728,432.5739,2,4,20,1,1,total,1,images/Ex1.jpg,left,training,easy,1,,,,,
,,,,,63ea8ec521931832f4b6b7cb,001,24,female,british,bachelors,2024-02-25_21h16.10.429,CRL1e,2023.2.3,MacIntel,60.24096386,65dbad3905fde4fe1981dc61,65dbadeeedc3d103f0e373fe,,,,,,,,,,,432.5751,1.3,433.8743,433.8744,434.4088,right,1,0.5287,,434.4088,435.4073,2,5,21,5,1,total,1,images/Ex3.jpg,right,training,easy,1,,,,,
,,,,,63ea8ec521931832f4b6b7cb,001,24,female,british,bachelors,2024-02-25_21h16.10.429,CRL1e,2023.2.3,MacIntel,60.24096386,65dbad3905fde4fe1981dc61,65dbadeeedc3d103f0e373fe,,,,,,,,,,,435.4085,1.1,436.5073,436.5073,437.0929,right,1,0.5792,,437.0929,438.0906,2,6,22,7,1,total,1,images/Ex4.jpg,right,training,easy,1,,,,,
,,,,,63ea8ec521931832f4b6b7cb,001,24,female,british,bachelors,2024-02-25_21h16.10.429,CRL1e,2023.2.3,MacIntel,60.24096386,65dbad3905fde4fe1981dc61,65dbadeeedc3d103f0e373fe,,,,,,,,,,,438.0919,1,439.0905,439.0905,439.659,left,1,0.565,,439.6591,440.6574,2,7,23,2,1,total,1,images/Ex2.jpg,left,training,easy,1,,,,,
,,,,,63ea8ec521931832f4b6b7cb,001,24,female,british,bachelors,2024-02-25_21h16.10.429,CRL1e,2023.2.3,MacIntel,60.24096386,65dbad3905fde4fe1981dc61,65dbadeeedc3d103f0e373fe,,,,,,,,,,,440.6587,0.7,441.3581,441.3581,441.9575,left,1,0.5899,,441.9576,442.9573,3,0,24,0,1,total,1,images/Ex1.jpg,left,training,easy,1,,,,,
,,,,,63ea8ec521931832f4b6b7cb,001,24,female,british,bachelors,2024-02-25_21h16.10.429,CRL1e,2023.2.3,MacIntel,60.24096386,65dbad3905fde4fe1981dc61,65dbadeeedc3d103f0e373fe,,,,,,,,,,,442.9581,0.8,443.7577,443.7577,444.4069,left,1,0.6361,,444.4069,445.4091,3,1,25,3,1,total,1,images/Ex2.jpg,left,training,easy,1,,,,,
,,,,,63ea8ec521931832f4b6b7cb,001,24,female,british,bachelors,2024-02-25_21h16.10.429,CRL1e,2023.2.3,MacIntel,60.24096386,65dbad3905fde4fe1981dc61,65dbadeeedc3d103f0e373fe,,,,,,,,,,,445.4095,0.6,446.008,446.008,446.6916,right,1,0.6741,,446.6917,447.6915,3,2,26,4,1,total,1,images/Ex3.jpg,right,training,easy,1,,,,,
,,,,,63ea8ec521931832f4b6b7cb,001,24,female,british,bachelors,2024-02-25_21h16.10.429,CRL1e,2023.2.3,MacIntel,60.24096386,65dbad3905fde4fe1981dc61,65dbadeeedc3d103f0e373fe,,,,,,,,,,,447.6926,0.9,448.5915,448.5915,449.1076,right,1,0.5081,,449.1077,450.1081,3,3,27,6,1,total,1,images/Ex4.jpg,right,training,easy,1,,,,,
,,,,,63ea8ec521931832f4b6b7cb,001,24,female,british,bachelors,2024-02-25_21h16.10.429,CRL1e,2023.2.3,MacIntel,60.24096386,65dbad3905fde4fe1981dc61,65dbadeeedc3d103f0e373fe,,,,,,,,,,,450.1093,1.4,451.5082,451.5082,452.0093,left,1,0.4907,,452.0093,453.0082,3,4,28,1,1,total,1,images/Ex1.jpg,left,training,easy,1,,,,,
,,,,,63ea8ec521931832f4b6b7cb,001,24,female,british,bachelors,2024-02-25_21h16.10.429,CRL1e,2023.2.3,MacIntel,60.24096386,65dbad3905fde4fe1981dc61,65dbadeeedc3d103f0e373fe,,,,,,,,,,,453.009,1.2,454.2088,454.2089,454.9124,right,1,0.7012,,454.9125,455.9084,3,5,29,5,1,total,1,images/Ex3.jpg,right,training,easy,1,,,,,
,,,,,63ea8ec521931832f4b6b7cb,001,24,female,british,bachelors,2024-02-25_21h16.10.429,CRL1e,2023.2.3,MacIntel,60.24096386,65dbad3905fde4fe1981dc61,65dbadeeedc3d103f0e373fe,,,,,,,,,,,455.9099,1.4,457.309,457.309,457.7421,right,1,0.4259,,457.7421,458.7428,3,6,30,7,1,total,1,images/Ex4.jpg,right,training,easy,1,,,,,
,,,,,63ea8ec521931832f4b6b7cb,001,24,female,british,bachelors,2024-02-25_21h16.10.429,CRL1e,2023.2.3,MacIntel,60.24096386,65dbad3905fde4fe1981dc61,65dbadeeedc3d103f0e373fe,,,,,,,,,,,458.7438,1.1,459.8414,459.8414,460.4923,left,1,0.6442,,460.4923,461.4924,3,7,31,2,1,total,1,images/Ex2.jpg,left,training,easy,1,,,,,
,,,,,63ea8ec521931832f4b6b7cb,001,24,female,british,bachelors,2024-02-25_21h16.10.429,CRL1e,2023.2.3,MacIntel,60.24096386,65dbad3905fde4fe1981dc61,65dbadeeedc3d103f0e373fe,,,,,,,,,,,461.4939,0.8,462.2924,462.2924,462.7754,left,1,0.4754,,462.7754,463.7755,4,0,32,3,1,total,1,images/Ex2.jpg,left,training,easy,1,,,,,
,,,,,63ea8ec521931832f4b6b7cb,001,24,female,british,bachelors,2024-02-25_21h16.10.429,CRL1e,2023.2.3,MacIntel,60.24096386,65dbad3905fde4fe1981dc61,65dbadeeedc3d103f0e373fe,,,,,,,,,,,463.7764,0.6,464.3756,464.3757,464.9751,right,1,0.5918,,464.9752,465.9768,4,1,33,6,1,total,1,images/Ex4.jpg,right,training,easy,1,,,,,
,,,,,63ea8ec521931832f4b6b7cb,001,24,female,british,bachelors,2024-02-25_21h16.10.429,CRL1e,2023.2.3,MacIntel,60.24096386,65dbad3905fde4fe1981dc61,65dbadeeedc3d103f0e373fe,,,,,,,,,,,465.9777,1.4,467.3762,467.3762,468.0113,left,1,0.6296,,468.0113,469.0096,4,2,34,0,1,total,1,images/Ex1.jpg,left,training,easy,1,,,,,
,,,,,63ea8ec521931832f4b6b7cb,001,24,female,british,bachelors,2024-02-25_21h16.10.429,CRL1e,2023.2.3,MacIntel,60.24096386,65dbad3905fde4fe1981dc61,65dbadeeedc3d103f0e373fe,,,,,,,,,,,469.011,0.9,469.9095,469.9095,470.4936,right,1,0.5794,,470.4937,471.493,4,3,35,7,1,total,1,images/Ex4.jpg,right,training,easy,1,,,,,
,,,,,63ea8ec521931832f4b6b7cb,001,24,female,british,bachelors,2024-02-25_21h16.10.429,CRL1e,2023.2.3,MacIntel,60.24096386,65dbad3905fde4fe1981dc61,65dbadeeedc3d103f0e373fe,,,,,,,,,,,471.4942,1.1,472.5933,472.5935,473.1604,left,1,0.5567,,473.1605,474.1595,4,4,36,2,1,total,1,images/Ex2.jpg,left,training,easy,1,,,,,
,,,,,63ea8ec521931832f4b6b7cb,001,24,female,british,bachelors,2024-02-25_21h16.10.429,CRL1e,2023.2.3,MacIntel,60.24096386,65dbad3905fde4fe1981dc61,65dbadeeedc3d103f0e373fe,,,,,,,,,,,474.1608,1.1,475.2598,475.2598,475.811,left,1,0.5465,,475.811,476.8101,4,5,37,1,1,total,1,images/Ex1.jpg,left,training,easy,1,,,,,
,,,,,63ea8ec521931832f4b6b7cb,001,24,female,british,bachelors,2024-02-25_21h16.10.429,CRL1e,2023.2.3,MacIntel,60.24096386,65dbad3905fde4fe1981dc61,65dbadeeedc3d103f0e373fe,,,,,,,,,,,476.8114,0.8,477.6102,477.6102,478.2952,right,1,0.6795,,478.2953,479.2939,4,6,38,5,1,total,1,images/Ex3.jpg,right,training,easy,1,,,,,
,,,,,63ea8ec521931832f4b6b7cb,001,24,female,british,bachelors,2024-02-25_21h16.10.429,CRL1e,2023.2.3,MacIntel,60.24096386,65dbad3905fde4fe1981dc61,65dbadeeedc3d103f0e373fe,,,,,,,,,,,479.295,0.5,479.7935,479.7935,480.328,right,1,0.5305,,480.328,481.3269,4,7,39,4,1,total,1,images/Ex3.jpg,right,training,easy,1,,,,,
,,,,,63ea8ec521931832f4b6b7cb,001,24,female,british,bachelors,2024-02-25_21h16.10.429,CRL1e,2023.2.3,MacIntel,60.24096386,65dbad3905fde4fe1981dc61,65dbadeeedc3d103f0e373fe,,,,,,,,,,,481.3282,1.3,482.627,482.6271,483.0616,right,1,0.4244,,483.0617,484.0603,5,0,40,5,1,total,1,images/Ex3.jpg,right,training,easy,1,,,,,
,,,,,63ea8ec521931832f4b6b7cb,001,24,female,british,bachelors,2024-02-25_21h16.10.429,CRL1e,2023.2.3,MacIntel,60.24096386,65dbad3905fde4fe1981dc61,65dbadeeedc3d103f0e373fe,,,,,,,,,,,484.0613,0.9,484.9605,484.9605,485.5431,right,1,0.5729,,485.5432,486.5439,5,1,41,4,1,total,1,images/Ex3.jpg,right,training,easy,1,,,,,
,,,,,63ea8ec521931832f4b6b7cb,001,24,female,british,bachelors,2024-02-25_21h16.10.429,CRL1e,2023.2.3,MacIntel,60.24096386,65dbad3905fde4fe1981dc61,65dbadeeedc3d103f0e373fe,,,,,,,,,,,486.5446,0.7,487.244,487.2454,487.8937,right,1,0.6403,,487.8937,488.8952,5,2,42,7,1,total,1,images/Ex4.jpg,right,training,easy,1,,,,,
,,,,,63ea8ec521931832f4b6b7cb,001,24,female,british,bachelors,2024-02-25_21h16.10.429,CRL1e,2023.2.3,MacIntel,60.24096386,65dbad3905fde4fe1981dc61,65dbadeeedc3d103f0e373fe,,,,,,,,,,,488.896,1.1,489.9942,489.9942,490.5958,left,1,0.591,,490.5958,491.5943,5,3,43,3,1,total,1,images/Ex2.jpg,left,training,easy,1,,,,,
,,,,,63ea8ec521931832f4b6b7cb,001,24,female,british,bachelors,2024-02-25_21h16.10.429,CRL1e,2023.2.3,MacIntel,60.24096386,65dbad3905fde4fe1981dc61,65dbadeeedc3d103f0e373fe,,,,,,,,,,,491.5952,0.9,492.4945,492.4946,493.1101,left,1,0.603,,493.1101,494.1111,5,4,44,1,1,total,1,images/Ex1.jpg,left,training,easy,1,,,,,
,,,,,63ea8ec521931832f4b6b7cb,001,24,female,british,bachelors,2024-02-25_21h16.10.429,CRL1e,2023.2.3,MacIntel,60.24096386,65dbad3905fde4fe1981dc61,65dbadeeedc3d103f0e373fe,,,,,,,,,,,494.1128,0.6,494.7121,494.7122,495.2774,left,1,0.5561,,495.2774,496.2791,5,5,45,0,1,total,1,images/Ex1.jpg,left,training,easy,1,,,,,
,,,,,63ea8ec521931832f4b6b7cb,001,24,female,british,bachelors,2024-02-25_21h16.10.429,CRL1e,2023.2.3,MacIntel,60.24096386,65dbad3905fde4fe1981dc61,65dbadeeedc3d103f0e373fe,,,,,,,,,,,496.2798,0.9,497.178,497.1781,497.6953,right,1,0.5061,,497.6953,498.6947,5,6,46,6,1,total,1,images/Ex4.jpg,right,training,easy,1,,,,,
,,,,,63ea8ec521931832f4b6b7cb,001,24,female,british,bachelors,2024-02-25_21h16.10.429,CRL1e,2023.2.3,MacIntel,60.24096386,65dbad3905fde4fe1981dc61,65dbadeeedc3d103f0e373fe,,,,,,,,,,,498.6958,0.6,499.2948,499.2948,499.8778,left,1,0.5729,,499.8778,500.8784,5,7,47,2,1,total,1,images/Ex2.jpg,left,training,easy,1,,,,,
,,,,,63ea8ec521931832f4b6b7cb,001,24,female,british,bachelors,2024-02-25_21h16.10.429,CRL1e,2023.2.3,MacIntel,60.24096386,65dbad3905fde4fe1981dc61,65dbadeeedc3d103f0e373fe,,,,,,,,,,,500.8838,1.4,502.2782,502.2782,502.9288,left,0,0.6403,,502.9288,503.9289,0,0,0,3,1,total,2,images/Ex2.jpg,right,reversed,easy,1,,,,,
,,,,,63ea8ec521931832f4b6b7cb,001,24,female,british,bachelors,2024-02-25_21h16.10.429,CRL1e,2023.2.3,MacIntel,60.24096386,65dbad3905fde4fe1981dc61,65dbadeeedc3d103f0e373fe,,,,,,,,,,,503.9301,1.1,505.0285,505.0286,505.9454,right,1,0.909,,505.9454,506.9457,0,1,1,2,1,total,2,images/Ex2.jpg,right,reversed,easy,1,,,,,
,,,,,63ea8ec521931832f4b6b7cb,001,24,female,british,bachelors,2024-02-25_21h16.10.429,CRL1e,2023.2.3,MacIntel,60.24096386,65dbad3905fde4fe1981dc61,65dbadeeedc3d103f0e373fe,,,,,,,,,,,506.9471,1.2,508.1455,508.1455,508.93,right,0,0.7727,,508.9301,509.9289,0,2,2,7,1,total,2,images/Ex4.jpg,left,reversed,easy,1,,,,,
,,,,,63ea8ec521931832f4b6b7cb,001,24,female,british,bachelors,2024-02-25_21h16.10.429,CRL1e,2023.2.3,MacIntel,60.24096386,65dbad3905fde4fe1981dc61,65dbadeeedc3d103f0e373fe,,,,,,,,,,,509.9303,1.5,511.4292,511.4292,512.2305,right,0,0.7903,,512.2306,513.2292,0,3,3,5,1,total,2,images/Ex3.jpg,left,reversed,easy,1,,,,,
,,,,,63ea8ec521931832f4b6b7cb,001,24,female,british,bachelors,2024-02-25_21h16.10.429,CRL1e,2023.2.3,MacIntel,60.24096386,65dbad3905fde4fe1981dc61,65dbadeeedc3d103f0e373fe,,,,,,,,,,,513.2302,1.2,514.4304,514.4305,515.2632,right,1,0.8243,,515.2632,516.2629,0,4,4,0,1,total,2,images/Ex1.jpg,right,reversed,easy,1,,,,,
,,,,,63ea8ec521931832f4b6b7cb,001,24,female,british,bachelors,2024-02-25_21h16.10.429,CRL1e,2023.2.3,MacIntel,60.24096386,65dbad3905fde4fe1981dc61,65dbadeeedc3d103f0e373fe,,,,,,,,,,,516.2644,1.1,517.3629,517.363,518.1476,right,1,0.7749,,518.1476,519.1463,0,5,5,1,1,total,2,images/Ex1.jpg,right,reversed,easy,1,,,,,
,,,,,63ea8ec521931832f4b6b7cb,001,24,female,british,bachelors,2024-02-25_21h16.10.429,CRL1e,2023.2.3,MacIntel,60.24096386,65dbad3905fde4fe1981dc61,65dbadeeedc3d103f0e373fe,,,,,,,,,,,519.1475,0.6,519.7466,519.7466,520.4965,left,1,0.7446,,520.4966,521.4963,0,6,6,6,1,total,2,images/Ex4.jpg,left,reversed,easy,1,,,,,
,,,,,63ea8ec521931832f4b6b7cb,001,24,female,british,bachelors,2024-02-25_21h16.10.429,CRL1e,2023.2.3,MacIntel,60.24096386,65dbad3905fde4fe1981dc61,65dbadeeedc3d103f0e373fe,,,,,,,,,,,521.497,0.7,522.1967,522.1968,522.7309,left,1,0.529,,522.7309,523.7308,0,7,7,4,1,total,2,images/Ex3.jpg,left,reversed,easy,1,,,,,
,,,,,63ea8ec521931832f4b6b7cb,001,24,female,british,bachelors,2024-02-25_21h16.10.429,CRL1e,2023.2.3,MacIntel,60.24096386,65dbad3905fde4fe1981dc61,65dbadeeedc3d103f0e373fe,,,,,,,,,,,523.7316,0.9,524.6306,524.6307,525.4982,right,1,0.8567,,525.4983,526.4961,1,0,8,0,1,total,2,images/Ex1.jpg,right,reversed,easy,1,,,,,
,,,,,63ea8ec521931832f4b6b7cb,001,24,female,british,bachelors,2024-02-25_21h16.10.429,CRL1e,2023.2.3,MacIntel,60.24096386,65dbad3905fde4fe1981dc61,65dbadeeedc3d103f0e373fe,,,,,,,,,,,526.4965,0.9,527.3968,527.3968,528.0651,left,1,0.6565,,528.0651,529.0653,1,1,9,7,1,total,2,images/Ex4.jpg,left,reversed,easy,1,,,,,
,,,,,63ea8ec521931832f4b6b7cb,001,24,female,british,bachelors,2024-02-25_21h16.10.429,CRL1e,2023.2.3,MacIntel,60.24096386,65dbad3905fde4fe1981dc61,65dbadeeedc3d103f0e373fe,,,,,,,,,,,529.0658,0.8,529.8635,529.8635,530.6974,right,1,0.825,,530.6974,531.6971,1,2,10,3,1,total,2,images/Ex2.jpg,right,reversed,easy,1,,,,,
,,,,,63ea8ec521931832f4b6b7cb,001,24,female,british,bachelors,2024-02-25_21h16.10.429,CRL1e,2023.2.3,MacIntel,60.24096386,65dbad3905fde4fe1981dc61,65dbadeeedc3d103f0e373fe,,,,,,,,,,,531.6984,1.2,532.8973,532.8974,533.647,left,1,0.7442,,533.647,534.6472,1,3,11,5,1,total,2,images/Ex3.jpg,left,reversed,easy,1,,,,,
,,,,,63ea8ec521931832f4b6b7cb,001,24,female,british,bachelors,2024-02-25_21h16.10.429,CRL1e,2023.2.3,MacIntel,60.24096386,65dbad3905fde4fe1981dc61,65dbadeeedc3d103f0e373fe,,,,,,,,,,,534.6487,1.1,535.7476,535.7477,536.6489,right,1,0.89,,536.649,537.6474,1,4,12,2,1,total,2,images/Ex2.jpg,right,reversed,easy,1,,,,,
,,,,,63ea8ec521931832f4b6b7cb,001,24,female,british,bachelors,2024-02-25_21h16.10.429,CRL1e,2023.2.3,MacIntel,60.24096386,65dbad3905fde4fe1981dc61,65dbadeeedc3d103f0e373fe,,,,,,,,,,,537.6485,0.6,538.2478,538.2479,539.1493,left,1,0.8959,,539.1494,540.1477,1,5,13,4,1,total,2,images/Ex3.jpg,left,reversed,easy,1,,,,,
,,,,,63ea8ec521931832f4b6b7cb,001,24,female,british,bachelors,2024-02-25_21h16.10.429,CRL1e,2023.2.3,MacIntel,60.24096386,65dbad3905fde4fe1981dc61,65dbadeeedc3d103f0e373fe,,,,,,,,,,,540.1488,1.5,541.6477,541.6478,542.516,right,1,0.8575,,542.5161,543.5146,1,6,14,1,1,total,2,images/Ex1.jpg,right,reversed,easy,1,,,,,
,,,,,63ea8ec521931832f4b6b7cb,001,24,female,british,bachelors,2024-02-25_21h16.10.429,CRL1e,2023.2.3,MacIntel,60.24096386,65dbad3905fde4fe1981dc61,65dbadeeedc3d103f0e373fe,,,,,,,,,,,543.5152,0.9,544.4144,544.4145,545.0475,left,1,0.627,,545.0476,546.0481,1,7,15,6,1,total,2,images/Ex4.jpg,left,reversed,easy,1,,,,,
,,,,,63ea8ec521931832f4b6b7cb,001,24,female,british,bachelors,2024-02-25_21h16.10.429,CRL1e,2023.2.3,MacIntel,60.24096386,65dbad3905fde4fe1981dc61,65dbadeeedc3d103f0e373fe,,,,,,,,,,,546.0497,1.2,547.2482,547.2483,548.0647,right,1,0.8093,,548.0647,549.0649,2,0,16,3,1,total,2,images/Ex2.jpg,right,reversed,easy,1,,,,,
,,,,,63ea8ec521931832f4b6b7cb,001,24,female,british,bachelors,2024-02-25_21h16.10.429,CRL1e,2023.2.3,MacIntel,60.24096386,65dbad3905fde4fe1981dc61,65dbadeeedc3d103f0e373fe,,,,,,,,,,,549.0656,0.5,549.5658,549.5659,550.282,left,1,0.7061,,550.2821,551.2817,2,1,17,4,1,total,2,images/Ex3.jpg,left,reversed,easy,1,,,,,
,,,,,63ea8ec521931832f4b6b7cb,001,24,female,british,bachelors,2024-02-25_21h16.10.429,CRL1e,2023.2.3,MacIntel,60.24096386,65dbad3905fde4fe1981dc61,65dbadeeedc3d103f0e373fe,,,,,,,,,,,551.283,1.4,552.6819,552.682,553.3151,left,1,0.6281,,553.3151,554.316,2,2,18,5,1,total,2,images/Ex3.jpg,left,reversed,easy,1,,,,,
,,,,,63ea8ec521931832f4b6b7cb,001,24,female,british,bachelors,2024-02-25_21h16.10.429,CRL1e,2023.2.3,MacIntel,60.24096386,65dbad3905fde4fe1981dc61,65dbadeeedc3d103f0e373fe,,,,,,,,,,,554.317,1.1,555.4153,555.4153,556.0484,left,1,0.6241,,556.0484,557.0489,2,3,19,7,1,total,2,images/Ex4.jpg,left,reversed,easy,1,,,,,
,,,,,63ea8ec521931832f4b6b7cb,001,24,female,british,bachelors,2024-02-25_21h16.10.429,CRL1e,2023.2.3,MacIntel,60.24096386,65dbad3905fde4fe1981dc61,65dbadeeedc3d103f0e373fe,,,,,,,,,,,557.0504,0.8,557.849,557.849,558.3817,left,1,0.5248,,558.3817,559.3839,2,4,20,6,1,total,2,images/Ex4.jpg,left,reversed,easy,1,,,,,
,,,,,63ea8ec521931832f4b6b7cb,001,24,female,british,bachelors,2024-02-25_21h16.10.429,CRL1e,2023.2.3,MacIntel,60.24096386,65dbad3905fde4fe1981dc61,65dbadeeedc3d103f0e373fe,,,,,,,,,,,559.3844,1.3,560.6824,560.6825,561.0668,right,1,0.3739,,561.067,562.0662,2,5,21,0,1,total,2,images/Ex1.jpg,right,reversed,easy,1,,,,,
,,,,,63ea8ec521931832f4b6b7cb,001,24,female,british,bachelors,2024-02-25_21h16.10.429,CRL1e,2023.2.3,MacIntel,60.24096386,65dbad3905fde4fe1981dc61,65dbadeeedc3d103f0e373fe,,,,,,,,,,,562.0673,0.9,562.9657,562.9658,563.4485,left,0,0.4754,,563.4485,564.4483,2,6,22,2,1,total,2,images/Ex2.jpg,right,reversed,easy,1,,,,,
,,,,,63ea8ec521931832f4b6b7cb,001,24,female,british,bachelors,2024-02-25_21h16.10.429,CRL1e,2023.2.3,MacIntel,60.24096386,65dbad3905fde4fe1981dc61,65dbadeeedc3d103f0e373fe,,,,,,,,,,,564.4486,1.1,565.5491,565.5491,566.4668,right,1,0.9065,,566.467,567.466,2,7,23,1,1,total,2,images/Ex1.jpg,right,reversed,easy,1,,,,,
,,,,,63ea8ec521931832f4b6b7cb,001,24,female,british,bachelors,2024-02-25_21h16.10.429,CRL1e,2023.2.3,MacIntel,60.24096386,65dbad3905fde4fe1981dc61,65dbadeeedc3d103f0e373fe,,,,,,,,,,,567.4667,1.1,568.566,568.566,569.3655,left,1,0.7896,,569.3655,570.3664,3,0,24,7,1,total,2,images/Ex4.jpg,left,reversed,easy,1,,,,,
,,,,,63ea8ec521931832f4b6b7cb,001,24,female,british,bachelors,2024-02-25_21h16.10.429,CRL1e,2023.2.3,MacIntel,60.24096386,65dbad3905fde4fe1981dc61,65dbadeeedc3d103f0e373fe,,,,,,,,,,,570.3672,0.8,571.1663,571.1663,572.0658,right,1,0.8953,,572.0658,573.0665,3,1,25,3,1,total,2,images/Ex2.jpg,right,reversed,easy,1,,,,,
,,,,,63ea8ec521931832f4b6b7cb,001,24,female,british,bachelors,2024-02-25_21h16.10.429,CRL1e,2023.2.3,MacIntel,60.24096386,65dbad3905fde4fe1981dc61,65dbadeeedc3d103f0e373fe,,,,,,,,,,,573.067,1.3,574.3666,574.3667,575.283,right,1,0.9125,,575.283,576.2834,3,2,26,2,1,total,2,images/Ex2.jpg,right,reversed,easy,1,,,,,
,,,,,63ea8ec521931832f4b6b7cb,001,24,female,british,bachelors,2024-02-25_21h16.10.429,CRL1e,2023.2.3,MacIntel,60.24096386,65dbad3905fde4fe1981dc61,65dbadeeedc3d103f0e373fe,,,,,,,,,,,576.2841,1.5,577.7834,577.7835,578.7992,right,1,1.0132,,578.7995,579.8002,3,3,27,1,1,total,2,images/Ex1.jpg,right,reversed,easy,1,,,,,
,,,,,63ea8ec521931832f4b6b7cb,001,24,female,british,bachelors,2024-02-25_21h16.10.429,CRL1e,2023.2.3,MacIntel,60.24096386,65dbad3905fde4fe1981dc61,65dbadeeedc3d103f0e373fe,,,,,,,,,,,579.8007,1.2,581.0003,581.0004,581.4833,right,1,0.4765,,581.4834,582.4836,3,4,28,0,1,total,2,images/Ex1.jpg,right,reversed,easy,1,,,,,
,,,,,63ea8ec521931832f4b6b7cb,001,24,female,british,bachelors,2024-02-25_21h16.10.429,CRL1e,2023.2.3,MacIntel,60.24096386,65dbad3905fde4fe1981dc61,65dbadeeedc3d103f0e373fe,,,,,,,,,,,582.484,0.8,583.2829,583.283,583.9166,left,1,0.6298,,583.9166,584.9173,3,5,29,4,1,total,2,images/Ex3.jpg,left,reversed,easy,1,,,,,
,,,,,63ea8ec521931832f4b6b7cb,001,24,female,british,bachelors,2024-02-25_21h16.10.429,CRL1e,2023.2.3,MacIntel,60.24096386,65dbad3905fde4fe1981dc61,65dbadeeedc3d103f0e373fe,,,,,,,,,,,584.918,1.3,586.2173,586.2173,586.8509,left,1,0.6209,,586.851,587.8514,3,6,30,5,1,total,2,images/Ex3.jpg,left,reversed,easy,1,,,,,
,,,,,63ea8ec521931832f4b6b7cb,001,24,female,british,bachelors,2024-02-25_21h16.10.429,CRL1e,2023.2.3,MacIntel,60.24096386,65dbad3905fde4fe1981dc61,65dbadeeedc3d103f0e373fe,,,,,,,,,,,587.8522,1.2,589.0508,589.0508,589.6176,left,1,0.5579,,589.6176,590.6168,3,7,31,6,1,total,2,images/Ex4.jpg,left,reversed,easy,1,,,,,
,,,,,63ea8ec521931832f4b6b7cb,001,24,female,british,bachelors,2024-02-25_21h16.10.429,CRL1e,2023.2.3,MacIntel,60.24096386,65dbad3905fde4fe1981dc61,65dbadeeedc3d103f0e373fe,,,,,,,,,,,590.6172,1.3,591.9177,591.9177,592.6173,right,1,0.6923,,592.6174,593.6179,4,0,32,3,1,total,2,images/Ex2.jpg,right,reversed,easy,1,,,,,
,,,,,63ea8ec521931832f4b6b7cb,001,24,female,british,bachelors,2024-02-25_21h16.10.429,CRL1e,2023.2.3,MacIntel,60.24096386,65dbad3905fde4fe1981dc61,65dbadeeedc3d103f0e373fe,,,,,,,,,,,593.6185,1,594.618,594.618,595.3016,right,1,0.6797,,595.3016,596.3013,4,1,33,0,1,total,2,images/Ex1.jpg,right,reversed,easy,1,,,,,
,,,,,63ea8ec521931832f4b6b7cb,001,24,female,british,bachelors,2024-02-25_21h16.10.429,CRL1e,2023.2.3,MacIntel,60.24096386,65dbad3905fde4fe1981dc61,65dbadeeedc3d103f0e373fe,,,,,,,,,,,596.302,1.4,597.7016,597.7017,598.4174,right,1,0.7113,,598.4174,599.4182,4,2,34,2,1,total,2,images/Ex2.jpg,right,reversed,easy,1,,,,,
,,,,,63ea8ec521931832f4b6b7cb,001,24,female,british,bachelors,2024-02-25_21h16.10.429,CRL1e,2023.2.3,MacIntel,60.24096386,65dbad3905fde4fe1981dc61,65dbadeeedc3d103f0e373fe,,,,,,,,,,,599.4188,0.9,600.3183,600.3183,600.9515,left,1,0.6211,,600.9515,601.9519,4,3,35,5,1,total,2,images/Ex3.jpg,left,reversed,easy,1,,,,,
,,,,,63ea8ec521931832f4b6b7cb,001,24,female,british,bachelors,2024-02-25_21h16.10.429,CRL1e,2023.2.3,MacIntel,60.24096386,65dbad3905fde4fe1981dc61,65dbadeeedc3d103f0e373fe,,,,,,,,,,,601.9526,0.9,602.8518,602.8519,603.5176,left,1,0.6598,,603.5177,604.5178,4,4,36,6,1,total,2,images/Ex4.jpg,left,reversed,easy,1,,,,,
,,,,,63ea8ec521931832f4b6b7cb,001,24,female,british,bachelors,2024-02-25_21h16.10.429,CRL1e,2023.2.3,MacIntel,60.24096386,65dbad3905fde4fe1981dc61,65dbadeeedc3d103f0e373fe,,,,,,,,,,,604.5187,1.1,605.6187,605.6188,606.5516,left,1,0.9268,,606.5516,607.5522,4,5,37,4,1,total,2,images/Ex3.jpg,left,reversed,easy,1,,,,,
,,,,,63ea8ec521931832f4b6b7cb,001,24,female,british,bachelors,2024-02-25_21h16.10.429,CRL1e,2023.2.3,MacIntel,60.24096386,65dbad3905fde4fe1981dc61,65dbadeeedc3d103f0e373fe,,,,,,,,,,,607.553,0.8,608.3521,608.3521,608.9684,right,1,0.6094,,608.9684,609.9688,4,6,38,1,1,total,2,images/Ex1.jpg,right,reversed,easy,1,,,,,
,,,,,63ea8ec521931832f4b6b7cb,001,24,female,british,bachelors,2024-02-25_21h16.10.429,CRL1e,2023.2.3,MacIntel,60.24096386,65dbad3905fde4fe1981dc61,65dbadeeedc3d103f0e373fe,,,,,,,,,,,609.9693,0.7,610.6687,610.6687,611.1518,left,1,0.4767,,611.1518,612.1517,4,7,39,7,1,total,2,images/Ex4.jpg,left,reversed,easy,1,,,,,
,,,,,63ea8ec521931832f4b6b7cb,001,24,female,british,bachelors,2024-02-25_21h16.10.429,CRL1e,2023.2.3,MacIntel,60.24096386,65dbad3905fde4fe1981dc61,65dbadeeedc3d103f0e373fe,,,,,,,,,,,612.152,1.2,613.3528,613.3529,613.952,right,1,0.5941,,613.9522,614.9527,5,0,40,1,1,total,2,images/Ex1.jpg,right,reversed,easy,1,,,,,
,,,,,63ea8ec521931832f4b6b7cb,001,24,female,british,bachelors,2024-02-25_21h16.10.429,CRL1e,2023.2.3,MacIntel,60.24096386,65dbad3905fde4fe1981dc61,65dbadeeedc3d103f0e373fe,,,,,,,,,,,614.9533,0.9,615.8527,615.8527,616.3858,left,1,0.5293,,616.3858,617.3862,5,1,41,7,1,total,2,images/Ex4.jpg,left,reversed,easy,1,,,,,
,,,,,63ea8ec521931832f4b6b7cb,001,24,female,british,bachelors,2024-02-25_21h16.10.429,CRL1e,2023.2.3,MacIntel,60.24096386,65dbad3905fde4fe1981dc61,65dbadeeedc3d103f0e373fe,,,,,,,,,,,617.387,1.2,618.5862,618.5863,619.3525,right,1,0.7596,,619.3525,620.3533,5,2,42,0,1,total,2,images/Ex1.jpg,right,reversed,easy,1,,,,,
,,,,,63ea8ec521931832f4b6b7cb,001,24,female,british,bachelors,2024-02-25_21h16.10.429,CRL1e,2023.2.3,MacIntel,60.24096386,65dbad3905fde4fe1981dc61,65dbadeeedc3d103f0e373fe,,,,,,,,,,,620.354,1.1,621.4532,621.4532,622.0363,left,1,0.5789,,622.0363,623.0354,5,3,43,6,1,total,2,images/Ex4.jpg,left,reversed,easy,1,,,,,
,,,,,63ea8ec521931832f4b6b7cb,001,24,female,british,bachelors,2024-02-25_21h16.10.429,CRL1e,2023.2.3,MacIntel,60.24096386,65dbad3905fde4fe1981dc61,65dbadeeedc3d103f0e373fe,,,,,,,,,,,623.0364,1.1,624.1363,624.1364,624.6695,right,1,0.5309,,624.6695,625.6699,5,4,44,3,1,total,2,images/Ex2.jpg,right,reversed,easy,1,,,,,
,,,,,63ea8ec521931832f4b6b7cb,001,24,female,british,bachelors,2024-02-25_21h16.10.429,CRL1e,2023.2.3,MacIntel,60.24096386,65dbad3905fde4fe1981dc61,65dbadeeedc3d103f0e373fe,,,,,,,,,,,625.6708,1.4,627.0701,627.0701,627.9198,left,1,0.8456,,627.9198,628.9201,5,5,45,5,1,total,2,images/Ex3.jpg,left,reversed,easy,1,,,,,
,,,,,63ea8ec521931832f4b6b7cb,001,24,female,british,bachelors,2024-02-25_21h16.10.429,CRL1e,2023.2.3,MacIntel,60.24096386,65dbad3905fde4fe1981dc61,65dbadeeedc3d103f0e373fe,,,,,,,,,,,628.9208,0.9,629.8202,629.8203,630.403,left,1,0.578,,630.403,631.4036,5,6,46,4,1,total,2,images/Ex3.jpg,left,reversed,easy,1,,,,,
,,,,,63ea8ec521931832f4b6b7cb,001,24,female,british,bachelors,2024-02-25_21h16.10.429,CRL1e,2023.2.3,MacIntel,60.24096386,65dbad3905fde4fe1981dc61,65dbadeeedc3d103f0e373fe,,,,,,,,,,,631.4042,0.7,632.103,632.103,632.838,right,1,0.7331,,632.8381,633.8381,5,7,47,2,1,total,2,images/Ex2.jpg,right,reversed,easy,1,,,,,
,,,,,63ea8ec521931832f4b6b7cb,001,24,female,british,bachelors,2024-02-25_21h16.10.429,CRL1e,2023.2.3,MacIntel,60.24096386,65dbad3905fde4fe1981dc61,65dbadeeedc3d103f0e373fe,,,,,,,,,,,,,,,,,,,,,,,,,,,,,,,,,,633.8395,661.8403,space,27.9769,