infCons.started,infCons.stopped,resp_consent.keys,resp_consent.rt,resp_consent.duration,participant,session,Age?,Gender?,Nationality?,Highest Educational Degree?,date,expName,psychopyVersion,OS,frameRate,STUDY_ID,SESSION_ID,instructions.started,instructions.stopped,resp_instructions.keys,resp_instructions.rt,resp_instructions.duration,nextTask.started,nextTask.stopped,ready_task.keys,ready_task.rt,ready_task.duration,fixation.started,ITI,fixation.stopped,stim.started,stim.stopped,response.keys,response.corr,response.rt,response.duration,feedback.started,feedback.stopped,trials.thisRepN,trials.thisTrialN,trials.thisN,trials.thisIndex,trials.ran,task,phase,Exemplars,r_correct,condition,difficulty,set,end.started,end.stopped,resp_end.keys,resp_end.rt,resp_end.duration
0.0002,20.1775,space,20.1623,,646e53ef6c1dac9a13cd2985,001,48,F,British,Undergraduate Degree,2024-02-26_18h21.19.737,CRL1e,2023.2.3,MacIntel,60.0024001,65dbad3905fde4fe1981dc61,65dcd565e7c4e5fb9b04a285,,,,,,,,,,,,,,,,,,,,,,,,,,,,,,,,,,,,,,
,,,,,646e53ef6c1dac9a13cd2985,001,48,F,British,Undergraduate Degree,2024-02-26_18h21.19.737,CRL1e,2023.2.3,MacIntel,60.0024001,65dbad3905fde4fe1981dc61,65dcd565e7c4e5fb9b04a285,20.1776,60.807,space,40.6184,,,,,,,,,,,,,,,,,,,,,,,,,,,,,,,,,,
,,,,,646e53ef6c1dac9a13cd2985,001,48,F,British,Undergraduate Degree,2024-02-26_18h21.19.737,CRL1e,2023.2.3,MacIntel,60.0024001,65dbad3905fde4fe1981dc61,65dcd565e7c4e5fb9b04a285,,,,,,60.8269,65.2548,space,4.4125,,65.2744,0.6,65.8712,65.8715,68.7377,right,0,2.8533,,68.738,69.7388,0,0,0,2,1,partial,1,images/Ex14.jpg,left,training,easy,6,,,,,
,,,,,646e53ef6c1dac9a13cd2985,001,48,F,British,Undergraduate Degree,2024-02-26_18h21.19.737,CRL1e,2023.2.3,MacIntel,60.0024001,65dbad3905fde4fe1981dc61,65dcd565e7c4e5fb9b04a285,,,,,,,,,,,69.7399,1.1,70.8387,70.8388,71.8548,right,1,1.0093,,71.8548,72.8555,0,1,1,7,1,partial,1,images/Ex16.jpg,right,training,easy,6,,,,,
,,,,,646e53ef6c1dac9a13cd2985,001,48,F,British,Undergraduate Degree,2024-02-26_18h21.19.737,CRL1e,2023.2.3,MacIntel,60.0024001,65dbad3905fde4fe1981dc61,65dcd565e7c4e5fb9b04a285,,,,,,,,,,,72.8564,1.5,74.3554,74.3555,75.372,right,0,1.0074,,75.3721,76.3725,0,2,2,1,1,partial,1,images/Ex13.jpg,left,training,easy,6,,,,,
,,,,,646e53ef6c1dac9a13cd2985,001,48,F,British,Undergraduate Degree,2024-02-26_18h21.19.737,CRL1e,2023.2.3,MacIntel,60.0024001,65dbad3905fde4fe1981dc61,65dcd565e7c4e5fb9b04a285,,,,,,,,,,,76.3735,1.4,77.772,77.772,78.7889,left,0,1.0064,,78.7889,79.7888,0,3,3,4,1,partial,1,images/Ex15.jpg,right,training,easy,6,,,,,
,,,,,646e53ef6c1dac9a13cd2985,001,48,F,British,Undergraduate Degree,2024-02-26_18h21.19.737,CRL1e,2023.2.3,MacIntel,60.0024001,65dbad3905fde4fe1981dc61,65dcd565e7c4e5fb9b04a285,,,,,,,,,,,79.7897,1,80.7888,80.7889,81.5717,left,0,0.7776,,81.5717,82.5718,0,4,4,5,1,partial,1,images/Ex15.jpg,right,training,easy,6,,,,,
,,,,,646e53ef6c1dac9a13cd2985,001,48,F,British,Undergraduate Degree,2024-02-26_18h21.19.737,CRL1e,2023.2.3,MacIntel,60.0024001,65dbad3905fde4fe1981dc61,65dcd565e7c4e5fb9b04a285,,,,,,,,,,,82.5726,0.7,83.272,83.2721,84.4053,left,1,1.1228,,84.4054,85.4058,0,5,5,0,1,partial,1,images/Ex13.jpg,left,training,easy,6,,,,,
,,,,,646e53ef6c1dac9a13cd2985,001,48,F,British,Undergraduate Degree,2024-02-26_18h21.19.737,CRL1e,2023.2.3,MacIntel,60.0024001,65dbad3905fde4fe1981dc61,65dcd565e7c4e5fb9b04a285,,,,,,,,,,,85.4067,0.5,85.9057,85.9057,87.5721,left,1,1.6564,,87.5722,88.5718,0,6,6,3,1,partial,1,images/Ex14.jpg,left,training,easy,6,,,,,
,,,,,646e53ef6c1dac9a13cd2985,001,48,F,British,Undergraduate Degree,2024-02-26_18h21.19.737,CRL1e,2023.2.3,MacIntel,60.0024001,65dbad3905fde4fe1981dc61,65dcd565e7c4e5fb9b04a285,,,,,,,,,,,88.5725,1.5,90.0719,90.0719,92.2738,left,0,2.1925,,92.2739,93.2735,0,7,7,6,1,partial,1,images/Ex16.jpg,right,training,easy,6,,,,,
,,,,,646e53ef6c1dac9a13cd2985,001,48,F,British,Undergraduate Degree,2024-02-26_18h21.19.737,CRL1e,2023.2.3,MacIntel,60.0024001,65dbad3905fde4fe1981dc61,65dcd565e7c4e5fb9b04a285,,,,,,,,,,,93.2843,1.1,94.373,94.3731,95.2728,right,1,0.8902,,95.2729,96.273,1,0,8,6,1,partial,1,images/Ex16.jpg,right,training,easy,6,,,,,
,,,,,646e53ef6c1dac9a13cd2985,001,48,F,British,Undergraduate Degree,2024-02-26_18h21.19.737,CRL1e,2023.2.3,MacIntel,60.0024001,65dbad3905fde4fe1981dc61,65dcd565e7c4e5fb9b04a285,,,,,,,,,,,96.2738,1.4,97.6728,97.6729,98.9894,right,0,1.3075,,98.9895,99.9893,1,1,9,2,1,partial,1,images/Ex14.jpg,left,training,easy,6,,,,,
,,,,,646e53ef6c1dac9a13cd2985,001,48,F,British,Undergraduate Degree,2024-02-26_18h21.19.737,CRL1e,2023.2.3,MacIntel,60.0024001,65dbad3905fde4fe1981dc61,65dcd565e7c4e5fb9b04a285,,,,,,,,,,,99.9902,0.6,100.5896,100.5896,101.7565,right,1,1.1596,,101.7566,102.7561,1,2,10,7,1,partial,1,images/Ex16.jpg,right,training,easy,6,,,,,
,,,,,646e53ef6c1dac9a13cd2985,001,48,F,British,Undergraduate Degree,2024-02-26_18h21.19.737,CRL1e,2023.2.3,MacIntel,60.0024001,65dbad3905fde4fe1981dc61,65dcd565e7c4e5fb9b04a285,,,,,,,,,,,102.7569,1.4,104.1566,104.1567,104.7225,left,1,0.5572,,104.7225,105.7221,1,3,11,3,1,partial,1,images/Ex14.jpg,left,training,easy,6,,,,,
,,,,,646e53ef6c1dac9a13cd2985,001,48,F,British,Undergraduate Degree,2024-02-26_18h21.19.737,CRL1e,2023.2.3,MacIntel,60.0024001,65dbad3905fde4fe1981dc61,65dcd565e7c4e5fb9b04a285,,,,,,,,,,,105.7223,1.3,107.0218,107.0219,107.9053,left,1,0.8742,,107.9055,108.9061,1,4,12,1,1,partial,1,images/Ex13.jpg,left,training,easy,6,,,,,
,,,,,646e53ef6c1dac9a13cd2985,001,48,F,British,Undergraduate Degree,2024-02-26_18h21.19.737,CRL1e,2023.2.3,MacIntel,60.0024001,65dbad3905fde4fe1981dc61,65dcd565e7c4e5fb9b04a285,,,,,,,,,,,108.9069,0.6,109.5058,109.5058,110.508,left,0,0.9936,,110.508,111.5074,1,5,13,4,1,partial,1,images/Ex15.jpg,right,training,easy,6,,,,,
,,,,,646e53ef6c1dac9a13cd2985,001,48,F,British,Undergraduate Degree,2024-02-26_18h21.19.737,CRL1e,2023.2.3,MacIntel,60.0024001,65dbad3905fde4fe1981dc61,65dcd565e7c4e5fb9b04a285,,,,,,,,,,,111.5082,0.8,112.3073,112.3074,113.5911,right,1,1.2744,,113.5912,114.5911,1,6,14,5,1,partial,1,images/Ex15.jpg,right,training,easy,6,,,,,
,,,,,646e53ef6c1dac9a13cd2985,001,48,F,British,Undergraduate Degree,2024-02-26_18h21.19.737,CRL1e,2023.2.3,MacIntel,60.0024001,65dbad3905fde4fe1981dc61,65dcd565e7c4e5fb9b04a285,,,,,,,,,,,114.5919,1,115.5905,115.5906,116.8071,right,0,1.2127,,116.8072,117.8068,1,7,15,0,1,partial,1,images/Ex13.jpg,left,training,easy,6,,,,,
,,,,,646e53ef6c1dac9a13cd2985,001,48,F,British,Undergraduate Degree,2024-02-26_18h21.19.737,CRL1e,2023.2.3,MacIntel,60.0024001,65dbad3905fde4fe1981dc61,65dcd565e7c4e5fb9b04a285,,,,,,,,,,,117.8076,0.7,118.5075,118.5075,119.5404,right,1,1.0282,,119.5404,120.5405,2,0,16,5,1,partial,1,images/Ex15.jpg,right,training,easy,6,,,,,
,,,,,646e53ef6c1dac9a13cd2985,001,48,F,British,Undergraduate Degree,2024-02-26_18h21.19.737,CRL1e,2023.2.3,MacIntel,60.0024001,65dbad3905fde4fe1981dc61,65dcd565e7c4e5fb9b04a285,,,,,,,,,,,120.5412,1.2,121.7408,121.7408,122.4732,left,1,0.7223,,122.4732,123.4738,2,1,17,0,1,partial,1,images/Ex13.jpg,left,training,easy,6,,,,,
,,,,,646e53ef6c1dac9a13cd2985,001,48,F,British,Undergraduate Degree,2024-02-26_18h21.19.737,CRL1e,2023.2.3,MacIntel,60.0024001,65dbad3905fde4fe1981dc61,65dcd565e7c4e5fb9b04a285,,,,,,,,,,,123.4746,1,124.474,124.4741,125.1564,right,1,0.678,,125.1565,126.1571,2,2,18,4,1,partial,1,images/Ex15.jpg,right,training,easy,6,,,,,
,,,,,646e53ef6c1dac9a13cd2985,001,48,F,British,Undergraduate Degree,2024-02-26_18h21.19.737,CRL1e,2023.2.3,MacIntel,60.0024001,65dbad3905fde4fe1981dc61,65dcd565e7c4e5fb9b04a285,,,,,,,,,,,126.1579,0.5,126.6569,126.657,127.973,left,1,1.3075,,127.9731,128.973,2,3,19,1,1,partial,1,images/Ex13.jpg,left,training,easy,6,,,,,
,,,,,646e53ef6c1dac9a13cd2985,001,48,F,British,Undergraduate Degree,2024-02-26_18h21.19.737,CRL1e,2023.2.3,MacIntel,60.0024001,65dbad3905fde4fe1981dc61,65dcd565e7c4e5fb9b04a285,,,,,,,,,,,128.9852,0.8,129.773,129.7732,131.8253,left,0,2.0501,,131.8254,132.8253,2,4,20,7,1,partial,1,images/Ex16.jpg,right,training,easy,6,,,,,
,,,,,646e53ef6c1dac9a13cd2985,001,48,F,British,Undergraduate Degree,2024-02-26_18h21.19.737,CRL1e,2023.2.3,MacIntel,60.0024001,65dbad3905fde4fe1981dc61,65dcd565e7c4e5fb9b04a285,,,,,,,,,,,132.8261,1.2,134.0248,134.0249,134.6586,right,1,0.6245,,134.6587,135.6582,2,5,21,6,1,partial,1,images/Ex16.jpg,right,training,easy,6,,,,,
,,,,,646e53ef6c1dac9a13cd2985,001,48,F,British,Undergraduate Degree,2024-02-26_18h21.19.737,CRL1e,2023.2.3,MacIntel,60.0024001,65dbad3905fde4fe1981dc61,65dcd565e7c4e5fb9b04a285,,,,,,,,,,,135.6589,1.4,137.0577,137.0578,138.0411,right,0,0.9787,,138.0412,139.041,2,6,22,2,1,partial,1,images/Ex14.jpg,left,training,easy,6,,,,,
,,,,,646e53ef6c1dac9a13cd2985,001,48,F,British,Undergraduate Degree,2024-02-26_18h21.19.737,CRL1e,2023.2.3,MacIntel,60.0024001,65dbad3905fde4fe1981dc61,65dcd565e7c4e5fb9b04a285,,,,,,,,,,,139.0415,1.3,140.3405,140.3406,141.441,left,1,1.0934,,141.441,142.4412,2,7,23,3,1,partial,1,images/Ex14.jpg,left,training,easy,6,,,,,
,,,,,646e53ef6c1dac9a13cd2985,001,48,F,British,Undergraduate Degree,2024-02-26_18h21.19.737,CRL1e,2023.2.3,MacIntel,60.0024001,65dbad3905fde4fe1981dc61,65dcd565e7c4e5fb9b04a285,,,,,,,,,,,142.442,1.3,143.7416,143.7417,144.5578,left,1,0.8073,,144.5579,145.5579,3,0,24,0,1,partial,1,images/Ex13.jpg,left,training,easy,6,,,,,
,,,,,646e53ef6c1dac9a13cd2985,001,48,F,British,Undergraduate Degree,2024-02-26_18h21.19.737,CRL1e,2023.2.3,MacIntel,60.0024001,65dbad3905fde4fe1981dc61,65dcd565e7c4e5fb9b04a285,,,,,,,,,,,145.5585,1.1,146.6581,146.6582,147.3238,left,0,0.6568,,147.3239,148.3246,3,1,25,6,1,partial,1,images/Ex16.jpg,right,training,easy,6,,,,,
,,,,,646e53ef6c1dac9a13cd2985,001,48,F,British,Undergraduate Degree,2024-02-26_18h21.19.737,CRL1e,2023.2.3,MacIntel,60.0024001,65dbad3905fde4fe1981dc61,65dcd565e7c4e5fb9b04a285,,,,,,,,,,,148.3252,0.5,148.8242,148.8242,149.7746,left,0,0.9406,,149.7747,150.7758,3,2,26,4,1,partial,1,images/Ex15.jpg,right,training,easy,6,,,,,
,,,,,646e53ef6c1dac9a13cd2985,001,48,F,British,Undergraduate Degree,2024-02-26_18h21.19.737,CRL1e,2023.2.3,MacIntel,60.0024001,65dbad3905fde4fe1981dc61,65dcd565e7c4e5fb9b04a285,,,,,,,,,,,150.7765,1,151.7754,151.7754,152.4419,right,1,0.6585,,152.4419,153.4416,3,3,27,5,1,partial,1,images/Ex15.jpg,right,training,easy,6,,,,,
,,,,,646e53ef6c1dac9a13cd2985,001,48,F,British,Undergraduate Degree,2024-02-26_18h21.19.737,CRL1e,2023.2.3,MacIntel,60.0024001,65dbad3905fde4fe1981dc61,65dcd565e7c4e5fb9b04a285,,,,,,,,,,,153.4425,1.3,154.742,154.742,155.3751,left,1,0.6242,,155.3751,156.3755,3,4,28,2,1,partial,1,images/Ex14.jpg,left,training,easy,6,,,,,
,,,,,646e53ef6c1dac9a13cd2985,001,48,F,British,Undergraduate Degree,2024-02-26_18h21.19.737,CRL1e,2023.2.3,MacIntel,60.0024001,65dbad3905fde4fe1981dc61,65dcd565e7c4e5fb9b04a285,,,,,,,,,,,156.3764,0.5,156.8757,156.8758,157.7256,right,1,0.8409,,157.7258,158.725,3,5,29,7,1,partial,1,images/Ex16.jpg,right,training,easy,6,,,,,
,,,,,646e53ef6c1dac9a13cd2985,001,48,F,British,Undergraduate Degree,2024-02-26_18h21.19.737,CRL1e,2023.2.3,MacIntel,60.0024001,65dbad3905fde4fe1981dc61,65dcd565e7c4e5fb9b04a285,,,,,,,,,,,158.7258,1.1,159.8258,159.8258,160.4924,left,1,0.6568,,160.4924,161.4917,3,6,30,3,1,partial,1,images/Ex14.jpg,left,training,easy,6,,,,,
,,,,,646e53ef6c1dac9a13cd2985,001,48,F,British,Undergraduate Degree,2024-02-26_18h21.19.737,CRL1e,2023.2.3,MacIntel,60.0024001,65dbad3905fde4fe1981dc61,65dcd565e7c4e5fb9b04a285,,,,,,,,,,,161.4926,1,162.4919,162.492,163.3921,left,1,0.8933,,163.3922,164.3916,3,7,31,1,1,partial,1,images/Ex13.jpg,left,training,easy,6,,,,,
,,,,,646e53ef6c1dac9a13cd2985,001,48,F,British,Undergraduate Degree,2024-02-26_18h21.19.737,CRL1e,2023.2.3,MacIntel,60.0024001,65dbad3905fde4fe1981dc61,65dcd565e7c4e5fb9b04a285,,,,,,,,,,,164.3926,1.1,165.4915,165.4917,166.2082,left,1,0.7083,,166.2083,167.2081,4,0,32,2,1,partial,1,images/Ex14.jpg,left,training,easy,6,,,,,
,,,,,646e53ef6c1dac9a13cd2985,001,48,F,British,Undergraduate Degree,2024-02-26_18h21.19.737,CRL1e,2023.2.3,MacIntel,60.0024001,65dbad3905fde4fe1981dc61,65dcd565e7c4e5fb9b04a285,,,,,,,,,,,167.2088,1,168.2081,168.2082,168.8253,left,1,0.6128,,168.8253,169.8252,4,1,33,0,1,partial,1,images/Ex13.jpg,left,training,easy,6,,,,,
,,,,,646e53ef6c1dac9a13cd2985,001,48,F,British,Undergraduate Degree,2024-02-26_18h21.19.737,CRL1e,2023.2.3,MacIntel,60.0024001,65dbad3905fde4fe1981dc61,65dcd565e7c4e5fb9b04a285,,,,,,,,,,,169.8259,1.4,171.2267,171.2267,171.8594,left,0,0.6242,,171.8594,172.8593,4,2,34,7,1,partial,1,images/Ex16.jpg,right,training,easy,6,,,,,
,,,,,646e53ef6c1dac9a13cd2985,001,48,F,British,Undergraduate Degree,2024-02-26_18h21.19.737,CRL1e,2023.2.3,MacIntel,60.0024001,65dbad3905fde4fe1981dc61,65dcd565e7c4e5fb9b04a285,,,,,,,,,,,172.86,1.1,173.9598,173.9599,174.5266,right,1,0.5582,,174.5266,175.5263,4,3,35,6,1,partial,1,images/Ex16.jpg,right,training,easy,6,,,,,
,,,,,646e53ef6c1dac9a13cd2985,001,48,F,British,Undergraduate Degree,2024-02-26_18h21.19.737,CRL1e,2023.2.3,MacIntel,60.0024001,65dbad3905fde4fe1981dc61,65dcd565e7c4e5fb9b04a285,,,,,,,,,,,175.527,0.5,176.0268,176.0268,176.8593,right,1,0.829,,176.8593,177.8596,4,4,36,4,1,partial,1,images/Ex15.jpg,right,training,easy,6,,,,,
,,,,,646e53ef6c1dac9a13cd2985,001,48,F,British,Undergraduate Degree,2024-02-26_18h21.19.737,CRL1e,2023.2.3,MacIntel,60.0024001,65dbad3905fde4fe1981dc61,65dcd565e7c4e5fb9b04a285,,,,,,,,,,,177.8603,1.3,179.1591,179.1592,179.8092,right,1,0.641,,179.8092,180.8088,4,5,37,5,1,partial,1,images/Ex15.jpg,right,training,easy,6,,,,,
,,,,,646e53ef6c1dac9a13cd2985,001,48,F,British,Undergraduate Degree,2024-02-26_18h21.19.737,CRL1e,2023.2.3,MacIntel,60.0024001,65dbad3905fde4fe1981dc61,65dcd565e7c4e5fb9b04a285,,,,,,,,,,,180.8095,1.5,182.3099,182.3099,182.8753,left,1,0.5583,,182.8754,183.8758,4,6,38,3,1,partial,1,images/Ex14.jpg,left,training,easy,6,,,,,
,,,,,646e53ef6c1dac9a13cd2985,001,48,F,British,Undergraduate Degree,2024-02-26_18h21.19.737,CRL1e,2023.2.3,MacIntel,60.0024001,65dbad3905fde4fe1981dc61,65dcd565e7c4e5fb9b04a285,,,,,,,,,,,183.8767,0.6,184.4756,184.4757,185.0087,left,1,0.5235,,185.0088,186.0096,4,7,39,1,1,partial,1,images/Ex13.jpg,left,training,easy,6,,,,,
,,,,,646e53ef6c1dac9a13cd2985,001,48,F,British,Undergraduate Degree,2024-02-26_18h21.19.737,CRL1e,2023.2.3,MacIntel,60.0024001,65dbad3905fde4fe1981dc61,65dcd565e7c4e5fb9b04a285,,,,,,,,,,,186.0103,1.2,187.2094,187.2094,187.7426,left,1,0.5301,,187.7427,188.7424,5,0,40,2,1,partial,1,images/Ex14.jpg,left,training,easy,6,,,,,
,,,,,646e53ef6c1dac9a13cd2985,001,48,F,British,Undergraduate Degree,2024-02-26_18h21.19.737,CRL1e,2023.2.3,MacIntel,60.0024001,65dbad3905fde4fe1981dc61,65dcd565e7c4e5fb9b04a285,,,,,,,,,,,188.7431,0.8,189.5428,189.5429,190.125,right,0,0.5729,,190.1251,191.1276,5,1,41,0,1,partial,1,images/Ex13.jpg,left,training,easy,6,,,,,
,,,,,646e53ef6c1dac9a13cd2985,001,48,F,British,Undergraduate Degree,2024-02-26_18h21.19.737,CRL1e,2023.2.3,MacIntel,60.0024001,65dbad3905fde4fe1981dc61,65dcd565e7c4e5fb9b04a285,,,,,,,,,,,191.1284,1.5,192.6269,192.627,193.3435,right,1,0.7067,,193.3435,194.3436,5,2,42,5,1,partial,1,images/Ex15.jpg,right,training,easy,6,,,,,
,,,,,646e53ef6c1dac9a13cd2985,001,48,F,British,Undergraduate Degree,2024-02-26_18h21.19.737,CRL1e,2023.2.3,MacIntel,60.0024001,65dbad3905fde4fe1981dc61,65dcd565e7c4e5fb9b04a285,,,,,,,,,,,194.3444,1,195.3429,195.3429,195.9266,left,1,0.5768,,195.9267,196.9268,5,3,43,3,1,partial,1,images/Ex14.jpg,left,training,easy,6,,,,,
,,,,,646e53ef6c1dac9a13cd2985,001,48,F,British,Undergraduate Degree,2024-02-26_18h21.19.737,CRL1e,2023.2.3,MacIntel,60.0024001,65dbad3905fde4fe1981dc61,65dcd565e7c4e5fb9b04a285,,,,,,,,,,,196.9277,1.1,198.0265,198.0265,198.7928,right,1,0.7573,,198.7929,199.7933,5,4,44,7,1,partial,1,images/Ex16.jpg,right,training,easy,6,,,,,
,,,,,646e53ef6c1dac9a13cd2985,001,48,F,British,Undergraduate Degree,2024-02-26_18h21.19.737,CRL1e,2023.2.3,MacIntel,60.0024001,65dbad3905fde4fe1981dc61,65dcd565e7c4e5fb9b04a285,,,,,,,,,,,199.7942,1.4,201.1931,201.1933,201.7936,right,1,0.5923,,201.7937,202.794,5,5,45,6,1,partial,1,images/Ex16.jpg,right,training,easy,6,,,,,
,,,,,646e53ef6c1dac9a13cd2985,001,48,F,British,Undergraduate Degree,2024-02-26_18h21.19.737,CRL1e,2023.2.3,MacIntel,60.0024001,65dbad3905fde4fe1981dc61,65dcd565e7c4e5fb9b04a285,,,,,,,,,,,202.7947,0.7,203.4933,203.4933,204.1604,right,1,0.657,,204.1604,205.1603,5,6,46,4,1,partial,1,images/Ex15.jpg,right,training,easy,6,,,,,
,,,,,646e53ef6c1dac9a13cd2985,001,48,F,British,Undergraduate Degree,2024-02-26_18h21.19.737,CRL1e,2023.2.3,MacIntel,60.0024001,65dbad3905fde4fe1981dc61,65dcd565e7c4e5fb9b04a285,,,,,,,,,,,205.1611,1.1,206.2603,206.2604,206.893,left,1,0.627,,206.893,207.8933,5,7,47,1,1,partial,1,images/Ex13.jpg,left,training,easy,6,,,,,
,,,,,646e53ef6c1dac9a13cd2985,001,48,F,British,Undergraduate Degree,2024-02-26_18h21.19.737,CRL1e,2023.2.3,MacIntel,60.0024001,65dbad3905fde4fe1981dc61,65dcd565e7c4e5fb9b04a285,,,,,,,,,,,207.8986,1.4,209.2931,209.2932,209.7762,left,0,0.4761,,209.7763,210.7782,0,0,0,0,1,partial,2,images/Ex13.jpg,right,reversed,easy,6,,,,,
,,,,,646e53ef6c1dac9a13cd2985,001,48,F,British,Undergraduate Degree,2024-02-26_18h21.19.737,CRL1e,2023.2.3,MacIntel,60.0024001,65dbad3905fde4fe1981dc61,65dcd565e7c4e5fb9b04a285,,,,,,,,,,,210.7794,0.6,211.3779,211.378,211.9779,left,1,0.5905,,211.9779,212.9778,0,1,1,3,1,partial,2,images/Ex14.jpg,left,nonreversed,easy,6,,,,,
,,,,,646e53ef6c1dac9a13cd2985,001,48,F,British,Undergraduate Degree,2024-02-26_18h21.19.737,CRL1e,2023.2.3,MacIntel,60.0024001,65dbad3905fde4fe1981dc61,65dcd565e7c4e5fb9b04a285,,,,,,,,,,,212.9785,1.2,214.1776,214.1777,214.8607,right,1,0.6738,,214.8608,215.8607,0,2,2,7,1,partial,2,images/Ex16.jpg,right,nonreversed,easy,6,,,,,
,,,,,646e53ef6c1dac9a13cd2985,001,48,F,British,Undergraduate Degree,2024-02-26_18h21.19.737,CRL1e,2023.2.3,MacIntel,60.0024001,65dbad3905fde4fe1981dc61,65dcd565e7c4e5fb9b04a285,,,,,,,,,,,215.8615,1.2,217.0615,217.0616,217.6611,right,0,0.5899,,217.6611,218.6612,0,3,3,4,1,partial,2,images/Ex15.jpg,left,reversed,easy,6,,,,,
,,,,,646e53ef6c1dac9a13cd2985,001,48,F,British,Undergraduate Degree,2024-02-26_18h21.19.737,CRL1e,2023.2.3,MacIntel,60.0024001,65dbad3905fde4fe1981dc61,65dcd565e7c4e5fb9b04a285,,,,,,,,,,,218.6618,1.3,219.9614,219.9615,220.5113,left,1,0.5415,,220.5114,221.5112,0,4,4,2,1,partial,2,images/Ex14.jpg,left,nonreversed,easy,6,,,,,
,,,,,646e53ef6c1dac9a13cd2985,001,48,F,British,Undergraduate Degree,2024-02-26_18h21.19.737,CRL1e,2023.2.3,MacIntel,60.0024001,65dbad3905fde4fe1981dc61,65dcd565e7c4e5fb9b04a285,,,,,,,,,,,221.5122,1.1,222.61,222.61,223.277,right,0,0.6586,,223.2771,224.2779,0,5,5,5,1,partial,2,images/Ex15.jpg,left,reversed,easy,6,,,,,
,,,,,646e53ef6c1dac9a13cd2985,001,48,F,British,Undergraduate Degree,2024-02-26_18h21.19.737,CRL1e,2023.2.3,MacIntel,60.0024001,65dbad3905fde4fe1981dc61,65dcd565e7c4e5fb9b04a285,,,,,,,,,,,224.2786,0.5,224.7779,224.7779,225.5115,left,0,0.7237,,225.5115,226.5112,0,6,6,1,1,partial,2,images/Ex13.jpg,right,reversed,easy,6,,,,,
,,,,,646e53ef6c1dac9a13cd2985,001,48,F,British,Undergraduate Degree,2024-02-26_18h21.19.737,CRL1e,2023.2.3,MacIntel,60.0024001,65dbad3905fde4fe1981dc61,65dcd565e7c4e5fb9b04a285,,,,,,,,,,,226.5121,1.3,227.8107,227.8109,228.8112,left,0,0.9909,,228.8113,229.8106,0,7,7,6,1,partial,2,images/Ex16.jpg,right,nonreversed,easy,6,,,,,
,,,,,646e53ef6c1dac9a13cd2985,001,48,F,British,Undergraduate Degree,2024-02-26_18h21.19.737,CRL1e,2023.2.3,MacIntel,60.0024001,65dbad3905fde4fe1981dc61,65dcd565e7c4e5fb9b04a285,,,,,,,,,,,229.8114,1,230.8124,230.8124,231.7624,right,1,0.9409,,231.7625,232.7617,1,0,8,7,1,partial,2,images/Ex16.jpg,right,nonreversed,easy,6,,,,,
,,,,,646e53ef6c1dac9a13cd2985,001,48,F,British,Undergraduate Degree,2024-02-26_18h21.19.737,CRL1e,2023.2.3,MacIntel,60.0024001,65dbad3905fde4fe1981dc61,65dcd565e7c4e5fb9b04a285,,,,,,,,,,,232.7625,0.7,233.4614,233.4615,234.145,left,1,0.6753,,234.1451,235.1458,1,1,9,3,1,partial,2,images/Ex14.jpg,left,nonreversed,easy,6,,,,,
,,,,,646e53ef6c1dac9a13cd2985,001,48,F,British,Undergraduate Degree,2024-02-26_18h21.19.737,CRL1e,2023.2.3,MacIntel,60.0024001,65dbad3905fde4fe1981dc61,65dcd565e7c4e5fb9b04a285,,,,,,,,,,,235.1467,0.5,235.6453,235.6453,236.1788,right,1,0.5242,,236.1788,237.1783,1,2,10,6,1,partial,2,images/Ex16.jpg,right,nonreversed,easy,6,,,,,
,,,,,646e53ef6c1dac9a13cd2985,001,48,F,British,Undergraduate Degree,2024-02-26_18h21.19.737,CRL1e,2023.2.3,MacIntel,60.0024001,65dbad3905fde4fe1981dc61,65dcd565e7c4e5fb9b04a285,,,,,,,,,,,237.179,0.8,237.9785,237.9786,238.6952,left,1,0.7117,,238.6953,239.6956,1,3,11,2,1,partial,2,images/Ex14.jpg,left,nonreversed,easy,6,,,,,
,,,,,646e53ef6c1dac9a13cd2985,001,48,F,British,Undergraduate Degree,2024-02-26_18h21.19.737,CRL1e,2023.2.3,MacIntel,60.0024001,65dbad3905fde4fe1981dc61,65dcd565e7c4e5fb9b04a285,,,,,,,,,,,239.6965,0.7,240.3953,240.3954,241.0457,right,0,0.6446,,241.0457,242.0456,1,4,12,5,1,partial,2,images/Ex15.jpg,left,reversed,easy,6,,,,,
,,,,,646e53ef6c1dac9a13cd2985,001,48,F,British,Undergraduate Degree,2024-02-26_18h21.19.737,CRL1e,2023.2.3,MacIntel,60.0024001,65dbad3905fde4fe1981dc61,65dcd565e7c4e5fb9b04a285,,,,,,,,,,,242.0465,0.6,242.6454,242.6454,243.5122,left,0,0.8568,,243.5122,244.5118,1,5,13,1,1,partial,2,images/Ex13.jpg,right,reversed,easy,6,,,,,
,,,,,646e53ef6c1dac9a13cd2985,001,48,F,British,Undergraduate Degree,2024-02-26_18h21.19.737,CRL1e,2023.2.3,MacIntel,60.0024001,65dbad3905fde4fe1981dc61,65dcd565e7c4e5fb9b04a285,,,,,,,,,,,244.5127,1.2,245.7113,245.7115,246.5284,left,1,0.8073,,246.5285,247.5283,1,6,14,4,1,partial,2,images/Ex15.jpg,left,reversed,easy,6,,,,,
,,,,,646e53ef6c1dac9a13cd2985,001,48,F,British,Undergraduate Degree,2024-02-26_18h21.19.737,CRL1e,2023.2.3,MacIntel,60.0024001,65dbad3905fde4fe1981dc61,65dcd565e7c4e5fb9b04a285,,,,,,,,,,,247.5291,0.9,248.4285,248.4285,249.311,left,0,0.8758,,249.3111,250.3115,1,7,15,0,1,partial,2,images/Ex13.jpg,right,reversed,easy,6,,,,,
,,,,,646e53ef6c1dac9a13cd2985,001,48,F,British,Undergraduate Degree,2024-02-26_18h21.19.737,CRL1e,2023.2.3,MacIntel,60.0024001,65dbad3905fde4fe1981dc61,65dcd565e7c4e5fb9b04a285,,,,,,,,,,,250.312,0.7,251.0124,251.0124,251.9127,left,1,0.8921,,251.9127,252.9132,2,0,16,4,1,partial,2,images/Ex15.jpg,left,reversed,easy,6,,,,,
,,,,,646e53ef6c1dac9a13cd2985,001,48,F,British,Undergraduate Degree,2024-02-26_18h21.19.737,CRL1e,2023.2.3,MacIntel,60.0024001,65dbad3905fde4fe1981dc61,65dcd565e7c4e5fb9b04a285,,,,,,,,,,,252.9137,1.2,254.1133,254.1134,254.9631,left,0,0.8441,,254.9632,255.9628,2,1,17,7,1,partial,2,images/Ex16.jpg,right,nonreversed,easy,6,,,,,
,,,,,646e53ef6c1dac9a13cd2985,001,48,F,British,Undergraduate Degree,2024-02-26_18h21.19.737,CRL1e,2023.2.3,MacIntel,60.0024001,65dbad3905fde4fe1981dc61,65dcd565e7c4e5fb9b04a285,,,,,,,,,,,255.9635,0.8,256.762,256.762,257.646,right,0,0.8776,,257.646,258.6459,2,2,18,3,1,partial,2,images/Ex14.jpg,left,nonreversed,easy,6,,,,,
,,,,,646e53ef6c1dac9a13cd2985,001,48,F,British,Undergraduate Degree,2024-02-26_18h21.19.737,CRL1e,2023.2.3,MacIntel,60.0024001,65dbad3905fde4fe1981dc61,65dcd565e7c4e5fb9b04a285,,,,,,,,,,,258.6465,0.5,259.1458,259.1459,259.8787,left,1,0.724,,259.8788,260.8792,2,3,19,2,1,partial,2,images/Ex14.jpg,left,nonreversed,easy,6,,,,,
,,,,,646e53ef6c1dac9a13cd2985,001,48,F,British,Undergraduate Degree,2024-02-26_18h21.19.737,CRL1e,2023.2.3,MacIntel,60.0024001,65dbad3905fde4fe1981dc61,65dcd565e7c4e5fb9b04a285,,,,,,,,,,,260.8797,1.1,261.9794,261.9795,262.7455,right,1,0.7627,,262.7456,263.7458,2,4,20,0,1,partial,2,images/Ex13.jpg,right,reversed,easy,6,,,,,
,,,,,646e53ef6c1dac9a13cd2985,001,48,F,British,Undergraduate Degree,2024-02-26_18h21.19.737,CRL1e,2023.2.3,MacIntel,60.0024001,65dbad3905fde4fe1981dc61,65dcd565e7c4e5fb9b04a285,,,,,,,,,,,263.7465,1.1,264.8448,264.8448,265.8116,right,0,0.9576,,265.8116,266.8124,2,5,21,5,1,partial,2,images/Ex15.jpg,left,reversed,easy,6,,,,,
,,,,,646e53ef6c1dac9a13cd2985,001,48,F,British,Undergraduate Degree,2024-02-26_18h21.19.737,CRL1e,2023.2.3,MacIntel,60.0024001,65dbad3905fde4fe1981dc61,65dcd565e7c4e5fb9b04a285,,,,,,,,,,,266.8131,1.4,268.2119,268.212,269.1802,right,1,0.9651,,269.1803,270.1792,2,6,22,1,1,partial,2,images/Ex13.jpg,right,reversed,easy,6,,,,,
,,,,,646e53ef6c1dac9a13cd2985,001,48,F,British,Undergraduate Degree,2024-02-26_18h21.19.737,CRL1e,2023.2.3,MacIntel,60.0024001,65dbad3905fde4fe1981dc61,65dcd565e7c4e5fb9b04a285,,,,,,,,,,,270.1803,0.9,271.0792,271.0793,272.3636,right,1,1.2769,,272.3636,273.3641,2,7,23,6,1,partial,2,images/Ex16.jpg,right,nonreversed,easy,6,,,,,
,,,,,646e53ef6c1dac9a13cd2985,001,48,F,British,Undergraduate Degree,2024-02-26_18h21.19.737,CRL1e,2023.2.3,MacIntel,60.0024001,65dbad3905fde4fe1981dc61,65dcd565e7c4e5fb9b04a285,,,,,,,,,,,273.3649,1,274.3642,274.3642,275.2472,right,1,0.8711,,275.2472,276.2474,3,0,24,0,1,partial,2,images/Ex13.jpg,right,reversed,easy,6,,,,,
,,,,,646e53ef6c1dac9a13cd2985,001,48,F,British,Undergraduate Degree,2024-02-26_18h21.19.737,CRL1e,2023.2.3,MacIntel,60.0024001,65dbad3905fde4fe1981dc61,65dcd565e7c4e5fb9b04a285,,,,,,,,,,,276.2481,0.9,277.1461,277.1462,278.3463,right,0,1.1936,,278.3463,279.3471,3,1,25,5,1,partial,2,images/Ex15.jpg,left,reversed,easy,6,,,,,
,,,,,646e53ef6c1dac9a13cd2985,001,48,F,British,Undergraduate Degree,2024-02-26_18h21.19.737,CRL1e,2023.2.3,MacIntel,60.0024001,65dbad3905fde4fe1981dc61,65dcd565e7c4e5fb9b04a285,,,,,,,,,,,279.3478,0.9,280.2468,280.2468,281.0297,right,1,0.7779,,281.0297,282.0301,3,2,26,6,1,partial,2,images/Ex16.jpg,right,nonreversed,easy,6,,,,,
,,,,,646e53ef6c1dac9a13cd2985,001,48,F,British,Undergraduate Degree,2024-02-26_18h21.19.737,CRL1e,2023.2.3,MacIntel,60.0024001,65dbad3905fde4fe1981dc61,65dcd565e7c4e5fb9b04a285,,,,,,,,,,,282.0307,0.7,282.7295,282.7296,283.5136,right,1,0.775,,283.5136,284.5132,3,3,27,7,1,partial,2,images/Ex16.jpg,right,nonreversed,easy,6,,,,,
,,,,,646e53ef6c1dac9a13cd2985,001,48,F,British,Undergraduate Degree,2024-02-26_18h21.19.737,CRL1e,2023.2.3,MacIntel,60.0024001,65dbad3905fde4fe1981dc61,65dcd565e7c4e5fb9b04a285,,,,,,,,,,,284.5139,0.7,285.2131,285.2132,286.1466,right,0,0.9234,,286.1467,287.1463,3,4,28,2,1,partial,2,images/Ex14.jpg,left,nonreversed,easy,6,,,,,
,,,,,646e53ef6c1dac9a13cd2985,001,48,F,British,Undergraduate Degree,2024-02-26_18h21.19.737,CRL1e,2023.2.3,MacIntel,60.0024001,65dbad3905fde4fe1981dc61,65dcd565e7c4e5fb9b04a285,,,,,,,,,,,287.147,1.1,288.2464,288.2466,289.263,left,1,1.0078,,289.263,290.2633,3,5,29,4,1,partial,2,images/Ex15.jpg,left,reversed,easy,6,,,,,
,,,,,646e53ef6c1dac9a13cd2985,001,48,F,British,Undergraduate Degree,2024-02-26_18h21.19.737,CRL1e,2023.2.3,MacIntel,60.0024001,65dbad3905fde4fe1981dc61,65dcd565e7c4e5fb9b04a285,,,,,,,,,,,290.2641,1.4,291.6645,291.6645,292.4139,left,1,0.7413,,292.4139,293.4147,3,6,30,3,1,partial,2,images/Ex14.jpg,left,nonreversed,easy,6,,,,,
,,,,,646e53ef6c1dac9a13cd2985,001,48,F,British,Undergraduate Degree,2024-02-26_18h21.19.737,CRL1e,2023.2.3,MacIntel,60.0024001,65dbad3905fde4fe1981dc61,65dcd565e7c4e5fb9b04a285,,,,,,,,,,,293.4153,1.4,294.815,294.815,295.7305,right,1,0.9097,,295.7306,296.7306,3,7,31,1,1,partial,2,images/Ex13.jpg,right,reversed,easy,6,,,,,
,,,,,646e53ef6c1dac9a13cd2985,001,48,F,British,Undergraduate Degree,2024-02-26_18h21.19.737,CRL1e,2023.2.3,MacIntel,60.0024001,65dbad3905fde4fe1981dc61,65dcd565e7c4e5fb9b04a285,,,,,,,,,,,296.7314,0.8,297.5305,297.5306,298.2307,right,1,0.6911,,298.2308,299.2304,4,0,32,6,1,partial,2,images/Ex16.jpg,right,nonreversed,easy,6,,,,,
,,,,,646e53ef6c1dac9a13cd2985,001,48,F,British,Undergraduate Degree,2024-02-26_18h21.19.737,CRL1e,2023.2.3,MacIntel,60.0024001,65dbad3905fde4fe1981dc61,65dcd565e7c4e5fb9b04a285,,,,,,,,,,,299.2313,1.1,300.3308,300.3309,301.0138,right,1,0.6748,,301.0139,302.0136,4,1,33,7,1,partial,2,images/Ex16.jpg,right,nonreversed,easy,6,,,,,
,,,,,646e53ef6c1dac9a13cd2985,001,48,F,British,Undergraduate Degree,2024-02-26_18h21.19.737,CRL1e,2023.2.3,MacIntel,60.0024001,65dbad3905fde4fe1981dc61,65dcd565e7c4e5fb9b04a285,,,,,,,,,,,302.0143,1.4,303.4138,303.4139,304.2306,left,1,0.8086,,304.2307,305.2302,4,2,34,4,1,partial,2,images/Ex15.jpg,left,reversed,easy,6,,,,,
,,,,,646e53ef6c1dac9a13cd2985,001,48,F,British,Undergraduate Degree,2024-02-26_18h21.19.737,CRL1e,2023.2.3,MacIntel,60.0024001,65dbad3905fde4fe1981dc61,65dcd565e7c4e5fb9b04a285,,,,,,,,,,,305.2309,1.4,306.6305,306.6306,307.2797,left,1,0.6413,,307.2798,308.2807,4,3,35,5,1,partial,2,images/Ex15.jpg,left,reversed,easy,6,,,,,
,,,,,646e53ef6c1dac9a13cd2985,001,48,F,British,Undergraduate Degree,2024-02-26_18h21.19.737,CRL1e,2023.2.3,MacIntel,60.0024001,65dbad3905fde4fe1981dc61,65dcd565e7c4e5fb9b04a285,,,,,,,,,,,308.2815,0.9,309.1809,309.1811,309.8637,left,1,0.6733,,309.8637,310.8654,4,4,36,3,1,partial,2,images/Ex14.jpg,left,nonreversed,easy,6,,,,,
,,,,,646e53ef6c1dac9a13cd2985,001,48,F,British,Undergraduate Degree,2024-02-26_18h21.19.737,CRL1e,2023.2.3,MacIntel,60.0024001,65dbad3905fde4fe1981dc61,65dcd565e7c4e5fb9b04a285,,,,,,,,,,,310.8662,0.9,311.7643,311.7644,312.3479,left,1,0.5753,,312.3479,313.3482,4,5,37,2,1,partial,2,images/Ex14.jpg,left,nonreversed,easy,6,,,,,
,,,,,646e53ef6c1dac9a13cd2985,001,48,F,British,Undergraduate Degree,2024-02-26_18h21.19.737,CRL1e,2023.2.3,MacIntel,60.0024001,65dbad3905fde4fe1981dc61,65dcd565e7c4e5fb9b04a285,,,,,,,,,,,313.3489,1,314.3482,314.3482,315.6651,left,0,1.3133,,315.6651,316.665,4,6,38,1,1,partial,2,images/Ex13.jpg,right,reversed,easy,6,,,,,
,,,,,646e53ef6c1dac9a13cd2985,001,48,F,British,Undergraduate Degree,2024-02-26_18h21.19.737,CRL1e,2023.2.3,MacIntel,60.0024001,65dbad3905fde4fe1981dc61,65dcd565e7c4e5fb9b04a285,,,,,,,,,,,316.6659,0.8,317.4651,317.4651,317.9985,right,1,0.5246,,317.9985,318.9989,4,7,39,0,1,partial,2,images/Ex13.jpg,right,reversed,easy,6,,,,,
,,,,,646e53ef6c1dac9a13cd2985,001,48,F,British,Undergraduate Degree,2024-02-26_18h21.19.737,CRL1e,2023.2.3,MacIntel,60.0024001,65dbad3905fde4fe1981dc61,65dcd565e7c4e5fb9b04a285,,,,,,,,,,,318.9996,0.6,319.5981,319.5981,320.1982,right,1,0.5935,,320.1982,321.1984,5,0,40,1,1,partial,2,images/Ex13.jpg,right,reversed,easy,6,,,,,
,,,,,646e53ef6c1dac9a13cd2985,001,48,F,British,Undergraduate Degree,2024-02-26_18h21.19.737,CRL1e,2023.2.3,MacIntel,60.0024001,65dbad3905fde4fe1981dc61,65dcd565e7c4e5fb9b04a285,,,,,,,,,,,321.1991,1.1,322.2978,322.2979,322.9648,left,1,0.6589,,322.9649,323.9653,5,1,41,2,1,partial,2,images/Ex14.jpg,left,nonreversed,easy,6,,,,,
,,,,,646e53ef6c1dac9a13cd2985,001,48,F,British,Undergraduate Degree,2024-02-26_18h21.19.737,CRL1e,2023.2.3,MacIntel,60.0024001,65dbad3905fde4fe1981dc61,65dcd565e7c4e5fb9b04a285,,,,,,,,,,,323.966,0.8,324.7645,324.7645,325.3485,left,1,0.5756,,325.3486,326.3486,5,2,42,3,1,partial,2,images/Ex14.jpg,left,nonreversed,easy,6,,,,,
,,,,,646e53ef6c1dac9a13cd2985,001,48,F,British,Undergraduate Degree,2024-02-26_18h21.19.737,CRL1e,2023.2.3,MacIntel,60.0024001,65dbad3905fde4fe1981dc61,65dcd565e7c4e5fb9b04a285,,,,,,,,,,,326.3493,0.9,327.2474,327.2475,327.8653,left,1,0.6078,,327.8654,328.8646,5,3,43,5,1,partial,2,images/Ex15.jpg,left,reversed,easy,6,,,,,
,,,,,646e53ef6c1dac9a13cd2985,001,48,F,British,Undergraduate Degree,2024-02-26_18h21.19.737,CRL1e,2023.2.3,MacIntel,60.0024001,65dbad3905fde4fe1981dc61,65dcd565e7c4e5fb9b04a285,,,,,,,,,,,328.8656,1.4,330.2652,330.2652,330.9496,right,1,0.6752,,330.9497,331.9498,5,4,44,6,1,partial,2,images/Ex16.jpg,right,nonreversed,easy,6,,,,,
,,,,,646e53ef6c1dac9a13cd2985,001,48,F,British,Undergraduate Degree,2024-02-26_18h21.19.737,CRL1e,2023.2.3,MacIntel,60.0024001,65dbad3905fde4fe1981dc61,65dcd565e7c4e5fb9b04a285,,,,,,,,,,,331.9505,0.9,332.849,332.8491,333.3496,right,1,0.4917,,333.3496,334.349,5,5,45,7,1,partial,2,images/Ex16.jpg,right,nonreversed,easy,6,,,,,
,,,,,646e53ef6c1dac9a13cd2985,001,48,F,British,Undergraduate Degree,2024-02-26_18h21.19.737,CRL1e,2023.2.3,MacIntel,60.0024001,65dbad3905fde4fe1981dc61,65dcd565e7c4e5fb9b04a285,,,,,,,,,,,334.3499,1.2,335.55,335.5501,336.199,left,1,0.6394,,336.1991,337.1987,5,6,46,4,1,partial,2,images/Ex15.jpg,left,reversed,easy,6,,,,,
,,,,,646e53ef6c1dac9a13cd2985,001,48,F,British,Undergraduate Degree,2024-02-26_18h21.19.737,CRL1e,2023.2.3,MacIntel,60.0024001,65dbad3905fde4fe1981dc61,65dcd565e7c4e5fb9b04a285,,,,,,,,,,,337.1994,0.6,337.7989,337.7989,339.3491,right,1,1.5408,,339.3491,340.3494,5,7,47,0,1,partial,2,images/Ex13.jpg,right,reversed,easy,6,,,,,
,,,,,646e53ef6c1dac9a13cd2985,001,48,F,British,Undergraduate Degree,2024-02-26_18h21.19.737,CRL1e,2023.2.3,MacIntel,60.0024001,65dbad3905fde4fe1981dc61,65dcd565e7c4e5fb9b04a285,,,,,,340.351,344.3155,space,3.9532,,344.328,1.4,345.716,345.716,346.7329,left,0,1.0073,,346.733,347.7325,0,0,0,5,1,total,1,images/Ex11.jpg,right,training,easy,6,,,,,
,,,,,646e53ef6c1dac9a13cd2985,001,48,F,British,Undergraduate Degree,2024-02-26_18h21.19.737,CRL1e,2023.2.3,MacIntel,60.0024001,65dbad3905fde4fe1981dc61,65dcd565e7c4e5fb9b04a285,,,,,,,,,,,347.7331,1.2,348.9325,348.9326,349.5327,right,1,0.5929,,349.5327,350.5338,0,1,1,4,1,total,1,images/Ex11.jpg,right,training,easy,6,,,,,
,,,,,646e53ef6c1dac9a13cd2985,001,48,F,British,Undergraduate Degree,2024-02-26_18h21.19.737,CRL1e,2023.2.3,MacIntel,60.0024001,65dbad3905fde4fe1981dc61,65dcd565e7c4e5fb9b04a285,,,,,,,,,,,350.5345,1.1,351.6334,351.6335,352.3161,left,1,0.6745,,352.3162,353.3173,0,2,2,0,1,total,1,images/Ex9.jpg,left,training,easy,6,,,,,
,,,,,646e53ef6c1dac9a13cd2985,001,48,F,British,Undergraduate Degree,2024-02-26_18h21.19.737,CRL1e,2023.2.3,MacIntel,60.0024001,65dbad3905fde4fe1981dc61,65dcd565e7c4e5fb9b04a285,,,,,,,,,,,353.318,1.4,354.7162,354.7162,355.6998,right,1,0.9749,,355.6999,356.6997,0,3,3,6,1,total,1,images/Ex12.jpg,right,training,easy,6,,,,,
,,,,,646e53ef6c1dac9a13cd2985,001,48,F,British,Undergraduate Degree,2024-02-26_18h21.19.737,CRL1e,2023.2.3,MacIntel,60.0024001,65dbad3905fde4fe1981dc61,65dcd565e7c4e5fb9b04a285,,,,,,,,,,,356.7003,0.7,357.4003,357.4004,357.9838,right,1,0.5739,,357.9839,358.9832,0,4,4,7,1,total,1,images/Ex12.jpg,right,training,easy,6,,,,,
,,,,,646e53ef6c1dac9a13cd2985,001,48,F,British,Undergraduate Degree,2024-02-26_18h21.19.737,CRL1e,2023.2.3,MacIntel,60.0024001,65dbad3905fde4fe1981dc61,65dcd565e7c4e5fb9b04a285,,,,,,,,,,,358.9839,1.5,360.4828,360.4829,361.2828,left,1,0.7913,,361.2829,362.2833,0,5,5,1,1,total,1,images/Ex9.jpg,left,training,easy,6,,,,,
,,,,,646e53ef6c1dac9a13cd2985,001,48,F,British,Undergraduate Degree,2024-02-26_18h21.19.737,CRL1e,2023.2.3,MacIntel,60.0024001,65dbad3905fde4fe1981dc61,65dcd565e7c4e5fb9b04a285,,,,,,,,,,,362.2841,1,363.2825,363.2825,364.0998,right,0,0.8081,,364.0999,365.0986,0,6,6,2,1,total,1,images/Ex10.jpg,left,training,easy,6,,,,,
,,,,,646e53ef6c1dac9a13cd2985,001,48,F,British,Undergraduate Degree,2024-02-26_18h21.19.737,CRL1e,2023.2.3,MacIntel,60.0024001,65dbad3905fde4fe1981dc61,65dcd565e7c4e5fb9b04a285,,,,,,,,,,,365.0994,0.9,365.9996,365.9997,366.8166,left,1,0.8104,,366.8167,367.8156,0,7,7,3,1,total,1,images/Ex10.jpg,left,training,easy,6,,,,,
,,,,,646e53ef6c1dac9a13cd2985,001,48,F,British,Undergraduate Degree,2024-02-26_18h21.19.737,CRL1e,2023.2.3,MacIntel,60.0024001,65dbad3905fde4fe1981dc61,65dcd565e7c4e5fb9b04a285,,,,,,,,,,,367.8162,1.4,369.2163,369.2163,369.8486,left,1,0.6246,,369.8486,370.8507,1,0,8,2,1,total,1,images/Ex10.jpg,left,training,easy,6,,,,,
,,,,,646e53ef6c1dac9a13cd2985,001,48,F,British,Undergraduate Degree,2024-02-26_18h21.19.737,CRL1e,2023.2.3,MacIntel,60.0024001,65dbad3905fde4fe1981dc61,65dcd565e7c4e5fb9b04a285,,,,,,,,,,,370.8515,0.7,371.5505,371.5506,372.4345,right,1,0.8761,,372.4346,373.434,1,1,9,6,1,total,1,images/Ex12.jpg,right,training,easy,6,,,,,
,,,,,646e53ef6c1dac9a13cd2985,001,48,F,British,Undergraduate Degree,2024-02-26_18h21.19.737,CRL1e,2023.2.3,MacIntel,60.0024001,65dbad3905fde4fe1981dc61,65dcd565e7c4e5fb9b04a285,,,,,,,,,,,373.4345,1,374.4346,374.4346,375.2509,left,0,0.8077,,375.2509,376.2504,1,2,10,4,1,total,1,images/Ex11.jpg,right,training,easy,6,,,,,
,,,,,646e53ef6c1dac9a13cd2985,001,48,F,British,Undergraduate Degree,2024-02-26_18h21.19.737,CRL1e,2023.2.3,MacIntel,60.0024001,65dbad3905fde4fe1981dc61,65dcd565e7c4e5fb9b04a285,,,,,,,,,,,376.2513,1.2,377.4504,377.4505,378.5332,left,1,1.073,,378.5333,379.5338,1,3,11,1,1,total,1,images/Ex9.jpg,left,training,easy,6,,,,,
,,,,,646e53ef6c1dac9a13cd2985,001,48,F,British,Undergraduate Degree,2024-02-26_18h21.19.737,CRL1e,2023.2.3,MacIntel,60.0024001,65dbad3905fde4fe1981dc61,65dcd565e7c4e5fb9b04a285,,,,,,,,,,,379.5345,1.3,380.8346,380.8347,381.6021,right,1,0.7572,,381.6022,382.6007,1,4,12,7,1,total,1,images/Ex12.jpg,right,training,easy,6,,,,,
,,,,,646e53ef6c1dac9a13cd2985,001,48,F,British,Undergraduate Degree,2024-02-26_18h21.19.737,CRL1e,2023.2.3,MacIntel,60.0024001,65dbad3905fde4fe1981dc61,65dcd565e7c4e5fb9b04a285,,,,,,,,,,,382.6015,1,383.6015,383.6016,384.6175,right,1,1.0063,,384.6177,385.618,1,5,13,5,1,total,1,images/Ex11.jpg,right,training,easy,6,,,,,
,,,,,646e53ef6c1dac9a13cd2985,001,48,F,British,Undergraduate Degree,2024-02-26_18h21.19.737,CRL1e,2023.2.3,MacIntel,60.0024001,65dbad3905fde4fe1981dc61,65dcd565e7c4e5fb9b04a285,,,,,,,,,,,385.6186,1.1,386.7175,386.7176,387.4679,right,0,0.7405,,387.4681,388.4679,1,6,14,0,1,total,1,images/Ex9.jpg,left,training,easy,6,,,,,
,,,,,646e53ef6c1dac9a13cd2985,001,48,F,British,Undergraduate Degree,2024-02-26_18h21.19.737,CRL1e,2023.2.3,MacIntel,60.0024001,65dbad3905fde4fe1981dc61,65dcd565e7c4e5fb9b04a285,,,,,,,,,,,388.4685,1.2,389.6676,389.6677,390.5848,left,1,0.909,,390.5848,391.5843,1,7,15,3,1,total,1,images/Ex10.jpg,left,training,easy,6,,,,,
,,,,,646e53ef6c1dac9a13cd2985,001,48,F,British,Undergraduate Degree,2024-02-26_18h21.19.737,CRL1e,2023.2.3,MacIntel,60.0024001,65dbad3905fde4fe1981dc61,65dcd565e7c4e5fb9b04a285,,,,,,,,,,,391.5849,1.3,392.884,392.884,393.701,right,1,0.8109,,393.7011,394.7012,2,0,16,5,1,total,1,images/Ex11.jpg,right,training,easy,6,,,,,
,,,,,646e53ef6c1dac9a13cd2985,001,48,F,British,Undergraduate Degree,2024-02-26_18h21.19.737,CRL1e,2023.2.3,MacIntel,60.0024001,65dbad3905fde4fe1981dc61,65dcd565e7c4e5fb9b04a285,,,,,,,,,,,394.7021,1.4,396.1007,396.1007,396.8337,left,1,0.7256,,396.8338,397.8344,2,1,17,3,1,total,1,images/Ex10.jpg,left,training,easy,6,,,,,
,,,,,646e53ef6c1dac9a13cd2985,001,48,F,British,Undergraduate Degree,2024-02-26_18h21.19.737,CRL1e,2023.2.3,MacIntel,60.0024001,65dbad3905fde4fe1981dc61,65dcd565e7c4e5fb9b04a285,,,,,,,,,,,397.8351,1.5,399.3339,399.334,400.2342,right,0,0.8917,,400.2343,401.236,2,2,18,1,1,total,1,images/Ex9.jpg,left,training,easy,6,,,,,
,,,,,646e53ef6c1dac9a13cd2985,001,48,F,British,Undergraduate Degree,2024-02-26_18h21.19.737,CRL1e,2023.2.3,MacIntel,60.0024001,65dbad3905fde4fe1981dc61,65dcd565e7c4e5fb9b04a285,,,,,,,,,,,401.2366,1.4,402.6356,402.6357,403.3181,right,1,0.673,,403.3182,404.3181,2,3,19,6,1,total,1,images/Ex12.jpg,right,training,easy,6,,,,,
,,,,,646e53ef6c1dac9a13cd2985,001,48,F,British,Undergraduate Degree,2024-02-26_18h21.19.737,CRL1e,2023.2.3,MacIntel,60.0024001,65dbad3905fde4fe1981dc61,65dcd565e7c4e5fb9b04a285,,,,,,,,,,,404.3191,1,405.3189,405.3189,405.9852,right,1,0.6569,,405.9852,406.985,2,4,20,7,1,total,1,images/Ex12.jpg,right,training,easy,6,,,,,
,,,,,646e53ef6c1dac9a13cd2985,001,48,F,British,Undergraduate Degree,2024-02-26_18h21.19.737,CRL1e,2023.2.3,MacIntel,60.0024001,65dbad3905fde4fe1981dc61,65dcd565e7c4e5fb9b04a285,,,,,,,,,,,406.9856,0.9,407.8849,407.885,408.7181,right,1,0.8248,,408.7181,409.7189,2,5,21,4,1,total,1,images/Ex11.jpg,right,training,easy,6,,,,,
,,,,,646e53ef6c1dac9a13cd2985,001,48,F,British,Undergraduate Degree,2024-02-26_18h21.19.737,CRL1e,2023.2.3,MacIntel,60.0024001,65dbad3905fde4fe1981dc61,65dcd565e7c4e5fb9b04a285,,,,,,,,,,,409.7198,1.1,410.8182,410.8183,411.4021,right,0,0.5804,,411.4022,412.402,2,6,22,0,1,total,1,images/Ex9.jpg,left,training,easy,6,,,,,
,,,,,646e53ef6c1dac9a13cd2985,001,48,F,British,Undergraduate Degree,2024-02-26_18h21.19.737,CRL1e,2023.2.3,MacIntel,60.0024001,65dbad3905fde4fe1981dc61,65dcd565e7c4e5fb9b04a285,,,,,,,,,,,412.4026,0.8,413.2018,413.2019,413.8012,left,1,0.5937,,413.8013,414.8013,2,7,23,2,1,total,1,images/Ex10.jpg,left,training,easy,6,,,,,
,,,,,646e53ef6c1dac9a13cd2985,001,48,F,British,Undergraduate Degree,2024-02-26_18h21.19.737,CRL1e,2023.2.3,MacIntel,60.0024001,65dbad3905fde4fe1981dc61,65dcd565e7c4e5fb9b04a285,,,,,,,,,,,414.8019,0.9,415.7013,415.7013,416.402,right,1,0.69,,416.4021,417.4015,3,0,24,4,1,total,1,images/Ex11.jpg,right,training,easy,6,,,,,
,,,,,646e53ef6c1dac9a13cd2985,001,48,F,British,Undergraduate Degree,2024-02-26_18h21.19.737,CRL1e,2023.2.3,MacIntel,60.0024001,65dbad3905fde4fe1981dc61,65dcd565e7c4e5fb9b04a285,,,,,,,,,,,417.4023,1,418.4018,418.4019,418.9853,left,1,0.5793,,418.9853,419.9847,3,1,25,0,1,total,1,images/Ex9.jpg,left,training,easy,6,,,,,
,,,,,646e53ef6c1dac9a13cd2985,001,48,F,British,Undergraduate Degree,2024-02-26_18h21.19.737,CRL1e,2023.2.3,MacIntel,60.0024001,65dbad3905fde4fe1981dc61,65dcd565e7c4e5fb9b04a285,,,,,,,,,,,419.9854,0.8,420.7867,420.7867,421.9198,left,0,1.1237,,421.9198,422.9195,3,2,26,7,1,total,1,images/Ex12.jpg,right,training,easy,6,,,,,
,,,,,646e53ef6c1dac9a13cd2985,001,48,F,British,Undergraduate Degree,2024-02-26_18h21.19.737,CRL1e,2023.2.3,MacIntel,60.0024001,65dbad3905fde4fe1981dc61,65dcd565e7c4e5fb9b04a285,,,,,,,,,,,422.9204,0.6,423.52,423.52,424.1869,right,1,0.6586,,424.1869,425.1861,3,3,27,6,1,total,1,images/Ex12.jpg,right,training,easy,6,,,,,
,,,,,646e53ef6c1dac9a13cd2985,001,48,F,British,Undergraduate Degree,2024-02-26_18h21.19.737,CRL1e,2023.2.3,MacIntel,60.0024001,65dbad3905fde4fe1981dc61,65dcd565e7c4e5fb9b04a285,,,,,,,,,,,425.1868,0.9,426.0861,426.0862,426.6693,left,1,0.574,,426.6693,427.6694,3,4,28,2,1,total,1,images/Ex10.jpg,left,training,easy,6,,,,,
,,,,,646e53ef6c1dac9a13cd2985,001,48,F,British,Undergraduate Degree,2024-02-26_18h21.19.737,CRL1e,2023.2.3,MacIntel,60.0024001,65dbad3905fde4fe1981dc61,65dcd565e7c4e5fb9b04a285,,,,,,,,,,,427.6703,1.5,429.1696,429.1697,429.7526,left,1,0.5748,,429.7527,430.7521,3,5,29,3,1,total,1,images/Ex10.jpg,left,training,easy,6,,,,,
,,,,,646e53ef6c1dac9a13cd2985,001,48,F,British,Undergraduate Degree,2024-02-26_18h21.19.737,CRL1e,2023.2.3,MacIntel,60.0024001,65dbad3905fde4fe1981dc61,65dcd565e7c4e5fb9b04a285,,,,,,,,,,,430.7528,1.2,431.9528,431.9528,432.7186,left,1,0.7606,,432.7188,433.718,3,6,30,1,1,total,1,images/Ex9.jpg,left,training,easy,6,,,,,
,,,,,646e53ef6c1dac9a13cd2985,001,48,F,British,Undergraduate Degree,2024-02-26_18h21.19.737,CRL1e,2023.2.3,MacIntel,60.0024001,65dbad3905fde4fe1981dc61,65dcd565e7c4e5fb9b04a285,,,,,,,,,,,433.7188,1.3,435.019,435.0191,435.6353,right,1,0.6078,,435.6354,436.6358,3,7,31,5,1,total,1,images/Ex11.jpg,right,training,easy,6,,,,,
,,,,,646e53ef6c1dac9a13cd2985,001,48,F,British,Undergraduate Degree,2024-02-26_18h21.19.737,CRL1e,2023.2.3,MacIntel,60.0024001,65dbad3905fde4fe1981dc61,65dcd565e7c4e5fb9b04a285,,,,,,,,,,,436.6366,1.3,437.9357,437.9358,438.5352,left,1,0.5908,,438.5352,439.5359,4,0,32,3,1,total,1,images/Ex10.jpg,left,training,easy,6,,,,,
,,,,,646e53ef6c1dac9a13cd2985,001,48,F,British,Undergraduate Degree,2024-02-26_18h21.19.737,CRL1e,2023.2.3,MacIntel,60.0024001,65dbad3905fde4fe1981dc61,65dcd565e7c4e5fb9b04a285,,,,,,,,,,,439.5364,1.5,441.0374,441.0375,441.8703,left,0,0.8298,,441.8703,442.8705,4,1,33,6,1,total,1,images/Ex12.jpg,right,training,easy,6,,,,,
,,,,,646e53ef6c1dac9a13cd2985,001,48,F,British,Undergraduate Degree,2024-02-26_18h21.19.737,CRL1e,2023.2.3,MacIntel,60.0024001,65dbad3905fde4fe1981dc61,65dcd565e7c4e5fb9b04a285,,,,,,,,,,,442.8713,0.6,443.4707,443.4708,444.0542,right,1,0.5813,,444.0542,445.0537,4,2,34,7,1,total,1,images/Ex12.jpg,right,training,easy,6,,,,,
,,,,,646e53ef6c1dac9a13cd2985,001,48,F,British,Undergraduate Degree,2024-02-26_18h21.19.737,CRL1e,2023.2.3,MacIntel,60.0024001,65dbad3905fde4fe1981dc61,65dcd565e7c4e5fb9b04a285,,,,,,,,,,,445.0544,1,446.0535,446.0537,446.6365,left,1,0.5732,,446.6366,447.6364,4,3,35,2,1,total,1,images/Ex10.jpg,left,training,easy,6,,,,,
,,,,,646e53ef6c1dac9a13cd2985,001,48,F,British,Undergraduate Degree,2024-02-26_18h21.19.737,CRL1e,2023.2.3,MacIntel,60.0024001,65dbad3905fde4fe1981dc61,65dcd565e7c4e5fb9b04a285,,,,,,,,,,,447.637,1.4,449.0362,449.0363,449.8205,left,1,0.7745,,449.8205,450.8201,4,4,36,1,1,total,1,images/Ex9.jpg,left,training,easy,6,,,,,
,,,,,646e53ef6c1dac9a13cd2985,001,48,F,British,Undergraduate Degree,2024-02-26_18h21.19.737,CRL1e,2023.2.3,MacIntel,60.0024001,65dbad3905fde4fe1981dc61,65dcd565e7c4e5fb9b04a285,,,,,,,,,,,450.8206,1.1,451.9194,451.9195,452.5036,left,1,0.5752,,452.5036,453.5035,4,5,37,0,1,total,1,images/Ex9.jpg,left,training,easy,6,,,,,
,,,,,646e53ef6c1dac9a13cd2985,001,48,F,British,Undergraduate Degree,2024-02-26_18h21.19.737,CRL1e,2023.2.3,MacIntel,60.0024001,65dbad3905fde4fe1981dc61,65dcd565e7c4e5fb9b04a285,,,,,,,,,,,453.5044,1.3,454.8028,454.8029,455.4364,right,1,0.6238,,455.4365,456.4364,4,6,38,4,1,total,1,images/Ex11.jpg,right,training,easy,6,,,,,
,,,,,646e53ef6c1dac9a13cd2985,001,48,F,British,Undergraduate Degree,2024-02-26_18h21.19.737,CRL1e,2023.2.3,MacIntel,60.0024001,65dbad3905fde4fe1981dc61,65dcd565e7c4e5fb9b04a285,,,,,,,,,,,456.4371,1.1,457.5365,457.5366,458.0024,right,1,0.4595,,458.0025,459.0028,4,7,39,5,1,total,1,images/Ex11.jpg,right,training,easy,6,,,,,
,,,,,646e53ef6c1dac9a13cd2985,001,48,F,British,Undergraduate Degree,2024-02-26_18h21.19.737,CRL1e,2023.2.3,MacIntel,60.0024001,65dbad3905fde4fe1981dc61,65dcd565e7c4e5fb9b04a285,,,,,,,,,,,459.0036,0.6,459.6025,459.6026,460.1689,left,1,0.56,,460.1689,461.171,5,0,40,2,1,total,1,images/Ex10.jpg,left,training,easy,6,,,,,
,,,,,646e53ef6c1dac9a13cd2985,001,48,F,British,Undergraduate Degree,2024-02-26_18h21.19.737,CRL1e,2023.2.3,MacIntel,60.0024001,65dbad3905fde4fe1981dc61,65dcd565e7c4e5fb9b04a285,,,,,,,,,,,461.1716,0.7,461.8705,461.8706,462.7551,left,1,0.8748,,462.7552,463.7545,5,1,41,1,1,total,1,images/Ex9.jpg,left,training,easy,6,,,,,
,,,,,646e53ef6c1dac9a13cd2985,001,48,F,British,Undergraduate Degree,2024-02-26_18h21.19.737,CRL1e,2023.2.3,MacIntel,60.0024001,65dbad3905fde4fe1981dc61,65dcd565e7c4e5fb9b04a285,,,,,,,,,,,463.7555,0.5,464.2549,464.255,464.9372,left,1,0.6727,,464.9374,465.9375,5,2,42,3,1,total,1,images/Ex10.jpg,left,training,easy,6,,,,,
,,,,,646e53ef6c1dac9a13cd2985,001,48,F,British,Undergraduate Degree,2024-02-26_18h21.19.737,CRL1e,2023.2.3,MacIntel,60.0024001,65dbad3905fde4fe1981dc61,65dcd565e7c4e5fb9b04a285,,,,,,,,,,,465.9381,1.5,467.4377,467.4378,468.1373,right,1,0.6909,,468.1374,469.137,5,3,43,4,1,total,1,images/Ex11.jpg,right,training,easy,6,,,,,
,,,,,646e53ef6c1dac9a13cd2985,001,48,F,British,Undergraduate Degree,2024-02-26_18h21.19.737,CRL1e,2023.2.3,MacIntel,60.0024001,65dbad3905fde4fe1981dc61,65dcd565e7c4e5fb9b04a285,,,,,,,,,,,469.1378,1,470.1381,470.1382,470.9706,left,0,0.8276,,470.9706,471.9708,5,4,44,6,1,total,1,images/Ex12.jpg,right,training,easy,6,,,,,
,,,,,646e53ef6c1dac9a13cd2985,001,48,F,British,Undergraduate Degree,2024-02-26_18h21.19.737,CRL1e,2023.2.3,MacIntel,60.0024001,65dbad3905fde4fe1981dc61,65dcd565e7c4e5fb9b04a285,,,,,,,,,,,471.9715,0.5,472.471,472.4711,473.138,right,1,0.6568,,473.138,474.1371,5,5,45,5,1,total,1,images/Ex11.jpg,right,training,easy,6,,,,,
,,,,,646e53ef6c1dac9a13cd2985,001,48,F,British,Undergraduate Degree,2024-02-26_18h21.19.737,CRL1e,2023.2.3,MacIntel,60.0024001,65dbad3905fde4fe1981dc61,65dcd565e7c4e5fb9b04a285,,,,,,,,,,,474.1378,0.7,474.8374,474.8374,475.6538,left,1,0.8085,,475.6538,476.6538,5,6,46,0,1,total,1,images/Ex9.jpg,left,training,easy,6,,,,,
,,,,,646e53ef6c1dac9a13cd2985,001,48,F,British,Undergraduate Degree,2024-02-26_18h21.19.737,CRL1e,2023.2.3,MacIntel,60.0024001,65dbad3905fde4fe1981dc61,65dcd565e7c4e5fb9b04a285,,,,,,,,,,,476.6546,1.2,477.8537,477.8538,478.97,right,1,1.109,,478.9701,479.97,5,7,47,7,1,total,1,images/Ex12.jpg,right,training,easy,6,,,,,
,,,,,646e53ef6c1dac9a13cd2985,001,48,F,British,Undergraduate Degree,2024-02-26_18h21.19.737,CRL1e,2023.2.3,MacIntel,60.0024001,65dbad3905fde4fe1981dc61,65dcd565e7c4e5fb9b04a285,,,,,,,,,,,479.9749,0.6,480.5725,480.5725,481.1219,right,0,0.5403,,481.122,482.1214,0,0,0,7,1,total,2,images/Ex12.jpg,left,reversed,easy,6,,,,,
,,,,,646e53ef6c1dac9a13cd2985,001,48,F,British,Undergraduate Degree,2024-02-26_18h21.19.737,CRL1e,2023.2.3,MacIntel,60.0024001,65dbad3905fde4fe1981dc61,65dcd565e7c4e5fb9b04a285,,,,,,,,,,,482.1222,1.3,483.4215,483.4217,484.2047,right,0,0.7799,,484.2047,485.2052,0,1,1,5,1,total,2,images/Ex11.jpg,left,reversed,easy,6,,,,,
,,,,,646e53ef6c1dac9a13cd2985,001,48,F,British,Undergraduate Degree,2024-02-26_18h21.19.737,CRL1e,2023.2.3,MacIntel,60.0024001,65dbad3905fde4fe1981dc61,65dcd565e7c4e5fb9b04a285,,,,,,,,,,,485.2058,1,486.2048,486.2049,487.3215,right,1,1.1078,,487.3215,488.3218,0,2,2,0,1,total,2,images/Ex9.jpg,right,reversed,easy,6,,,,,
,,,,,646e53ef6c1dac9a13cd2985,001,48,F,British,Undergraduate Degree,2024-02-26_18h21.19.737,CRL1e,2023.2.3,MacIntel,60.0024001,65dbad3905fde4fe1981dc61,65dcd565e7c4e5fb9b04a285,,,,,,,,,,,488.3227,1.3,489.6214,489.6214,490.405,right,0,0.7743,,490.4052,491.4049,0,3,3,4,1,total,2,images/Ex11.jpg,left,reversed,easy,6,,,,,
,,,,,646e53ef6c1dac9a13cd2985,001,48,F,British,Undergraduate Degree,2024-02-26_18h21.19.737,CRL1e,2023.2.3,MacIntel,60.0024001,65dbad3905fde4fe1981dc61,65dcd565e7c4e5fb9b04a285,,,,,,,,,,,491.4054,0.7,492.1049,492.105,493.1225,right,0,1.0071,,493.1225,494.1227,0,4,4,6,1,total,2,images/Ex12.jpg,left,reversed,easy,6,,,,,
,,,,,646e53ef6c1dac9a13cd2985,001,48,F,British,Undergraduate Degree,2024-02-26_18h21.19.737,CRL1e,2023.2.3,MacIntel,60.0024001,65dbad3905fde4fe1981dc61,65dcd565e7c4e5fb9b04a285,,,,,,,,,,,494.1235,1.2,495.3219,495.322,496.2221,right,1,0.8917,,496.2222,497.2217,0,5,5,1,1,total,2,images/Ex9.jpg,right,reversed,easy,6,,,,,
,,,,,646e53ef6c1dac9a13cd2985,001,48,F,British,Undergraduate Degree,2024-02-26_18h21.19.737,CRL1e,2023.2.3,MacIntel,60.0024001,65dbad3905fde4fe1981dc61,65dcd565e7c4e5fb9b04a285,,,,,,,,,,,497.2225,0.9,498.1219,498.1219,499.1391,right,1,1.0077,,499.1391,500.1388,0,6,6,3,1,total,2,images/Ex10.jpg,right,reversed,easy,6,,,,,
,,,,,646e53ef6c1dac9a13cd2985,001,48,F,British,Undergraduate Degree,2024-02-26_18h21.19.737,CRL1e,2023.2.3,MacIntel,60.0024001,65dbad3905fde4fe1981dc61,65dcd565e7c4e5fb9b04a285,,,,,,,,,,,500.1395,1.1,501.2387,501.2388,501.871,right,1,0.6289,,501.8711,502.8722,0,7,7,2,1,total,2,images/Ex10.jpg,right,reversed,easy,6,,,,,
,,,,,646e53ef6c1dac9a13cd2985,001,48,F,British,Undergraduate Degree,2024-02-26_18h21.19.737,CRL1e,2023.2.3,MacIntel,60.0024001,65dbad3905fde4fe1981dc61,65dcd565e7c4e5fb9b04a285,,,,,,,,,,,502.8729,0.8,503.6716,503.6717,504.289,right,1,0.6158,,504.2891,505.2882,1,0,8,2,1,total,2,images/Ex10.jpg,right,reversed,easy,6,,,,,
,,,,,646e53ef6c1dac9a13cd2985,001,48,F,British,Undergraduate Degree,2024-02-26_18h21.19.737,CRL1e,2023.2.3,MacIntel,60.0024001,65dbad3905fde4fe1981dc61,65dcd565e7c4e5fb9b04a285,,,,,,,,,,,505.289,1.4,506.6889,506.6889,507.5049,left,0,0.8065,,507.5049,508.5055,1,1,9,1,1,total,2,images/Ex9.jpg,right,reversed,easy,6,,,,,
,,,,,646e53ef6c1dac9a13cd2985,001,48,F,British,Undergraduate Degree,2024-02-26_18h21.19.737,CRL1e,2023.2.3,MacIntel,60.0024001,65dbad3905fde4fe1981dc61,65dcd565e7c4e5fb9b04a285,,,,,,,,,,,508.5063,1.4,509.9052,509.9052,510.6403,right,1,0.7298,,510.6404,511.6398,1,2,10,3,1,total,2,images/Ex10.jpg,right,reversed,easy,6,,,,,
,,,,,646e53ef6c1dac9a13cd2985,001,48,F,British,Undergraduate Degree,2024-02-26_18h21.19.737,CRL1e,2023.2.3,MacIntel,60.0024001,65dbad3905fde4fe1981dc61,65dcd565e7c4e5fb9b04a285,,,,,,,,,,,511.6405,0.6,512.2394,512.2395,513.1228,left,1,0.8816,,513.1229,514.1231,1,3,11,4,1,total,2,images/Ex11.jpg,left,reversed,easy,6,,,,,
,,,,,646e53ef6c1dac9a13cd2985,001,48,F,British,Undergraduate Degree,2024-02-26_18h21.19.737,CRL1e,2023.2.3,MacIntel,60.0024001,65dbad3905fde4fe1981dc61,65dcd565e7c4e5fb9b04a285,,,,,,,,,,,514.1239,0.9,515.0225,515.0225,515.6231,left,1,0.5924,,515.6232,516.6226,1,4,12,5,1,total,2,images/Ex11.jpg,left,reversed,easy,6,,,,,
,,,,,646e53ef6c1dac9a13cd2985,001,48,F,British,Undergraduate Degree,2024-02-26_18h21.19.737,CRL1e,2023.2.3,MacIntel,60.0024001,65dbad3905fde4fe1981dc61,65dcd565e7c4e5fb9b04a285,,,,,,,,,,,516.6233,1.4,518.0225,518.0226,519.1894,left,0,1.1637,,519.1894,520.1899,1,5,13,0,1,total,2,images/Ex9.jpg,right,reversed,easy,6,,,,,
,,,,,646e53ef6c1dac9a13cd2985,001,48,F,British,Undergraduate Degree,2024-02-26_18h21.19.737,CRL1e,2023.2.3,MacIntel,60.0024001,65dbad3905fde4fe1981dc61,65dcd565e7c4e5fb9b04a285,,,,,,,,,,,520.1907,0.8,520.9899,520.99,522.4732,left,1,1.4757,,522.4732,523.4732,1,6,14,7,1,total,2,images/Ex12.jpg,left,reversed,easy,6,,,,,
,,,,,646e53ef6c1dac9a13cd2985,001,48,F,British,Undergraduate Degree,2024-02-26_18h21.19.737,CRL1e,2023.2.3,MacIntel,60.0024001,65dbad3905fde4fe1981dc61,65dcd565e7c4e5fb9b04a285,,,,,,,,,,,523.4849,1.4,524.8735,524.8735,525.4903,left,1,0.615,,525.4904,526.4901,1,7,15,6,1,total,2,images/Ex12.jpg,left,reversed,easy,6,,,,,
,,,,,646e53ef6c1dac9a13cd2985,001,48,F,British,Undergraduate Degree,2024-02-26_18h21.19.737,CRL1e,2023.2.3,MacIntel,60.0024001,65dbad3905fde4fe1981dc61,65dcd565e7c4e5fb9b04a285,,,,,,,,,,,526.4908,0.5,526.9895,526.9896,527.823,right,1,0.8247,,527.823,528.8236,2,0,16,0,1,total,2,images/Ex9.jpg,right,reversed,easy,6,,,,,
,,,,,646e53ef6c1dac9a13cd2985,001,48,F,British,Undergraduate Degree,2024-02-26_18h21.19.737,CRL1e,2023.2.3,MacIntel,60.0024001,65dbad3905fde4fe1981dc61,65dcd565e7c4e5fb9b04a285,,,,,,,,,,,528.8243,1.2,530.0233,530.0234,530.8071,left,1,0.7747,,530.8071,531.8065,2,1,17,5,1,total,2,images/Ex11.jpg,left,reversed,easy,6,,,,,
,,,,,646e53ef6c1dac9a13cd2985,001,48,F,British,Undergraduate Degree,2024-02-26_18h21.19.737,CRL1e,2023.2.3,MacIntel,60.0024001,65dbad3905fde4fe1981dc61,65dcd565e7c4e5fb9b04a285,,,,,,,,,,,531.8073,1.2,533.0065,533.0065,533.7067,right,1,0.6904,,533.7068,534.7068,2,2,18,3,1,total,2,images/Ex10.jpg,right,reversed,easy,6,,,,,
,,,,,646e53ef6c1dac9a13cd2985,001,48,F,British,Undergraduate Degree,2024-02-26_18h21.19.737,CRL1e,2023.2.3,MacIntel,60.0024001,65dbad3905fde4fe1981dc61,65dcd565e7c4e5fb9b04a285,,,,,,,,,,,534.7076,1.1,535.8066,535.8068,536.9229,right,0,1.1102,,536.9229,537.9235,2,3,19,6,1,total,2,images/Ex12.jpg,left,reversed,easy,6,,,,,
,,,,,646e53ef6c1dac9a13cd2985,001,48,F,British,Undergraduate Degree,2024-02-26_18h21.19.737,CRL1e,2023.2.3,MacIntel,60.0024001,65dbad3905fde4fe1981dc61,65dcd565e7c4e5fb9b04a285,,,,,,,,,,,537.9243,0.8,538.7233,538.7235,539.5407,right,1,0.8033,,539.5408,540.5395,2,4,20,2,1,total,2,images/Ex10.jpg,right,reversed,easy,6,,,,,
,,,,,646e53ef6c1dac9a13cd2985,001,48,F,British,Undergraduate Degree,2024-02-26_18h21.19.737,CRL1e,2023.2.3,MacIntel,60.0024001,65dbad3905fde4fe1981dc61,65dcd565e7c4e5fb9b04a285,,,,,,,,,,,540.5401,0.8,541.3404,541.3404,541.907,left,1,0.5594,,541.907,542.9072,2,5,21,4,1,total,2,images/Ex11.jpg,left,reversed,easy,6,,,,,
,,,,,646e53ef6c1dac9a13cd2985,001,48,F,British,Undergraduate Degree,2024-02-26_18h21.19.737,CRL1e,2023.2.3,MacIntel,60.0024001,65dbad3905fde4fe1981dc61,65dcd565e7c4e5fb9b04a285,,,,,,,,,,,542.9079,1.1,544.0063,544.0063,544.9565,left,1,0.9443,,544.9565,545.9563,2,6,22,7,1,total,2,images/Ex12.jpg,left,reversed,easy,6,,,,,
,,,,,646e53ef6c1dac9a13cd2985,001,48,F,British,Undergraduate Degree,2024-02-26_18h21.19.737,CRL1e,2023.2.3,MacIntel,60.0024001,65dbad3905fde4fe1981dc61,65dcd565e7c4e5fb9b04a285,,,,,,,,,,,545.9566,1.1,547.0552,547.0552,547.957,right,1,0.8937,,547.9571,548.9565,2,7,23,1,1,total,2,images/Ex9.jpg,right,reversed,easy,6,,,,,
,,,,,646e53ef6c1dac9a13cd2985,001,48,F,British,Undergraduate Degree,2024-02-26_18h21.19.737,CRL1e,2023.2.3,MacIntel,60.0024001,65dbad3905fde4fe1981dc61,65dcd565e7c4e5fb9b04a285,,,,,,,,,,,548.9571,0.8,549.7564,549.7566,550.4067,left,1,0.6418,,550.4068,551.4078,3,0,24,5,1,total,2,images/Ex11.jpg,left,reversed,easy,6,,,,,
,,,,,646e53ef6c1dac9a13cd2985,001,48,F,British,Undergraduate Degree,2024-02-26_18h21.19.737,CRL1e,2023.2.3,MacIntel,60.0024001,65dbad3905fde4fe1981dc61,65dcd565e7c4e5fb9b04a285,,,,,,,,,,,551.4085,1.5,552.9077,552.9078,553.6918,right,1,0.7745,,553.6918,554.6906,3,1,25,3,1,total,2,images/Ex10.jpg,right,reversed,easy,6,,,,,
,,,,,646e53ef6c1dac9a13cd2985,001,48,F,British,Undergraduate Degree,2024-02-26_18h21.19.737,CRL1e,2023.2.3,MacIntel,60.0024001,65dbad3905fde4fe1981dc61,65dcd565e7c4e5fb9b04a285,,,,,,,,,,,554.6913,1.5,556.1907,556.1908,556.8742,left,1,0.6761,,556.8742,557.8743,3,2,26,7,1,total,2,images/Ex12.jpg,left,reversed,easy,6,,,,,
,,,,,646e53ef6c1dac9a13cd2985,001,48,F,British,Undergraduate Degree,2024-02-26_18h21.19.737,CRL1e,2023.2.3,MacIntel,60.0024001,65dbad3905fde4fe1981dc61,65dcd565e7c4e5fb9b04a285,,,,,,,,,,,557.875,0.7,558.5742,558.5743,559.2733,left,0,0.6913,,559.2733,560.2741,3,3,27,0,1,total,2,images/Ex9.jpg,right,reversed,easy,6,,,,,
,,,,,646e53ef6c1dac9a13cd2985,001,48,F,British,Undergraduate Degree,2024-02-26_18h21.19.737,CRL1e,2023.2.3,MacIntel,60.0024001,65dbad3905fde4fe1981dc61,65dcd565e7c4e5fb9b04a285,,,,,,,,,,,560.2749,1.5,561.7744,561.7744,563.191,left,1,1.4118,,563.1911,564.1904,3,4,28,6,1,total,2,images/Ex12.jpg,left,reversed,easy,6,,,,,
,,,,,646e53ef6c1dac9a13cd2985,001,48,F,British,Undergraduate Degree,2024-02-26_18h21.19.737,CRL1e,2023.2.3,MacIntel,60.0024001,65dbad3905fde4fe1981dc61,65dcd565e7c4e5fb9b04a285,,,,,,,,,,,564.1911,1.4,565.5908,565.5909,566.5573,left,0,0.9582,,566.5575,567.5572,3,5,29,1,1,total,2,images/Ex9.jpg,right,reversed,easy,6,,,,,
,,,,,646e53ef6c1dac9a13cd2985,001,48,F,British,Undergraduate Degree,2024-02-26_18h21.19.737,CRL1e,2023.2.3,MacIntel,60.0024001,65dbad3905fde4fe1981dc61,65dcd565e7c4e5fb9b04a285,,,,,,,,,,,567.5579,0.9,568.4574,568.4574,569.0904,right,1,0.6255,,569.0905,570.0906,3,6,30,2,1,total,2,images/Ex10.jpg,right,reversed,easy,6,,,,,
,,,,,646e53ef6c1dac9a13cd2985,001,48,F,British,Undergraduate Degree,2024-02-26_18h21.19.737,CRL1e,2023.2.3,MacIntel,60.0024001,65dbad3905fde4fe1981dc61,65dcd565e7c4e5fb9b04a285,,,,,,,,,,,570.0915,0.8,570.8921,570.8921,571.726,left,1,0.8234,,571.7261,572.7248,3,7,31,4,1,total,2,images/Ex11.jpg,left,reversed,easy,6,,,,,
,,,,,646e53ef6c1dac9a13cd2985,001,48,F,British,Undergraduate Degree,2024-02-26_18h21.19.737,CRL1e,2023.2.3,MacIntel,60.0024001,65dbad3905fde4fe1981dc61,65dcd565e7c4e5fb9b04a285,,,,,,,,,,,572.7255,0.7,573.4248,573.4248,574.1247,right,1,0.6909,,574.1248,575.1246,4,0,32,1,1,total,2,images/Ex9.jpg,right,reversed,easy,6,,,,,
,,,,,646e53ef6c1dac9a13cd2985,001,48,F,British,Undergraduate Degree,2024-02-26_18h21.19.737,CRL1e,2023.2.3,MacIntel,60.0024001,65dbad3905fde4fe1981dc61,65dcd565e7c4e5fb9b04a285,,,,,,,,,,,575.125,0.8,575.9244,575.9245,576.7416,right,1,0.8083,,576.7416,577.7416,4,1,33,3,1,total,2,images/Ex10.jpg,right,reversed,easy,6,,,,,
,,,,,646e53ef6c1dac9a13cd2985,001,48,F,British,Undergraduate Degree,2024-02-26_18h21.19.737,CRL1e,2023.2.3,MacIntel,60.0024001,65dbad3905fde4fe1981dc61,65dcd565e7c4e5fb9b04a285,,,,,,,,,,,577.7427,0.8,578.5418,578.5419,579.7258,right,0,1.1727,,579.7259,580.7261,4,2,34,7,1,total,2,images/Ex12.jpg,left,reversed,easy,6,,,,,
,,,,,646e53ef6c1dac9a13cd2985,001,48,F,British,Undergraduate Degree,2024-02-26_18h21.19.737,CRL1e,2023.2.3,MacIntel,60.0024001,65dbad3905fde4fe1981dc61,65dcd565e7c4e5fb9b04a285,,,,,,,,,,,580.7269,0.8,581.5264,581.5264,582.4761,left,0,0.9472,,582.4761,583.4761,4,3,35,0,1,total,2,images/Ex9.jpg,right,reversed,easy,6,,,,,
,,,,,646e53ef6c1dac9a13cd2985,001,48,F,British,Undergraduate Degree,2024-02-26_18h21.19.737,CRL1e,2023.2.3,MacIntel,60.0024001,65dbad3905fde4fe1981dc61,65dcd565e7c4e5fb9b04a285,,,,,,,,,,,583.4769,1.2,584.6755,584.6756,585.3926,right,1,0.7084,,585.3926,586.3921,4,4,36,2,1,total,2,images/Ex10.jpg,right,reversed,easy,6,,,,,
,,,,,646e53ef6c1dac9a13cd2985,001,48,F,British,Undergraduate Degree,2024-02-26_18h21.19.737,CRL1e,2023.2.3,MacIntel,60.0024001,65dbad3905fde4fe1981dc61,65dcd565e7c4e5fb9b04a285,,,,,,,,,,,586.3927,1.5,587.8919,587.892,589.0091,left,1,1.1074,,589.0091,590.0085,4,5,37,5,1,total,2,images/Ex11.jpg,left,reversed,easy,6,,,,,
,,,,,646e53ef6c1dac9a13cd2985,001,48,F,British,Undergraduate Degree,2024-02-26_18h21.19.737,CRL1e,2023.2.3,MacIntel,60.0024001,65dbad3905fde4fe1981dc61,65dcd565e7c4e5fb9b04a285,,,,,,,,,,,590.0091,0.9,590.9083,590.9084,591.6592,left,1,0.7484,,591.6593,592.6587,4,6,38,4,1,total,2,images/Ex11.jpg,left,reversed,easy,6,,,,,
,,,,,646e53ef6c1dac9a13cd2985,001,48,F,British,Undergraduate Degree,2024-02-26_18h21.19.737,CRL1e,2023.2.3,MacIntel,60.0024001,65dbad3905fde4fe1981dc61,65dcd565e7c4e5fb9b04a285,,,,,,,,,,,592.6596,1.1,593.7592,593.7593,594.9579,right,0,1.1888,,594.9579,595.9581,4,7,39,6,1,total,2,images/Ex12.jpg,left,reversed,easy,6,,,,,
,,,,,646e53ef6c1dac9a13cd2985,001,48,F,British,Undergraduate Degree,2024-02-26_18h21.19.737,CRL1e,2023.2.3,MacIntel,60.0024001,65dbad3905fde4fe1981dc61,65dcd565e7c4e5fb9b04a285,,,,,,,,,,,595.9587,0.5,596.4581,596.4582,597.0088,right,1,0.541,,597.009,598.0082,5,0,40,0,1,total,2,images/Ex9.jpg,right,reversed,easy,6,,,,,
,,,,,646e53ef6c1dac9a13cd2985,001,48,F,British,Undergraduate Degree,2024-02-26_18h21.19.737,CRL1e,2023.2.3,MacIntel,60.0024001,65dbad3905fde4fe1981dc61,65dcd565e7c4e5fb9b04a285,,,,,,,,,,,598.0089,1,599.0089,599.009,600.1086,left,1,1.0979,,600.1088,601.109,5,1,41,7,1,total,2,images/Ex12.jpg,left,reversed,easy,6,,,,,
,,,,,646e53ef6c1dac9a13cd2985,001,48,F,British,Undergraduate Degree,2024-02-26_18h21.19.737,CRL1e,2023.2.3,MacIntel,60.0024001,65dbad3905fde4fe1981dc61,65dcd565e7c4e5fb9b04a285,,,,,,,,,,,601.1099,1.3,602.4091,602.4092,603.077,left,1,0.6585,,603.077,604.0758,5,2,42,6,1,total,2,images/Ex12.jpg,left,reversed,easy,6,,,,,
,,,,,646e53ef6c1dac9a13cd2985,001,48,F,British,Undergraduate Degree,2024-02-26_18h21.19.737,CRL1e,2023.2.3,MacIntel,60.0024001,65dbad3905fde4fe1981dc61,65dcd565e7c4e5fb9b04a285,,,,,,,,,,,604.0767,0.7,604.7763,604.7764,605.7092,right,1,0.9247,,605.7093,606.7102,5,3,43,2,1,total,2,images/Ex10.jpg,right,reversed,easy,6,,,,,
,,,,,646e53ef6c1dac9a13cd2985,001,48,F,British,Undergraduate Degree,2024-02-26_18h21.19.737,CRL1e,2023.2.3,MacIntel,60.0024001,65dbad3905fde4fe1981dc61,65dcd565e7c4e5fb9b04a285,,,,,,,,,,,606.711,1.4,608.1097,608.1098,608.9924,right,0,0.874,,608.9926,609.9926,5,4,44,4,1,total,2,images/Ex11.jpg,left,reversed,easy,6,,,,,
,,,,,646e53ef6c1dac9a13cd2985,001,48,F,British,Undergraduate Degree,2024-02-26_18h21.19.737,CRL1e,2023.2.3,MacIntel,60.0024001,65dbad3905fde4fe1981dc61,65dcd565e7c4e5fb9b04a285,,,,,,,,,,,609.9931,1,610.9935,610.9936,612.461,left,0,1.4647,,612.461,613.46,5,5,45,1,1,total,2,images/Ex9.jpg,right,reversed,easy,6,,,,,
,,,,,646e53ef6c1dac9a13cd2985,001,48,F,British,Undergraduate Degree,2024-02-26_18h21.19.737,CRL1e,2023.2.3,MacIntel,60.0024001,65dbad3905fde4fe1981dc61,65dcd565e7c4e5fb9b04a285,,,,,,,,,,,613.4707,1.1,614.5606,614.5608,615.3604,right,1,0.7898,,615.3604,616.3605,5,6,46,3,1,total,2,images/Ex10.jpg,right,reversed,easy,6,,,,,
,,,,,646e53ef6c1dac9a13cd2985,001,48,F,British,Undergraduate Degree,2024-02-26_18h21.19.737,CRL1e,2023.2.3,MacIntel,60.0024001,65dbad3905fde4fe1981dc61,65dcd565e7c4e5fb9b04a285,,,,,,,,,,,616.3612,0.6,616.96,616.96,617.9433,left,1,0.9821,,617.9434,618.9426,5,7,47,5,1,total,2,images/Ex11.jpg,left,reversed,easy,6,,,,,
,,,,,646e53ef6c1dac9a13cd2985,001,48,F,British,Undergraduate Degree,2024-02-26_18h21.19.737,CRL1e,2023.2.3,MacIntel,60.0024001,65dbad3905fde4fe1981dc61,65dcd565e7c4e5fb9b04a285,,,,,,,,,,,,,,,,,,,,,,,,,,,,,,,,,,618.9436,671.7963,space,52.8313,