infCons.started,infCons.stopped,resp_consent.keys,resp_consent.rt,resp_consent.duration,participant,session,Age?,Gender?,Nationality?,Highest Educational Degree?,date,expName,psychopyVersion,OS,frameRate,STUDY_ID,SESSION_ID,instructions.started,instructions.stopped,resp_instructions.keys,resp_instructions.rt,resp_instructions.duration,nextTask.started,nextTask.stopped,ready_task.keys,ready_task.rt,ready_task.duration,fixation.started,ITI,fixation.stopped,stim.started,stim.stopped,response.keys,response.corr,response.rt,response.duration,feedback.started,feedback.stopped,trials.thisRepN,trials.thisTrialN,trials.thisN,trials.thisIndex,trials.ran,task,phase,Exemplars,r_correct,condition,difficulty,set,end.started,end.stopped,resp_end.keys,resp_end.rt,resp_end.duration
0.0004,17.3219,space,17.2811,,65a54037a9c2c5d66a3601b2,001,39,Male,British,Bachelors,2024-02-26_20h16.21.062,CRL1e,2023.2.3,Win32,60.60606061,65dbad3905fde4fe1981dc61,65dcf14ccf3073155f829cfd,,,,,,,,,,,,,,,,,,,,,,,,,,,,,,,,,,,,,,
,,,,,65a54037a9c2c5d66a3601b2,001,39,Male,British,Bachelors,2024-02-26_20h16.21.062,CRL1e,2023.2.3,Win32,60.60606061,65dbad3905fde4fe1981dc61,65dcf14ccf3073155f829cfd,17.3221,69.5401,space,52.1945,,,,,,,,,,,,,,,,,,,,,,,,,,,,,,,,,,
,,,,,65a54037a9c2c5d66a3601b2,001,39,Male,British,Bachelors,2024-02-26_20h16.21.062,CRL1e,2023.2.3,Win32,60.60606061,65dbad3905fde4fe1981dc61,65dcf14ccf3073155f829cfd,,,,,,69.5495,75.2813,space,5.7129,,75.2897,1.4,76.6869,76.6871,78.7528,left,1,2.0551,,78.7531,79.7428,0,0,0,0,1,total,1,images/Ex13.jpg,left,training,easy,7,,,,,
,,,,,65a54037a9c2c5d66a3601b2,001,39,Male,British,Bachelors,2024-02-26_20h16.21.062,CRL1e,2023.2.3,Win32,60.60606061,65dbad3905fde4fe1981dc61,65dcf14ccf3073155f829cfd,,,,,,,,,,,79.7439,0.5,80.2446,80.2447,82.2817,left,1,2.035,,82.2818,83.2721,0,1,1,1,1,total,1,images/Ex13.jpg,left,training,easy,7,,,,,
,,,,,65a54037a9c2c5d66a3601b2,001,39,Male,British,Bachelors,2024-02-26_20h16.21.062,CRL1e,2023.2.3,Win32,60.60606061,65dbad3905fde4fe1981dc61,65dcf14ccf3073155f829cfd,,,,,,,,,,,83.2726,0.7,83.9713,83.9713,85.1877,right,1,1.2081,,85.1877,86.1857,0,2,2,6,1,total,1,images/Ex16.jpg,right,training,easy,7,,,,,
,,,,,65a54037a9c2c5d66a3601b2,001,39,Male,British,Bachelors,2024-02-26_20h16.21.062,CRL1e,2023.2.3,Win32,60.60606061,65dbad3905fde4fe1981dc61,65dcf14ccf3073155f829cfd,,,,,,,,,,,86.1863,1,87.1844,87.1845,87.8851,right,1,0.6928,,87.8852,88.884,0,3,3,7,1,total,1,images/Ex16.jpg,right,training,easy,7,,,,,
,,,,,65a54037a9c2c5d66a3601b2,001,39,Male,British,Bachelors,2024-02-26_20h16.21.062,CRL1e,2023.2.3,Win32,60.60606061,65dbad3905fde4fe1981dc61,65dcf14ccf3073155f829cfd,,,,,,,,,,,88.885,0.6,89.482,89.482,90.4147,left,0,0.9272,,90.4149,91.4136,0,4,4,5,1,total,1,images/Ex15.jpg,right,training,easy,7,,,,,
,,,,,65a54037a9c2c5d66a3601b2,001,39,Male,British,Bachelors,2024-02-26_20h16.21.062,CRL1e,2023.2.3,Win32,60.60606061,65dbad3905fde4fe1981dc61,65dcf14ccf3073155f829cfd,,,,,,,,,,,91.4146,0.5,91.9128,91.9128,92.9284,left,1,1.0109,,92.9286,93.9282,0,5,5,2,1,total,1,images/Ex14.jpg,left,training,easy,7,,,,,
,,,,,65a54037a9c2c5d66a3601b2,001,39,Male,British,Bachelors,2024-02-26_20h16.21.062,CRL1e,2023.2.3,Win32,60.60606061,65dbad3905fde4fe1981dc61,65dcf14ccf3073155f829cfd,,,,,,,,,,,93.929,1.2,95.1259,95.1261,96.0432,left,1,0.9083,,96.0433,97.0409,0,6,6,3,1,total,1,images/Ex14.jpg,left,training,easy,7,,,,,
,,,,,65a54037a9c2c5d66a3601b2,001,39,Male,British,Bachelors,2024-02-26_20h16.21.062,CRL1e,2023.2.3,Win32,60.60606061,65dbad3905fde4fe1981dc61,65dcf14ccf3073155f829cfd,,,,,,,,,,,97.0417,1.3,98.3393,98.3393,99.0055,right,1,0.6623,,99.0056,100.0038,0,7,7,4,1,total,1,images/Ex15.jpg,right,training,easy,7,,,,,
,,,,,65a54037a9c2c5d66a3601b2,001,39,Male,British,Bachelors,2024-02-26_20h16.21.062,CRL1e,2023.2.3,Win32,60.60606061,65dbad3905fde4fe1981dc61,65dcf14ccf3073155f829cfd,,,,,,,,,,,100.0045,1.3,101.3028,101.3029,102.0687,right,1,0.755,,102.0688,103.0677,1,0,8,5,1,total,1,images/Ex15.jpg,right,training,easy,7,,,,,
,,,,,65a54037a9c2c5d66a3601b2,001,39,Male,British,Bachelors,2024-02-26_20h16.21.062,CRL1e,2023.2.3,Win32,60.60606061,65dbad3905fde4fe1981dc61,65dcf14ccf3073155f829cfd,,,,,,,,,,,103.0683,0.6,103.6664,103.6666,104.7155,left,1,1.0457,,104.7155,105.7141,1,1,9,2,1,total,1,images/Ex14.jpg,left,training,easy,7,,,,,
,,,,,65a54037a9c2c5d66a3601b2,001,39,Male,British,Bachelors,2024-02-26_20h16.21.062,CRL1e,2023.2.3,Win32,60.60606061,65dbad3905fde4fe1981dc61,65dcf14ccf3073155f829cfd,,,,,,,,,,,105.7144,0.7,106.4134,106.4134,107.529,left,1,1.1095,,107.5291,108.5279,1,2,10,0,1,total,1,images/Ex13.jpg,left,training,easy,7,,,,,
,,,,,65a54037a9c2c5d66a3601b2,001,39,Male,British,Bachelors,2024-02-26_20h16.21.062,CRL1e,2023.2.3,Win32,60.60606061,65dbad3905fde4fe1981dc61,65dcf14ccf3073155f829cfd,,,,,,,,,,,108.5285,1.4,109.9272,109.9274,110.7765,right,1,0.8364,,110.7768,111.7741,1,3,11,7,1,total,1,images/Ex16.jpg,right,training,easy,7,,,,,
,,,,,65a54037a9c2c5d66a3601b2,001,39,Male,British,Bachelors,2024-02-26_20h16.21.062,CRL1e,2023.2.3,Win32,60.60606061,65dbad3905fde4fe1981dc61,65dcf14ccf3073155f829cfd,,,,,,,,,,,111.7747,1.3,113.0732,113.0733,113.6896,right,1,0.608,,113.6897,114.6879,1,4,12,6,1,total,1,images/Ex16.jpg,right,training,easy,7,,,,,
,,,,,65a54037a9c2c5d66a3601b2,001,39,Male,British,Bachelors,2024-02-26_20h16.21.062,CRL1e,2023.2.3,Win32,60.60606061,65dbad3905fde4fe1981dc61,65dcf14ccf3073155f829cfd,,,,,,,,,,,114.6886,0.5,115.1878,115.188,115.9205,left,1,0.7252,,115.9205,116.9188,1,5,13,1,1,total,1,images/Ex13.jpg,left,training,easy,7,,,,,
,,,,,65a54037a9c2c5d66a3601b2,001,39,Male,British,Bachelors,2024-02-26_20h16.21.062,CRL1e,2023.2.3,Win32,60.60606061,65dbad3905fde4fe1981dc61,65dcf14ccf3073155f829cfd,,,,,,,,,,,116.9196,0.5,117.4179,117.4179,118.2512,left,1,0.824,,118.2513,119.2497,1,6,14,3,1,total,1,images/Ex14.jpg,left,training,easy,7,,,,,
,,,,,65a54037a9c2c5d66a3601b2,001,39,Male,British,Bachelors,2024-02-26_20h16.21.062,CRL1e,2023.2.3,Win32,60.60606061,65dbad3905fde4fe1981dc61,65dcf14ccf3073155f829cfd,,,,,,,,,,,119.2505,0.9,120.1485,120.1485,120.8144,right,1,0.6565,,120.8146,121.8137,1,7,15,4,1,total,1,images/Ex15.jpg,right,training,easy,7,,,,,
,,,,,65a54037a9c2c5d66a3601b2,001,39,Male,British,Bachelors,2024-02-26_20h16.21.062,CRL1e,2023.2.3,Win32,60.60606061,65dbad3905fde4fe1981dc61,65dcf14ccf3073155f829cfd,,,,,,,,,,,121.8144,1,122.8119,122.812,123.3627,left,1,0.5396,,123.3628,124.3602,2,0,16,3,1,total,1,images/Ex14.jpg,left,training,easy,7,,,,,
,,,,,65a54037a9c2c5d66a3601b2,001,39,Male,British,Bachelors,2024-02-26_20h16.21.062,CRL1e,2023.2.3,Win32,60.60606061,65dbad3905fde4fe1981dc61,65dcf14ccf3073155f829cfd,,,,,,,,,,,124.3605,0.6,124.9599,124.9599,126.4255,right,1,1.4529,,126.4257,127.4247,2,1,17,5,1,total,1,images/Ex15.jpg,right,training,easy,7,,,,,
,,,,,65a54037a9c2c5d66a3601b2,001,39,Male,British,Bachelors,2024-02-26_20h16.21.062,CRL1e,2023.2.3,Win32,60.60606061,65dbad3905fde4fe1981dc61,65dcf14ccf3073155f829cfd,,,,,,,,,,,127.4253,1.4,128.8231,128.8231,129.505,left,1,0.6745,,129.5052,130.5038,2,2,18,2,1,total,1,images/Ex14.jpg,left,training,easy,7,,,,,
,,,,,65a54037a9c2c5d66a3601b2,001,39,Male,British,Bachelors,2024-02-26_20h16.21.062,CRL1e,2023.2.3,Win32,60.60606061,65dbad3905fde4fe1981dc61,65dcf14ccf3073155f829cfd,,,,,,,,,,,130.5046,0.9,131.4034,131.4036,132.1027,right,1,0.6871,,132.1029,133.1016,2,3,19,4,1,total,1,images/Ex15.jpg,right,training,easy,7,,,,,
,,,,,65a54037a9c2c5d66a3601b2,001,39,Male,British,Bachelors,2024-02-26_20h16.21.062,CRL1e,2023.2.3,Win32,60.60606061,65dbad3905fde4fe1981dc61,65dcf14ccf3073155f829cfd,,,,,,,,,,,133.1025,1.3,134.3998,134.4,135.0996,left,1,0.6893,,135.0998,136.0982,2,4,20,0,1,total,1,images/Ex13.jpg,left,training,easy,7,,,,,
,,,,,65a54037a9c2c5d66a3601b2,001,39,Male,British,Bachelors,2024-02-26_20h16.21.062,CRL1e,2023.2.3,Win32,60.60606061,65dbad3905fde4fe1981dc61,65dcf14ccf3073155f829cfd,,,,,,,,,,,136.0992,0.8,136.887,136.8871,137.5301,right,1,0.6363,,137.5303,138.5287,2,5,21,7,1,total,1,images/Ex16.jpg,right,training,easy,7,,,,,
,,,,,65a54037a9c2c5d66a3601b2,001,39,Male,British,Bachelors,2024-02-26_20h16.21.062,CRL1e,2023.2.3,Win32,60.60606061,65dbad3905fde4fe1981dc61,65dcf14ccf3073155f829cfd,,,,,,,,,,,138.5295,1.3,139.8273,139.8274,140.6601,left,1,0.8281,,140.6602,141.6585,2,6,22,1,1,total,1,images/Ex13.jpg,left,training,easy,7,,,,,
,,,,,65a54037a9c2c5d66a3601b2,001,39,Male,British,Bachelors,2024-02-26_20h16.21.062,CRL1e,2023.2.3,Win32,60.60606061,65dbad3905fde4fe1981dc61,65dcf14ccf3073155f829cfd,,,,,,,,,,,141.6594,0.9,142.5577,142.5578,143.1574,right,1,0.5879,,143.1575,144.1595,2,7,23,6,1,total,1,images/Ex16.jpg,right,training,easy,7,,,,,
,,,,,65a54037a9c2c5d66a3601b2,001,39,Male,British,Bachelors,2024-02-26_20h16.21.062,CRL1e,2023.2.3,Win32,60.60606061,65dbad3905fde4fe1981dc61,65dcf14ccf3073155f829cfd,,,,,,,,,,,144.16,0.8,144.9543,144.9545,145.6447,right,1,0.6881,,145.6447,146.6367,3,0,24,5,1,total,1,images/Ex15.jpg,right,training,easy,7,,,,,
,,,,,65a54037a9c2c5d66a3601b2,001,39,Male,British,Bachelors,2024-02-26_20h16.21.062,CRL1e,2023.2.3,Win32,60.60606061,65dbad3905fde4fe1981dc61,65dcf14ccf3073155f829cfd,,,,,,,,,,,146.6384,1.4,148.0342,148.0344,148.6707,right,1,0.6343,,148.6708,149.666,3,1,25,4,1,total,1,images/Ex15.jpg,right,training,easy,7,,,,,
,,,,,65a54037a9c2c5d66a3601b2,001,39,Male,British,Bachelors,2024-02-26_20h16.21.062,CRL1e,2023.2.3,Win32,60.60606061,65dbad3905fde4fe1981dc61,65dcf14ccf3073155f829cfd,,,,,,,,,,,149.6675,0.6,150.2583,150.2583,150.9218,left,1,0.6625,,150.9218,151.9134,3,2,26,2,1,total,1,images/Ex14.jpg,left,training,easy,7,,,,,
,,,,,65a54037a9c2c5d66a3601b2,001,39,Male,British,Bachelors,2024-02-26_20h16.21.062,CRL1e,2023.2.3,Win32,60.60606061,65dbad3905fde4fe1981dc61,65dcf14ccf3073155f829cfd,,,,,,,,,,,151.9147,1.2,153.119,153.119,153.6958,left,1,0.5673,,153.6959,154.6979,3,3,27,3,1,total,1,images/Ex14.jpg,left,training,easy,7,,,,,
,,,,,65a54037a9c2c5d66a3601b2,001,39,Male,British,Bachelors,2024-02-26_20h16.21.062,CRL1e,2023.2.3,Win32,60.60606061,65dbad3905fde4fe1981dc61,65dcf14ccf3073155f829cfd,,,,,,,,,,,154.6984,1.4,156.0922,156.0924,156.8758,left,1,0.7706,,156.8759,157.874,3,4,28,0,1,total,1,images/Ex13.jpg,left,training,easy,7,,,,,
,,,,,65a54037a9c2c5d66a3601b2,001,39,Male,British,Bachelors,2024-02-26_20h16.21.062,CRL1e,2023.2.3,Win32,60.60606061,65dbad3905fde4fe1981dc61,65dcf14ccf3073155f829cfd,,,,,,,,,,,157.875,1.1,158.9731,158.9733,159.7292,left,1,0.7543,,159.7293,160.7208,3,5,29,1,1,total,1,images/Ex13.jpg,left,training,easy,7,,,,,
,,,,,65a54037a9c2c5d66a3601b2,001,39,Male,British,Bachelors,2024-02-26_20h16.21.062,CRL1e,2023.2.3,Win32,60.60606061,65dbad3905fde4fe1981dc61,65dcf14ccf3073155f829cfd,,,,,,,,,,,160.7216,1,161.72,161.72,162.4694,right,1,0.7382,,162.4694,163.4677,3,6,30,7,1,total,1,images/Ex16.jpg,right,training,easy,7,,,,,
,,,,,65a54037a9c2c5d66a3601b2,001,39,Male,British,Bachelors,2024-02-26_20h16.21.062,CRL1e,2023.2.3,Win32,60.60606061,65dbad3905fde4fe1981dc61,65dcf14ccf3073155f829cfd,,,,,,,,,,,163.4684,1,164.4669,164.4671,165.2164,right,1,0.7477,,165.2165,166.2148,3,7,31,6,1,total,1,images/Ex16.jpg,right,training,easy,7,,,,,
,,,,,65a54037a9c2c5d66a3601b2,001,39,Male,British,Bachelors,2024-02-26_20h16.21.062,CRL1e,2023.2.3,Win32,60.60606061,65dbad3905fde4fe1981dc61,65dcf14ccf3073155f829cfd,,,,,,,,,,,166.2155,0.6,166.814,166.814,167.3963,left,1,0.573,,167.3963,168.396,4,0,32,3,1,total,1,images/Ex14.jpg,left,training,easy,7,,,,,
,,,,,65a54037a9c2c5d66a3601b2,001,39,Male,British,Bachelors,2024-02-26_20h16.21.062,CRL1e,2023.2.3,Win32,60.60606061,65dbad3905fde4fe1981dc61,65dcf14ccf3073155f829cfd,,,,,,,,,,,168.3969,0.9,169.2944,169.2945,169.9105,right,1,0.6044,,169.9105,170.9096,4,1,33,5,1,total,1,images/Ex15.jpg,right,training,easy,7,,,,,
,,,,,65a54037a9c2c5d66a3601b2,001,39,Male,British,Bachelors,2024-02-26_20h16.21.062,CRL1e,2023.2.3,Win32,60.60606061,65dbad3905fde4fe1981dc61,65dcf14ccf3073155f829cfd,,,,,,,,,,,170.9103,0.9,171.8086,171.8087,172.4581,right,1,0.6479,,172.4581,173.4571,4,2,34,7,1,total,1,images/Ex16.jpg,right,training,easy,7,,,,,
,,,,,65a54037a9c2c5d66a3601b2,001,39,Male,British,Bachelors,2024-02-26_20h16.21.062,CRL1e,2023.2.3,Win32,60.60606061,65dbad3905fde4fe1981dc61,65dcf14ccf3073155f829cfd,,,,,,,,,,,173.4581,1.1,174.5559,174.556,175.1899,left,1,0.6214,,175.1901,176.1877,4,3,35,1,1,total,1,images/Ex13.jpg,left,training,easy,7,,,,,
,,,,,65a54037a9c2c5d66a3601b2,001,39,Male,British,Bachelors,2024-02-26_20h16.21.062,CRL1e,2023.2.3,Win32,60.60606061,65dbad3905fde4fe1981dc61,65dcf14ccf3073155f829cfd,,,,,,,,,,,176.189,0.7,176.8869,176.887,177.5028,right,1,0.6047,,177.5029,178.502,4,4,36,4,1,total,1,images/Ex15.jpg,right,training,easy,7,,,,,
,,,,,65a54037a9c2c5d66a3601b2,001,39,Male,British,Bachelors,2024-02-26_20h16.21.062,CRL1e,2023.2.3,Win32,60.60606061,65dbad3905fde4fe1981dc61,65dcf14ccf3073155f829cfd,,,,,,,,,,,178.5026,1.3,179.7999,179.8,180.3502,left,1,0.543,,180.3505,181.3486,4,5,37,2,1,total,1,images/Ex14.jpg,left,training,easy,7,,,,,
,,,,,65a54037a9c2c5d66a3601b2,001,39,Male,British,Bachelors,2024-02-26_20h16.21.062,CRL1e,2023.2.3,Win32,60.60606061,65dbad3905fde4fe1981dc61,65dcf14ccf3073155f829cfd,,,,,,,,,,,181.35,0.7,182.0477,182.0479,182.6133,right,1,0.556,,182.6133,183.612,4,6,38,6,1,total,1,images/Ex16.jpg,right,training,easy,7,,,,,
,,,,,65a54037a9c2c5d66a3601b2,001,39,Male,British,Bachelors,2024-02-26_20h16.21.062,CRL1e,2023.2.3,Win32,60.60606061,65dbad3905fde4fe1981dc61,65dcf14ccf3073155f829cfd,,,,,,,,,,,183.6126,1.3,184.9107,184.9108,185.3111,left,1,0.3903,,185.3113,186.3095,4,7,39,0,1,total,1,images/Ex13.jpg,left,training,easy,7,,,,,
,,,,,65a54037a9c2c5d66a3601b2,001,39,Male,British,Bachelors,2024-02-26_20h16.21.062,CRL1e,2023.2.3,Win32,60.60606061,65dbad3905fde4fe1981dc61,65dcf14ccf3073155f829cfd,,,,,,,,,,,186.3103,1,187.3083,187.3083,187.892,right,1,0.5715,,187.8921,188.8898,5,0,40,4,1,total,1,images/Ex15.jpg,right,training,easy,7,,,,,
,,,,,65a54037a9c2c5d66a3601b2,001,39,Male,British,Bachelors,2024-02-26_20h16.21.062,CRL1e,2023.2.3,Win32,60.60606061,65dbad3905fde4fe1981dc61,65dcf14ccf3073155f829cfd,,,,,,,,,,,188.8906,0.9,189.7888,189.7889,190.4551,left,1,0.655,,190.4553,191.4532,5,1,41,0,1,total,1,images/Ex13.jpg,left,training,easy,7,,,,,
,,,,,65a54037a9c2c5d66a3601b2,001,39,Male,British,Bachelors,2024-02-26_20h16.21.062,CRL1e,2023.2.3,Win32,60.60606061,65dbad3905fde4fe1981dc61,65dcf14ccf3073155f829cfd,,,,,,,,,,,191.454,0.6,192.0528,192.0529,192.6196,left,1,0.5549,,192.6196,193.6176,5,2,42,1,1,total,1,images/Ex13.jpg,left,training,easy,7,,,,,
,,,,,65a54037a9c2c5d66a3601b2,001,39,Male,British,Bachelors,2024-02-26_20h16.21.062,CRL1e,2023.2.3,Win32,60.60606061,65dbad3905fde4fe1981dc61,65dcf14ccf3073155f829cfd,,,,,,,,,,,193.6185,1,194.6165,194.6166,195.2673,left,1,0.6398,,195.2677,196.2653,5,3,43,3,1,total,1,images/Ex14.jpg,left,training,easy,7,,,,,
,,,,,65a54037a9c2c5d66a3601b2,001,39,Male,British,Bachelors,2024-02-26_20h16.21.062,CRL1e,2023.2.3,Win32,60.60606061,65dbad3905fde4fe1981dc61,65dcf14ccf3073155f829cfd,,,,,,,,,,,196.2673,1.3,197.5638,197.564,198.1632,right,1,0.5901,,198.1632,199.1614,5,4,44,6,1,total,1,images/Ex16.jpg,right,training,easy,7,,,,,
,,,,,65a54037a9c2c5d66a3601b2,001,39,Male,British,Bachelors,2024-02-26_20h16.21.062,CRL1e,2023.2.3,Win32,60.60606061,65dbad3905fde4fe1981dc61,65dcf14ccf3073155f829cfd,,,,,,,,,,,199.1621,0.6,199.7609,199.7609,200.3777,right,1,0.608,,200.3778,201.3762,5,5,45,5,1,total,1,images/Ex15.jpg,right,training,easy,7,,,,,
,,,,,65a54037a9c2c5d66a3601b2,001,39,Male,British,Bachelors,2024-02-26_20h16.21.062,CRL1e,2023.2.3,Win32,60.60606061,65dbad3905fde4fe1981dc61,65dcf14ccf3073155f829cfd,,,,,,,,,,,201.3772,1.3,202.6747,202.6747,203.241,left,1,0.5626,,203.241,204.2399,5,6,46,2,1,total,1,images/Ex14.jpg,left,training,easy,7,,,,,
,,,,,65a54037a9c2c5d66a3601b2,001,39,Male,British,Bachelors,2024-02-26_20h16.21.062,CRL1e,2023.2.3,Win32,60.60606061,65dbad3905fde4fe1981dc61,65dcf14ccf3073155f829cfd,,,,,,,,,,,204.2405,1.4,205.6378,205.6379,206.0882,right,1,0.4418,,206.0884,207.0871,5,7,47,7,1,total,1,images/Ex16.jpg,right,training,easy,7,,,,,
,,,,,65a54037a9c2c5d66a3601b2,001,39,Male,British,Bachelors,2024-02-26_20h16.21.062,CRL1e,2023.2.3,Win32,60.60606061,65dbad3905fde4fe1981dc61,65dcf14ccf3073155f829cfd,,,,,,,,,,,207.0957,1.1,208.1859,208.1859,208.8358,left,0,0.6401,,208.836,209.8342,0,0,0,2,1,total,2,images/Ex14.jpg,right,reversed,easy,7,,,,,
,,,,,65a54037a9c2c5d66a3601b2,001,39,Male,British,Bachelors,2024-02-26_20h16.21.062,CRL1e,2023.2.3,Win32,60.60606061,65dbad3905fde4fe1981dc61,65dcf14ccf3073155f829cfd,,,,,,,,,,,209.8351,1.4,211.2318,211.2319,211.832,right,0,0.5879,,211.8321,212.8305,0,1,1,6,1,total,2,images/Ex16.jpg,left,reversed,easy,7,,,,,
,,,,,65a54037a9c2c5d66a3601b2,001,39,Male,British,Bachelors,2024-02-26_20h16.21.062,CRL1e,2023.2.3,Win32,60.60606061,65dbad3905fde4fe1981dc61,65dcf14ccf3073155f829cfd,,,,,,,,,,,212.8312,0.9,213.7292,213.7292,214.7956,left,1,1.0574,,214.7958,215.7933,0,2,2,4,1,total,2,images/Ex15.jpg,left,reversed,easy,7,,,,,
,,,,,65a54037a9c2c5d66a3601b2,001,39,Male,British,Bachelors,2024-02-26_20h16.21.062,CRL1e,2023.2.3,Win32,60.60606061,65dbad3905fde4fe1981dc61,65dcf14ccf3073155f829cfd,,,,,,,,,,,215.7939,1.1,216.8927,216.8928,217.6085,right,1,0.7084,,217.6086,218.6072,0,3,3,1,1,total,2,images/Ex13.jpg,right,reversed,easy,7,,,,,
,,,,,65a54037a9c2c5d66a3601b2,001,39,Male,British,Bachelors,2024-02-26_20h16.21.062,CRL1e,2023.2.3,Win32,60.60606061,65dbad3905fde4fe1981dc61,65dcf14ccf3073155f829cfd,,,,,,,,,,,218.6081,0.7,219.3068,219.307,220.1721,right,1,0.8577,,220.1722,221.1709,0,4,4,3,1,total,2,images/Ex14.jpg,right,reversed,easy,7,,,,,
,,,,,65a54037a9c2c5d66a3601b2,001,39,Male,British,Bachelors,2024-02-26_20h16.21.062,CRL1e,2023.2.3,Win32,60.60606061,65dbad3905fde4fe1981dc61,65dcf14ccf3073155f829cfd,,,,,,,,,,,221.1719,1.3,222.4693,222.4694,223.352,left,1,0.8751,,223.3521,224.3508,0,5,5,5,1,total,2,images/Ex15.jpg,left,reversed,easy,7,,,,,
,,,,,65a54037a9c2c5d66a3601b2,001,39,Male,British,Bachelors,2024-02-26_20h16.21.062,CRL1e,2023.2.3,Win32,60.60606061,65dbad3905fde4fe1981dc61,65dcf14ccf3073155f829cfd,,,,,,,,,,,224.3517,1.1,225.4498,225.45,226.8824,right,1,1.4207,,226.8825,227.8713,0,6,6,0,1,total,2,images/Ex13.jpg,right,reversed,easy,7,,,,,
,,,,,65a54037a9c2c5d66a3601b2,001,39,Male,British,Bachelors,2024-02-26_20h16.21.062,CRL1e,2023.2.3,Win32,60.60606061,65dbad3905fde4fe1981dc61,65dcf14ccf3073155f829cfd,,,,,,,,,,,227.8716,1.4,229.2691,229.2692,230.2849,left,1,1.0141,,230.285,231.2765,0,7,7,7,1,total,2,images/Ex16.jpg,left,reversed,easy,7,,,,,
,,,,,65a54037a9c2c5d66a3601b2,001,39,Male,British,Bachelors,2024-02-26_20h16.21.062,CRL1e,2023.2.3,Win32,60.60606061,65dbad3905fde4fe1981dc61,65dcf14ccf3073155f829cfd,,,,,,,,,,,231.2777,1.1,232.3752,232.3754,233.2425,left,1,0.8559,,233.2427,234.2309,1,0,8,7,1,total,2,images/Ex16.jpg,left,reversed,easy,7,,,,,
,,,,,65a54037a9c2c5d66a3601b2,001,39,Male,British,Bachelors,2024-02-26_20h16.21.062,CRL1e,2023.2.3,Win32,60.60606061,65dbad3905fde4fe1981dc61,65dcf14ccf3073155f829cfd,,,,,,,,,,,234.2317,0.7,234.9291,234.9292,235.6561,right,1,0.7188,,235.6563,236.6545,1,1,9,3,1,total,2,images/Ex14.jpg,right,reversed,easy,7,,,,,
,,,,,65a54037a9c2c5d66a3601b2,001,39,Male,British,Bachelors,2024-02-26_20h16.21.062,CRL1e,2023.2.3,Win32,60.60606061,65dbad3905fde4fe1981dc61,65dcf14ccf3073155f829cfd,,,,,,,,,,,236.6563,1.4,238.0525,238.0527,238.8529,right,1,0.7941,,238.853,239.8508,1,2,10,0,1,total,2,images/Ex13.jpg,right,reversed,easy,7,,,,,
,,,,,65a54037a9c2c5d66a3601b2,001,39,Male,British,Bachelors,2024-02-26_20h16.21.062,CRL1e,2023.2.3,Win32,60.60606061,65dbad3905fde4fe1981dc61,65dcf14ccf3073155f829cfd,,,,,,,,,,,239.8517,1.5,241.3486,241.3489,242.7051,left,1,1.3535,,242.7052,243.6965,1,3,11,4,1,total,2,images/Ex15.jpg,left,reversed,easy,7,,,,,
,,,,,65a54037a9c2c5d66a3601b2,001,39,Male,British,Bachelors,2024-02-26_20h16.21.062,CRL1e,2023.2.3,Win32,60.60606061,65dbad3905fde4fe1981dc61,65dcf14ccf3073155f829cfd,,,,,,,,,,,243.6981,1.1,244.795,244.7953,245.6618,right,1,0.8546,,245.6618,246.6603,1,4,12,1,1,total,2,images/Ex13.jpg,right,reversed,easy,7,,,,,
,,,,,65a54037a9c2c5d66a3601b2,001,39,Male,British,Bachelors,2024-02-26_20h16.21.062,CRL1e,2023.2.3,Win32,60.60606061,65dbad3905fde4fe1981dc61,65dcf14ccf3073155f829cfd,,,,,,,,,,,246.6617,0.8,247.459,247.4593,249.0481,left,1,1.5861,,249.0482,250.0454,1,5,13,5,1,total,2,images/Ex15.jpg,left,reversed,easy,7,,,,,
,,,,,65a54037a9c2c5d66a3601b2,001,39,Male,British,Bachelors,2024-02-26_20h16.21.062,CRL1e,2023.2.3,Win32,60.60606061,65dbad3905fde4fe1981dc61,65dcf14ccf3073155f829cfd,,,,,,,,,,,250.0461,0.5,250.545,250.5451,251.6385,left,1,1.0828,,251.6386,252.6369,1,6,14,6,1,total,2,images/Ex16.jpg,left,reversed,easy,7,,,,,
,,,,,65a54037a9c2c5d66a3601b2,001,39,Male,British,Bachelors,2024-02-26_20h16.21.062,CRL1e,2023.2.3,Win32,60.60606061,65dbad3905fde4fe1981dc61,65dcf14ccf3073155f829cfd,,,,,,,,,,,252.6383,1.3,253.935,253.9353,255.3741,right,1,1.4356,,255.3742,256.3656,1,7,15,2,1,total,2,images/Ex14.jpg,right,reversed,easy,7,,,,,
,,,,,65a54037a9c2c5d66a3601b2,001,39,Male,British,Bachelors,2024-02-26_20h16.21.062,CRL1e,2023.2.3,Win32,60.60606061,65dbad3905fde4fe1981dc61,65dcf14ccf3073155f829cfd,,,,,,,,,,,256.3682,1.4,257.7709,257.7709,258.7674,right,1,0.9953,,258.7674,259.7622,2,0,16,0,1,total,2,images/Ex13.jpg,right,reversed,easy,7,,,,,
,,,,,65a54037a9c2c5d66a3601b2,001,39,Male,British,Bachelors,2024-02-26_20h16.21.062,CRL1e,2023.2.3,Win32,60.60606061,65dbad3905fde4fe1981dc61,65dcf14ccf3073155f829cfd,,,,,,,,,,,259.763,0.9,260.6513,260.6514,261.5509,right,1,0.8984,,261.551,262.5487,2,1,17,2,1,total,2,images/Ex14.jpg,right,reversed,easy,7,,,,,
,,,,,65a54037a9c2c5d66a3601b2,001,39,Male,British,Bachelors,2024-02-26_20h16.21.062,CRL1e,2023.2.3,Win32,60.60606061,65dbad3905fde4fe1981dc61,65dcf14ccf3073155f829cfd,,,,,,,,,,,262.549,1.1,263.6476,263.6477,265.1891,left,1,1.5333,,265.1892,266.1785,2,2,18,4,1,total,2,images/Ex15.jpg,left,reversed,easy,7,,,,,
,,,,,65a54037a9c2c5d66a3601b2,001,39,Male,British,Bachelors,2024-02-26_20h16.21.062,CRL1e,2023.2.3,Win32,60.60606061,65dbad3905fde4fe1981dc61,65dcf14ccf3073155f829cfd,,,,,,,,,,,266.1789,1,267.1767,267.1767,268.2874,left,1,1.1082,,268.2877,269.2893,2,3,19,7,1,total,2,images/Ex16.jpg,left,reversed,easy,7,,,,,
,,,,,65a54037a9c2c5d66a3601b2,001,39,Male,British,Bachelors,2024-02-26_20h16.21.062,CRL1e,2023.2.3,Win32,60.60606061,65dbad3905fde4fe1981dc61,65dcf14ccf3073155f829cfd,,,,,,,,,,,269.2898,1.4,270.6837,270.6838,272.1157,left,1,1.4282,,272.1159,273.121,2,4,20,5,1,total,2,images/Ex15.jpg,left,reversed,easy,7,,,,,
,,,,,65a54037a9c2c5d66a3601b2,001,39,Male,British,Bachelors,2024-02-26_20h16.21.062,CRL1e,2023.2.3,Win32,60.60606061,65dbad3905fde4fe1981dc61,65dcf14ccf3073155f829cfd,,,,,,,,,,,273.1216,1,274.1098,274.1099,274.9129,left,1,0.7915,,274.913,275.9112,2,5,21,6,1,total,2,images/Ex16.jpg,left,reversed,easy,7,,,,,
,,,,,65a54037a9c2c5d66a3601b2,001,39,Male,British,Bachelors,2024-02-26_20h16.21.062,CRL1e,2023.2.3,Win32,60.60606061,65dbad3905fde4fe1981dc61,65dcf14ccf3073155f829cfd,,,,,,,,,,,275.9119,1.5,277.4093,277.4094,278.3415,right,1,0.9275,,278.3416,279.3401,2,6,22,3,1,total,2,images/Ex14.jpg,right,reversed,easy,7,,,,,
,,,,,65a54037a9c2c5d66a3601b2,001,39,Male,British,Bachelors,2024-02-26_20h16.21.062,CRL1e,2023.2.3,Win32,60.60606061,65dbad3905fde4fe1981dc61,65dcf14ccf3073155f829cfd,,,,,,,,,,,279.3404,0.5,279.8396,279.8397,280.7894,right,1,0.9388,,280.7896,281.7882,2,7,23,1,1,total,2,images/Ex13.jpg,right,reversed,easy,7,,,,,
,,,,,65a54037a9c2c5d66a3601b2,001,39,Male,British,Bachelors,2024-02-26_20h16.21.062,CRL1e,2023.2.3,Win32,60.60606061,65dbad3905fde4fe1981dc61,65dcf14ccf3073155f829cfd,,,,,,,,,,,281.7896,0.8,282.5878,282.5879,283.236,right,1,0.6397,,283.2361,284.2348,3,0,24,1,1,total,2,images/Ex13.jpg,right,reversed,easy,7,,,,,
,,,,,65a54037a9c2c5d66a3601b2,001,39,Male,British,Bachelors,2024-02-26_20h16.21.062,CRL1e,2023.2.3,Win32,60.60606061,65dbad3905fde4fe1981dc61,65dcf14ccf3073155f829cfd,,,,,,,,,,,284.2353,0.9,285.1348,285.1348,286.7497,right,1,1.606,,286.7497,287.7476,3,1,25,2,1,total,2,images/Ex14.jpg,right,reversed,easy,7,,,,,
,,,,,65a54037a9c2c5d66a3601b2,001,39,Male,British,Bachelors,2024-02-26_20h16.21.062,CRL1e,2023.2.3,Win32,60.60606061,65dbad3905fde4fe1981dc61,65dcf14ccf3073155f829cfd,,,,,,,,,,,287.7483,1.4,289.1468,289.1468,289.8788,right,1,0.7226,,289.8789,290.8781,3,2,26,0,1,total,2,images/Ex13.jpg,right,reversed,easy,7,,,,,
,,,,,65a54037a9c2c5d66a3601b2,001,39,Male,British,Bachelors,2024-02-26_20h16.21.062,CRL1e,2023.2.3,Win32,60.60606061,65dbad3905fde4fe1981dc61,65dcf14ccf3073155f829cfd,,,,,,,,,,,290.8787,0.6,291.4775,291.4776,292.6591,left,1,1.1769,,292.6593,293.658,3,3,27,7,1,total,2,images/Ex16.jpg,left,reversed,easy,7,,,,,
,,,,,65a54037a9c2c5d66a3601b2,001,39,Male,British,Bachelors,2024-02-26_20h16.21.062,CRL1e,2023.2.3,Win32,60.60606061,65dbad3905fde4fe1981dc61,65dcf14ccf3073155f829cfd,,,,,,,,,,,293.6586,1.3,294.9571,294.9573,297.155,right,1,2.1879,,297.1551,298.1537,3,4,28,3,1,total,2,images/Ex14.jpg,right,reversed,easy,7,,,,,
,,,,,65a54037a9c2c5d66a3601b2,001,39,Male,British,Bachelors,2024-02-26_20h16.21.062,CRL1e,2023.2.3,Win32,60.60606061,65dbad3905fde4fe1981dc61,65dcf14ccf3073155f829cfd,,,,,,,,,,,298.1548,1.4,299.552,299.5522,300.6508,left,1,1.0966,,300.651,301.6493,3,5,29,5,1,total,2,images/Ex15.jpg,left,reversed,easy,7,,,,,
,,,,,65a54037a9c2c5d66a3601b2,001,39,Male,British,Bachelors,2024-02-26_20h16.21.062,CRL1e,2023.2.3,Win32,60.60606061,65dbad3905fde4fe1981dc61,65dcf14ccf3073155f829cfd,,,,,,,,,,,301.6499,1.3,302.9481,302.9481,303.8486,left,1,0.891,,303.8487,304.8463,3,6,30,4,1,total,2,images/Ex15.jpg,left,reversed,easy,7,,,,,
,,,,,65a54037a9c2c5d66a3601b2,001,39,Male,British,Bachelors,2024-02-26_20h16.21.062,CRL1e,2023.2.3,Win32,60.60606061,65dbad3905fde4fe1981dc61,65dcf14ccf3073155f829cfd,,,,,,,,,,,304.8471,1.4,306.2448,306.2449,306.9284,left,1,0.6716,,306.9284,307.9266,3,7,31,6,1,total,2,images/Ex16.jpg,left,reversed,easy,7,,,,,
,,,,,65a54037a9c2c5d66a3601b2,001,39,Male,British,Bachelors,2024-02-26_20h16.21.062,CRL1e,2023.2.3,Win32,60.60606061,65dbad3905fde4fe1981dc61,65dcf14ccf3073155f829cfd,,,,,,,,,,,307.9276,0.5,308.4253,308.4253,309.3414,left,1,0.9042,,309.3415,310.3395,4,0,32,5,1,total,2,images/Ex15.jpg,left,reversed,easy,7,,,,,
,,,,,65a54037a9c2c5d66a3601b2,001,39,Male,British,Bachelors,2024-02-26_20h16.21.062,CRL1e,2023.2.3,Win32,60.60606061,65dbad3905fde4fe1981dc61,65dcf14ccf3073155f829cfd,,,,,,,,,,,310.3401,1.1,311.4382,311.4383,313.0199,right,1,1.5762,,313.02,314.0187,4,1,33,3,1,total,2,images/Ex14.jpg,right,reversed,easy,7,,,,,
,,,,,65a54037a9c2c5d66a3601b2,001,39,Male,British,Bachelors,2024-02-26_20h16.21.062,CRL1e,2023.2.3,Win32,60.60606061,65dbad3905fde4fe1981dc61,65dcf14ccf3073155f829cfd,,,,,,,,,,,314.0192,0.8,314.8178,314.8179,316.6827,right,1,1.8604,,316.6828,317.6813,4,2,34,2,1,total,2,images/Ex14.jpg,right,reversed,easy,7,,,,,
,,,,,65a54037a9c2c5d66a3601b2,001,39,Male,British,Bachelors,2024-02-26_20h16.21.062,CRL1e,2023.2.3,Win32,60.60606061,65dbad3905fde4fe1981dc61,65dcf14ccf3073155f829cfd,,,,,,,,,,,317.6819,0.8,318.4805,318.4806,319.1967,right,1,0.707,,319.1968,320.1952,4,3,35,0,1,total,2,images/Ex13.jpg,right,reversed,easy,7,,,,,
,,,,,65a54037a9c2c5d66a3601b2,001,39,Male,British,Bachelors,2024-02-26_20h16.21.062,CRL1e,2023.2.3,Win32,60.60606061,65dbad3905fde4fe1981dc61,65dcf14ccf3073155f829cfd,,,,,,,,,,,320.1956,0.7,320.8945,320.8945,321.6783,left,1,0.7776,,321.6784,322.6764,4,4,36,7,1,total,2,images/Ex16.jpg,left,reversed,easy,7,,,,,
,,,,,65a54037a9c2c5d66a3601b2,001,39,Male,British,Bachelors,2024-02-26_20h16.21.062,CRL1e,2023.2.3,Win32,60.60606061,65dbad3905fde4fe1981dc61,65dcf14ccf3073155f829cfd,,,,,,,,,,,322.6771,1.4,324.0749,324.0751,325.058,right,1,0.975,,325.0582,326.0561,4,5,37,1,1,total,2,images/Ex13.jpg,right,reversed,easy,7,,,,,
,,,,,65a54037a9c2c5d66a3601b2,001,39,Male,British,Bachelors,2024-02-26_20h16.21.062,CRL1e,2023.2.3,Win32,60.60606061,65dbad3905fde4fe1981dc61,65dcf14ccf3073155f829cfd,,,,,,,,,,,326.0574,1,327.055,327.055,328.737,left,1,1.6728,,328.7371,329.7355,4,6,38,4,1,total,2,images/Ex15.jpg,left,reversed,easy,7,,,,,
,,,,,65a54037a9c2c5d66a3601b2,001,39,Male,British,Bachelors,2024-02-26_20h16.21.062,CRL1e,2023.2.3,Win32,60.60606061,65dbad3905fde4fe1981dc61,65dcf14ccf3073155f829cfd,,,,,,,,,,,329.7366,1.1,330.8337,330.8337,331.5333,left,1,0.6957,,331.5334,332.5324,4,7,39,6,1,total,2,images/Ex16.jpg,left,reversed,easy,7,,,,,
,,,,,65a54037a9c2c5d66a3601b2,001,39,Male,British,Bachelors,2024-02-26_20h16.21.062,CRL1e,2023.2.3,Win32,60.60606061,65dbad3905fde4fe1981dc61,65dcf14ccf3073155f829cfd,,,,,,,,,,,332.533,0.8,333.3314,333.3316,333.9138,right,1,0.5793,,333.9139,334.9134,5,0,40,3,1,total,2,images/Ex14.jpg,right,reversed,easy,7,,,,,
,,,,,65a54037a9c2c5d66a3601b2,001,39,Male,British,Bachelors,2024-02-26_20h16.21.062,CRL1e,2023.2.3,Win32,60.60606061,65dbad3905fde4fe1981dc61,65dcf14ccf3073155f829cfd,,,,,,,,,,,334.9142,0.7,335.6119,335.6119,336.2623,left,1,0.6485,,336.2624,337.2603,5,1,41,4,1,total,2,images/Ex15.jpg,left,reversed,easy,7,,,,,
,,,,,65a54037a9c2c5d66a3601b2,001,39,Male,British,Bachelors,2024-02-26_20h16.21.062,CRL1e,2023.2.3,Win32,60.60606061,65dbad3905fde4fe1981dc61,65dcf14ccf3073155f829cfd,,,,,,,,,,,337.2609,1.4,338.5256,338.5257,339.8586,right,1,1.3224,,339.8587,340.8559,5,2,42,0,1,total,2,images/Ex13.jpg,right,reversed,easy,7,,,,,
,,,,,65a54037a9c2c5d66a3601b2,001,39,Male,British,Bachelors,2024-02-26_20h16.21.062,CRL1e,2023.2.3,Win32,60.60606061,65dbad3905fde4fe1981dc61,65dcf14ccf3073155f829cfd,,,,,,,,,,,340.8563,1.3,342.1545,342.1545,342.9895,right,1,0.8331,,342.9895,343.9871,5,3,43,2,1,total,2,images/Ex14.jpg,right,reversed,easy,7,,,,,
,,,,,65a54037a9c2c5d66a3601b2,001,39,Male,British,Bachelors,2024-02-26_20h16.21.062,CRL1e,2023.2.3,Win32,60.60606061,65dbad3905fde4fe1981dc61,65dcf14ccf3073155f829cfd,,,,,,,,,,,343.988,1.4,345.3853,345.3854,345.9842,right,0,0.59,,345.9843,346.9825,5,4,44,6,1,total,2,images/Ex16.jpg,left,reversed,easy,7,,,,,
,,,,,65a54037a9c2c5d66a3601b2,001,39,Male,British,Bachelors,2024-02-26_20h16.21.062,CRL1e,2023.2.3,Win32,60.60606061,65dbad3905fde4fe1981dc61,65dcf14ccf3073155f829cfd,,,,,,,,,,,346.9831,0.8,347.7816,347.7816,349.3309,right,1,1.5425,,349.331,350.329,5,5,45,1,1,total,2,images/Ex13.jpg,right,reversed,easy,7,,,,,
,,,,,65a54037a9c2c5d66a3601b2,001,39,Male,British,Bachelors,2024-02-26_20h16.21.062,CRL1e,2023.2.3,Win32,60.60606061,65dbad3905fde4fe1981dc61,65dcf14ccf3073155f829cfd,,,,,,,,,,,350.3296,1.2,351.5277,351.5277,352.7101,right,0,1.1734,,352.7102,353.7089,5,6,46,5,1,total,2,images/Ex15.jpg,left,reversed,easy,7,,,,,
,,,,,65a54037a9c2c5d66a3601b2,001,39,Male,British,Bachelors,2024-02-26_20h16.21.062,CRL1e,2023.2.3,Win32,60.60606061,65dbad3905fde4fe1981dc61,65dcf14ccf3073155f829cfd,,,,,,,,,,,353.7095,0.7,354.4081,354.4081,355.4913,left,1,1.0781,,355.4914,356.4892,5,7,47,7,1,total,2,images/Ex16.jpg,left,reversed,easy,7,,,,,
,,,,,65a54037a9c2c5d66a3601b2,001,39,Male,British,Bachelors,2024-02-26_20h16.21.062,CRL1e,2023.2.3,Win32,60.60606061,65dbad3905fde4fe1981dc61,65dcf14ccf3073155f829cfd,,,,,,356.4905,366.262,space,9.7609,,366.272,1.4,367.6611,367.6613,371.4896,right,0,3.8254,,371.4896,372.4881,0,0,0,2,1,partial,1,images/Ex10.jpg,left,training,easy,7,,,,,
,,,,,65a54037a9c2c5d66a3601b2,001,39,Male,British,Bachelors,2024-02-26_20h16.21.062,CRL1e,2023.2.3,Win32,60.60606061,65dbad3905fde4fe1981dc61,65dcf14ccf3073155f829cfd,,,,,,,,,,,372.4888,1.1,373.5871,373.5871,374.7532,right,1,1.1576,,374.7535,375.7511,0,1,1,4,1,partial,1,images/Ex11.jpg,right,training,easy,7,,,,,
,,,,,65a54037a9c2c5d66a3601b2,001,39,Male,British,Bachelors,2024-02-26_20h16.21.062,CRL1e,2023.2.3,Win32,60.60606061,65dbad3905fde4fe1981dc61,65dcf14ccf3073155f829cfd,,,,,,,,,,,375.7519,1.4,377.1501,377.1501,377.6994,left,0,0.5412,,377.6996,378.6979,0,2,2,6,1,partial,1,images/Ex12.jpg,right,training,easy,7,,,,,
,,,,,65a54037a9c2c5d66a3601b2,001,39,Male,British,Bachelors,2024-02-26_20h16.21.062,CRL1e,2023.2.3,Win32,60.60606061,65dbad3905fde4fe1981dc61,65dcf14ccf3073155f829cfd,,,,,,,,,,,378.6987,1.4,380.0961,380.0961,381.0289,left,1,0.9239,,381.0291,382.0277,0,3,3,0,1,partial,1,images/Ex9.jpg,left,training,easy,7,,,,,
,,,,,65a54037a9c2c5d66a3601b2,001,39,Male,British,Bachelors,2024-02-26_20h16.21.062,CRL1e,2023.2.3,Win32,60.60606061,65dbad3905fde4fe1981dc61,65dcf14ccf3073155f829cfd,,,,,,,,,,,382.0283,0.8,382.8274,382.8274,383.3928,right,1,0.5577,,383.3929,384.392,0,4,4,7,1,partial,1,images/Ex12.jpg,right,training,easy,7,,,,,
,,,,,65a54037a9c2c5d66a3601b2,001,39,Male,British,Bachelors,2024-02-26_20h16.21.062,CRL1e,2023.2.3,Win32,60.60606061,65dbad3905fde4fe1981dc61,65dcf14ccf3073155f829cfd,,,,,,,,,,,384.3927,0.9,385.2908,385.2908,386.0985,right,0,0.8058,,386.0985,387.0889,0,5,5,1,1,partial,1,images/Ex9.jpg,left,training,easy,7,,,,,
,,,,,65a54037a9c2c5d66a3601b2,001,39,Male,British,Bachelors,2024-02-26_20h16.21.062,CRL1e,2023.2.3,Win32,60.60606061,65dbad3905fde4fe1981dc61,65dcf14ccf3073155f829cfd,,,,,,,,,,,387.09,1.5,388.5873,388.5874,389.7695,right,1,1.1726,,389.7696,390.7681,0,6,6,5,1,partial,1,images/Ex11.jpg,right,training,easy,7,,,,,
,,,,,65a54037a9c2c5d66a3601b2,001,39,Male,British,Bachelors,2024-02-26_20h16.21.062,CRL1e,2023.2.3,Win32,60.60606061,65dbad3905fde4fe1981dc61,65dcf14ccf3073155f829cfd,,,,,,,,,,,390.7688,0.9,391.6677,391.6678,392.208,left,1,0.5385,,392.2081,393.2058,0,7,7,3,1,partial,1,images/Ex10.jpg,left,training,easy,7,,,,,
,,,,,65a54037a9c2c5d66a3601b2,001,39,Male,British,Bachelors,2024-02-26_20h16.21.062,CRL1e,2023.2.3,Win32,60.60606061,65dbad3905fde4fe1981dc61,65dcf14ccf3073155f829cfd,,,,,,,,,,,393.2064,1.5,394.6973,394.6975,395.2685,right,1,0.5682,,395.2687,396.2624,1,0,8,5,1,partial,1,images/Ex11.jpg,right,training,easy,7,,,,,
,,,,,65a54037a9c2c5d66a3601b2,001,39,Male,British,Bachelors,2024-02-26_20h16.21.062,CRL1e,2023.2.3,Win32,60.60606061,65dbad3905fde4fe1981dc61,65dcf14ccf3073155f829cfd,,,,,,,,,,,396.2642,1.2,397.4614,397.4615,398.2108,right,1,0.7424,,398.2109,399.2091,1,1,9,7,1,partial,1,images/Ex12.jpg,right,training,easy,7,,,,,
,,,,,65a54037a9c2c5d66a3601b2,001,39,Male,British,Bachelors,2024-02-26_20h16.21.062,CRL1e,2023.2.3,Win32,60.60606061,65dbad3905fde4fe1981dc61,65dcf14ccf3073155f829cfd,,,,,,,,,,,399.2098,1.4,400.6084,400.6085,401.4784,left,1,0.8673,,401.4785,402.4727,1,2,10,3,1,partial,1,images/Ex10.jpg,left,training,easy,7,,,,,
,,,,,65a54037a9c2c5d66a3601b2,001,39,Male,British,Bachelors,2024-02-26_20h16.21.062,CRL1e,2023.2.3,Win32,60.60606061,65dbad3905fde4fe1981dc61,65dcf14ccf3073155f829cfd,,,,,,,,,,,402.4736,0.9,403.3711,403.3712,404.0541,right,1,0.6797,,404.0543,405.0527,1,3,11,4,1,partial,1,images/Ex11.jpg,right,training,easy,7,,,,,
,,,,,65a54037a9c2c5d66a3601b2,001,39,Male,British,Bachelors,2024-02-26_20h16.21.062,CRL1e,2023.2.3,Win32,60.60606061,65dbad3905fde4fe1981dc61,65dcf14ccf3073155f829cfd,,,,,,,,,,,405.0535,1.5,406.5415,406.5415,407.7499,right,0,1.2009,,407.7501,408.7487,1,4,12,0,1,partial,1,images/Ex9.jpg,left,training,easy,7,,,,,
,,,,,65a54037a9c2c5d66a3601b2,001,39,Male,British,Bachelors,2024-02-26_20h16.21.062,CRL1e,2023.2.3,Win32,60.60606061,65dbad3905fde4fe1981dc61,65dcf14ccf3073155f829cfd,,,,,,,,,,,408.7499,0.9,409.6481,409.6482,410.4309,left,1,0.7709,,410.4311,411.429,1,5,13,2,1,partial,1,images/Ex10.jpg,left,training,easy,7,,,,,
,,,,,65a54037a9c2c5d66a3601b2,001,39,Male,British,Bachelors,2024-02-26_20h16.21.062,CRL1e,2023.2.3,Win32,60.60606061,65dbad3905fde4fe1981dc61,65dcf14ccf3073155f829cfd,,,,,,,,,,,411.4299,1.4,412.828,412.828,414.1598,right,0,1.3271,,414.1599,415.1583,1,6,14,1,1,partial,1,images/Ex9.jpg,left,training,easy,7,,,,,
,,,,,65a54037a9c2c5d66a3601b2,001,39,Male,British,Bachelors,2024-02-26_20h16.21.062,CRL1e,2023.2.3,Win32,60.60606061,65dbad3905fde4fe1981dc61,65dcf14ccf3073155f829cfd,,,,,,,,,,,415.1593,0.8,415.9581,415.9583,417.1893,right,1,1.2191,,417.1894,418.1949,1,7,15,6,1,partial,1,images/Ex12.jpg,right,training,easy,7,,,,,
,,,,,65a54037a9c2c5d66a3601b2,001,39,Male,British,Bachelors,2024-02-26_20h16.21.062,CRL1e,2023.2.3,Win32,60.60606061,65dbad3905fde4fe1981dc61,65dcf14ccf3073155f829cfd,,,,,,,,,,,418.1954,1.2,419.3877,419.3877,420.3366,left,1,0.9393,,420.3366,421.3348,2,0,16,0,1,partial,1,images/Ex9.jpg,left,training,easy,7,,,,,
,,,,,65a54037a9c2c5d66a3601b2,001,39,Male,British,Bachelors,2024-02-26_20h16.21.062,CRL1e,2023.2.3,Win32,60.60606061,65dbad3905fde4fe1981dc61,65dcf14ccf3073155f829cfd,,,,,,,,,,,421.3358,1.4,422.7408,422.7409,423.84,right,1,1.0976,,423.8401,424.838,2,1,17,6,1,partial,1,images/Ex12.jpg,right,training,easy,7,,,,,
,,,,,65a54037a9c2c5d66a3601b2,001,39,Male,British,Bachelors,2024-02-26_20h16.21.062,CRL1e,2023.2.3,Win32,60.60606061,65dbad3905fde4fe1981dc61,65dcf14ccf3073155f829cfd,,,,,,,,,,,424.8387,0.8,425.6359,425.636,426.713,right,1,1.0715,,426.7131,427.7112,2,2,18,4,1,partial,1,images/Ex11.jpg,right,training,easy,7,,,,,
,,,,,65a54037a9c2c5d66a3601b2,001,39,Male,British,Bachelors,2024-02-26_20h16.21.062,CRL1e,2023.2.3,Win32,60.60606061,65dbad3905fde4fe1981dc61,65dcf14ccf3073155f829cfd,,,,,,,,,,,427.7121,1.2,428.8996,428.8997,431.658,left,1,2.7471,,431.6582,432.6558,2,3,19,2,1,partial,1,images/Ex10.jpg,left,training,easy,7,,,,,
,,,,,65a54037a9c2c5d66a3601b2,001,39,Male,British,Bachelors,2024-02-26_20h16.21.062,CRL1e,2023.2.3,Win32,60.60606061,65dbad3905fde4fe1981dc61,65dcf14ccf3073155f829cfd,,,,,,,,,,,432.6571,1,433.6547,433.6547,434.1881,left,1,0.5264,,434.1882,435.1863,2,4,20,3,1,partial,1,images/Ex10.jpg,left,training,easy,7,,,,,
,,,,,65a54037a9c2c5d66a3601b2,001,39,Male,British,Bachelors,2024-02-26_20h16.21.062,CRL1e,2023.2.3,Win32,60.60606061,65dbad3905fde4fe1981dc61,65dcf14ccf3073155f829cfd,,,,,,,,,,,435.1883,1.2,436.3855,436.3856,437.5244,left,1,1.136,,437.5245,438.523,2,5,21,1,1,partial,1,images/Ex9.jpg,left,training,easy,7,,,,,
,,,,,65a54037a9c2c5d66a3601b2,001,39,Male,British,Bachelors,2024-02-26_20h16.21.062,CRL1e,2023.2.3,Win32,60.60606061,65dbad3905fde4fe1981dc61,65dcf14ccf3073155f829cfd,,,,,,,,,,,438.5236,1.3,439.8146,439.8147,440.4304,right,1,0.6124,,440.4306,441.4298,2,6,22,7,1,partial,1,images/Ex12.jpg,right,training,easy,7,,,,,
,,,,,65a54037a9c2c5d66a3601b2,001,39,Male,British,Bachelors,2024-02-26_20h16.21.062,CRL1e,2023.2.3,Win32,60.60606061,65dbad3905fde4fe1981dc61,65dcf14ccf3073155f829cfd,,,,,,,,,,,441.4305,0.9,442.328,442.3282,443.0113,right,1,0.678,,443.0114,444.0105,2,7,23,5,1,partial,1,images/Ex11.jpg,right,training,easy,7,,,,,
,,,,,65a54037a9c2c5d66a3601b2,001,39,Male,British,Bachelors,2024-02-26_20h16.21.062,CRL1e,2023.2.3,Win32,60.60606061,65dbad3905fde4fe1981dc61,65dcf14ccf3073155f829cfd,,,,,,,,,,,444.011,1.2,445.2092,445.2092,445.8751,right,1,0.6563,,445.8753,446.8738,3,0,24,7,1,partial,1,images/Ex12.jpg,right,training,easy,7,,,,,
,,,,,65a54037a9c2c5d66a3601b2,001,39,Male,British,Bachelors,2024-02-26_20h16.21.062,CRL1e,2023.2.3,Win32,60.60606061,65dbad3905fde4fe1981dc61,65dcf14ccf3073155f829cfd,,,,,,,,,,,446.8743,1.4,448.2723,448.2724,449.0379,left,1,0.7631,,449.038,450.037,3,1,25,2,1,partial,1,images/Ex10.jpg,left,training,easy,7,,,,,
,,,,,65a54037a9c2c5d66a3601b2,001,39,Male,British,Bachelors,2024-02-26_20h16.21.062,CRL1e,2023.2.3,Win32,60.60606061,65dbad3905fde4fe1981dc61,65dcf14ccf3073155f829cfd,,,,,,,,,,,450.0377,0.7,450.7355,450.7356,451.3351,right,1,0.5958,,451.3352,452.334,3,2,26,6,1,partial,1,images/Ex12.jpg,right,training,easy,7,,,,,
,,,,,65a54037a9c2c5d66a3601b2,001,39,Male,British,Bachelors,2024-02-26_20h16.21.062,CRL1e,2023.2.3,Win32,60.60606061,65dbad3905fde4fe1981dc61,65dcf14ccf3073155f829cfd,,,,,,,,,,,452.3348,0.7,453.0335,453.0336,453.6831,right,1,0.6384,,453.6832,454.6818,3,3,27,4,1,partial,1,images/Ex11.jpg,right,training,easy,7,,,,,
,,,,,65a54037a9c2c5d66a3601b2,001,39,Male,British,Bachelors,2024-02-26_20h16.21.062,CRL1e,2023.2.3,Win32,60.60606061,65dbad3905fde4fe1981dc61,65dcf14ccf3073155f829cfd,,,,,,,,,,,454.6824,1.5,456.1804,456.1804,456.763,left,1,0.5779,,456.7631,457.761,3,4,28,0,1,partial,1,images/Ex9.jpg,left,training,easy,7,,,,,
,,,,,65a54037a9c2c5d66a3601b2,001,39,Male,British,Bachelors,2024-02-26_20h16.21.062,CRL1e,2023.2.3,Win32,60.60606061,65dbad3905fde4fe1981dc61,65dcf14ccf3073155f829cfd,,,,,,,,,,,457.7615,1.2,458.9606,458.9607,459.5767,right,1,0.6037,,459.5768,460.5755,3,5,29,5,1,partial,1,images/Ex11.jpg,right,training,easy,7,,,,,
,,,,,65a54037a9c2c5d66a3601b2,001,39,Male,British,Bachelors,2024-02-26_20h16.21.062,CRL1e,2023.2.3,Win32,60.60606061,65dbad3905fde4fe1981dc61,65dcf14ccf3073155f829cfd,,,,,,,,,,,460.5764,1.1,461.674,461.6741,462.2909,left,1,0.6071,,462.2909,463.2885,3,6,30,3,1,partial,1,images/Ex10.jpg,left,training,easy,7,,,,,
,,,,,65a54037a9c2c5d66a3601b2,001,39,Male,British,Bachelors,2024-02-26_20h16.21.062,CRL1e,2023.2.3,Win32,60.60606061,65dbad3905fde4fe1981dc61,65dcf14ccf3073155f829cfd,,,,,,,,,,,463.2891,1,464.2877,464.2878,464.7043,left,1,0.4148,,464.7044,465.703,3,7,31,1,1,partial,1,images/Ex9.jpg,left,training,easy,7,,,,,
,,,,,65a54037a9c2c5d66a3601b2,001,39,Male,British,Bachelors,2024-02-26_20h16.21.062,CRL1e,2023.2.3,Win32,60.60606061,65dbad3905fde4fe1981dc61,65dcf14ccf3073155f829cfd,,,,,,,,,,,465.704,1.3,467.0016,467.0017,467.5175,left,1,0.5131,,467.5175,468.5167,4,0,32,3,1,partial,1,images/Ex10.jpg,left,training,easy,7,,,,,
,,,,,65a54037a9c2c5d66a3601b2,001,39,Male,British,Bachelors,2024-02-26_20h16.21.062,CRL1e,2023.2.3,Win32,60.60606061,65dbad3905fde4fe1981dc61,65dcf14ccf3073155f829cfd,,,,,,,,,,,468.5178,0.6,469.116,469.1161,469.6323,right,1,0.5107,,469.6324,470.6312,4,1,33,4,1,partial,1,images/Ex11.jpg,right,training,easy,7,,,,,
,,,,,65a54037a9c2c5d66a3601b2,001,39,Male,British,Bachelors,2024-02-26_20h16.21.062,CRL1e,2023.2.3,Win32,60.60606061,65dbad3905fde4fe1981dc61,65dcf14ccf3073155f829cfd,,,,,,,,,,,470.6319,1.1,471.7291,471.7291,472.5458,right,1,0.8076,,472.5458,473.544,4,2,34,7,1,partial,1,images/Ex12.jpg,right,training,easy,7,,,,,
,,,,,65a54037a9c2c5d66a3601b2,001,39,Male,British,Bachelors,2024-02-26_20h16.21.062,CRL1e,2023.2.3,Win32,60.60606061,65dbad3905fde4fe1981dc61,65dcf14ccf3073155f829cfd,,,,,,,,,,,473.5446,1.2,474.7431,474.7432,475.2754,right,1,0.5251,,475.2756,476.2749,4,3,35,6,1,partial,1,images/Ex12.jpg,right,training,easy,7,,,,,
,,,,,65a54037a9c2c5d66a3601b2,001,39,Male,British,Bachelors,2024-02-26_20h16.21.062,CRL1e,2023.2.3,Win32,60.60606061,65dbad3905fde4fe1981dc61,65dcf14ccf3073155f829cfd,,,,,,,,,,,476.2755,0.7,476.9739,476.9739,477.5728,right,0,0.5858,,477.5729,478.5715,4,4,36,0,1,partial,1,images/Ex9.jpg,left,training,easy,7,,,,,
,,,,,65a54037a9c2c5d66a3601b2,001,39,Male,British,Bachelors,2024-02-26_20h16.21.062,CRL1e,2023.2.3,Win32,60.60606061,65dbad3905fde4fe1981dc61,65dcf14ccf3073155f829cfd,,,,,,,,,,,478.5722,1.1,479.6703,479.6703,480.3201,right,1,0.6417,,480.3202,481.3188,4,5,37,5,1,partial,1,images/Ex11.jpg,right,training,easy,7,,,,,
,,,,,65a54037a9c2c5d66a3601b2,001,39,Male,British,Bachelors,2024-02-26_20h16.21.062,CRL1e,2023.2.3,Win32,60.60606061,65dbad3905fde4fe1981dc61,65dcf14ccf3073155f829cfd,,,,,,,,,,,481.3195,0.8,482.1178,482.1178,482.7178,left,1,0.5929,,482.7179,483.7167,4,6,38,2,1,partial,1,images/Ex10.jpg,left,training,easy,7,,,,,
,,,,,65a54037a9c2c5d66a3601b2,001,39,Male,British,Bachelors,2024-02-26_20h16.21.062,CRL1e,2023.2.3,Win32,60.60606061,65dbad3905fde4fe1981dc61,65dcf14ccf3073155f829cfd,,,,,,,,,,,483.7177,0.7,484.416,484.4161,485.1151,left,1,0.6867,,485.1152,486.1138,4,7,39,1,1,partial,1,images/Ex9.jpg,left,training,easy,7,,,,,
,,,,,65a54037a9c2c5d66a3601b2,001,39,Male,British,Bachelors,2024-02-26_20h16.21.062,CRL1e,2023.2.3,Win32,60.60606061,65dbad3905fde4fe1981dc61,65dcf14ccf3073155f829cfd,,,,,,,,,,,486.1146,1.1,487.2126,487.2127,487.8285,left,1,0.6073,,487.8286,488.8274,5,0,40,0,1,partial,1,images/Ex9.jpg,left,training,easy,7,,,,,
,,,,,65a54037a9c2c5d66a3601b2,001,39,Male,British,Bachelors,2024-02-26_20h16.21.062,CRL1e,2023.2.3,Win32,60.60606061,65dbad3905fde4fe1981dc61,65dcf14ccf3073155f829cfd,,,,,,,,,,,488.8283,0.7,489.5268,489.527,490.1427,right,1,0.6138,,490.1428,491.142,5,1,41,4,1,partial,1,images/Ex11.jpg,right,training,easy,7,,,,,
,,,,,65a54037a9c2c5d66a3601b2,001,39,Male,British,Bachelors,2024-02-26_20h16.21.062,CRL1e,2023.2.3,Win32,60.60606061,65dbad3905fde4fe1981dc61,65dcf14ccf3073155f829cfd,,,,,,,,,,,491.1427,0.9,492.0403,492.0404,492.6405,left,1,0.5909,,492.6405,493.6386,5,2,42,2,1,partial,1,images/Ex10.jpg,left,training,easy,7,,,,,
,,,,,65a54037a9c2c5d66a3601b2,001,39,Male,British,Bachelors,2024-02-26_20h16.21.062,CRL1e,2023.2.3,Win32,60.60606061,65dbad3905fde4fe1981dc61,65dcf14ccf3073155f829cfd,,,,,,,,,,,493.6393,0.7,494.3379,494.3379,495.2199,left,1,0.8697,,495.2201,496.219,5,3,43,1,1,partial,1,images/Ex9.jpg,left,training,easy,7,,,,,
,,,,,65a54037a9c2c5d66a3601b2,001,39,Male,British,Bachelors,2024-02-26_20h16.21.062,CRL1e,2023.2.3,Win32,60.60606061,65dbad3905fde4fe1981dc61,65dcf14ccf3073155f829cfd,,,,,,,,,,,496.2197,1.2,497.4174,497.4175,498.0681,right,1,0.6438,,498.0681,499.0665,5,4,44,5,1,partial,1,images/Ex11.jpg,right,training,easy,7,,,,,
,,,,,65a54037a9c2c5d66a3601b2,001,39,Male,British,Bachelors,2024-02-26_20h16.21.062,CRL1e,2023.2.3,Win32,60.60606061,65dbad3905fde4fe1981dc61,65dcf14ccf3073155f829cfd,,,,,,,,,,,499.0676,0.7,499.7655,499.7656,500.4153,right,1,0.6403,,500.4154,501.4141,5,5,45,7,1,partial,1,images/Ex12.jpg,right,training,easy,7,,,,,
,,,,,65a54037a9c2c5d66a3601b2,001,39,Male,British,Bachelors,2024-02-26_20h16.21.062,CRL1e,2023.2.3,Win32,60.60606061,65dbad3905fde4fe1981dc61,65dcf14ccf3073155f829cfd,,,,,,,,,,,501.4148,0.7,502.1132,502.1133,502.6624,right,1,0.5454,,502.6625,503.6613,5,6,46,6,1,partial,1,images/Ex12.jpg,right,training,easy,7,,,,,
,,,,,65a54037a9c2c5d66a3601b2,001,39,Male,British,Bachelors,2024-02-26_20h16.21.062,CRL1e,2023.2.3,Win32,60.60606061,65dbad3905fde4fe1981dc61,65dcf14ccf3073155f829cfd,,,,,,,,,,,503.662,1.2,504.8597,504.8599,505.4757,left,1,0.6129,,505.4758,506.4749,5,7,47,3,1,partial,1,images/Ex10.jpg,left,training,easy,7,,,,,
,,,,,65a54037a9c2c5d66a3601b2,001,39,Male,British,Bachelors,2024-02-26_20h16.21.062,CRL1e,2023.2.3,Win32,60.60606061,65dbad3905fde4fe1981dc61,65dcf14ccf3073155f829cfd,,,,,,,,,,,506.4813,0.8,507.2733,507.2734,508.023,right,1,0.747,,508.023,509.0223,0,0,0,5,1,partial,2,images/Ex11.jpg,right,nonreversed,easy,7,,,,,
,,,,,65a54037a9c2c5d66a3601b2,001,39,Male,British,Bachelors,2024-02-26_20h16.21.062,CRL1e,2023.2.3,Win32,60.60606061,65dbad3905fde4fe1981dc61,65dcf14ccf3073155f829cfd,,,,,,,,,,,509.0231,1.2,510.2211,510.2212,510.7376,right,1,0.5045,,510.7376,511.735,0,1,1,4,1,partial,2,images/Ex11.jpg,right,nonreversed,easy,7,,,,,
,,,,,65a54037a9c2c5d66a3601b2,001,39,Male,British,Bachelors,2024-02-26_20h16.21.062,CRL1e,2023.2.3,Win32,60.60606061,65dbad3905fde4fe1981dc61,65dcf14ccf3073155f829cfd,,,,,,,,,,,511.7357,1.3,513.0339,513.0339,513.634,left,0,0.5934,,513.6342,514.6325,0,2,2,3,1,partial,2,images/Ex10.jpg,right,reversed,easy,7,,,,,
,,,,,65a54037a9c2c5d66a3601b2,001,39,Male,British,Bachelors,2024-02-26_20h16.21.062,CRL1e,2023.2.3,Win32,60.60606061,65dbad3905fde4fe1981dc61,65dcf14ccf3073155f829cfd,,,,,,,,,,,514.6332,0.8,515.4318,515.4318,516.3141,right,0,0.8706,,516.3142,517.3123,0,3,3,1,1,partial,2,images/Ex9.jpg,left,nonreversed,easy,7,,,,,
,,,,,65a54037a9c2c5d66a3601b2,001,39,Male,British,Bachelors,2024-02-26_20h16.21.062,CRL1e,2023.2.3,Win32,60.60606061,65dbad3905fde4fe1981dc61,65dcf14ccf3073155f829cfd,,,,,,,,,,,517.3128,0.6,517.912,517.9121,518.894,right,0,0.9695,,518.8941,519.8935,0,4,4,7,1,partial,2,images/Ex12.jpg,left,reversed,easy,7,,,,,
,,,,,65a54037a9c2c5d66a3601b2,001,39,Male,British,Bachelors,2024-02-26_20h16.21.062,CRL1e,2023.2.3,Win32,60.60606061,65dbad3905fde4fe1981dc61,65dcf14ccf3073155f829cfd,,,,,,,,,,,519.894,1,520.8923,520.8923,521.6912,left,1,0.7915,,521.6913,522.6898,0,5,5,6,1,partial,2,images/Ex12.jpg,left,reversed,easy,7,,,,,
,,,,,65a54037a9c2c5d66a3601b2,001,39,Male,British,Bachelors,2024-02-26_20h16.21.062,CRL1e,2023.2.3,Win32,60.60606061,65dbad3905fde4fe1981dc61,65dcf14ccf3073155f829cfd,,,,,,,,,,,522.6907,1.1,523.7887,523.7887,524.7882,right,1,0.9934,,524.7882,525.7864,0,6,6,2,1,partial,2,images/Ex10.jpg,right,reversed,easy,7,,,,,
,,,,,65a54037a9c2c5d66a3601b2,001,39,Male,British,Bachelors,2024-02-26_20h16.21.062,CRL1e,2023.2.3,Win32,60.60606061,65dbad3905fde4fe1981dc61,65dcf14ccf3073155f829cfd,,,,,,,,,,,525.7873,1.4,527.1846,527.1847,528.1181,right,0,0.9313,,528.1182,529.1168,0,7,7,0,1,partial,2,images/Ex9.jpg,left,nonreversed,easy,7,,,,,
,,,,,65a54037a9c2c5d66a3601b2,001,39,Male,British,Bachelors,2024-02-26_20h16.21.062,CRL1e,2023.2.3,Win32,60.60606061,65dbad3905fde4fe1981dc61,65dcf14ccf3073155f829cfd,,,,,,,,,,,529.1177,1.2,530.3151,530.3152,530.8815,left,1,0.5618,,530.8817,531.8804,1,0,8,0,1,partial,2,images/Ex9.jpg,left,nonreversed,easy,7,,,,,
,,,,,65a54037a9c2c5d66a3601b2,001,39,Male,British,Bachelors,2024-02-26_20h16.21.062,CRL1e,2023.2.3,Win32,60.60606061,65dbad3905fde4fe1981dc61,65dcf14ccf3073155f829cfd,,,,,,,,,,,531.881,1,532.8788,532.8788,533.8951,left,1,1.0104,,533.8952,534.8928,1,1,9,6,1,partial,2,images/Ex12.jpg,left,reversed,easy,7,,,,,
,,,,,65a54037a9c2c5d66a3601b2,001,39,Male,British,Bachelors,2024-02-26_20h16.21.062,CRL1e,2023.2.3,Win32,60.60606061,65dbad3905fde4fe1981dc61,65dcf14ccf3073155f829cfd,,,,,,,,,,,534.8934,1.4,536.2919,536.292,536.8586,left,1,0.5544,,536.8586,537.858,1,2,10,7,1,partial,2,images/Ex12.jpg,left,reversed,easy,7,,,,,
,,,,,65a54037a9c2c5d66a3601b2,001,39,Male,British,Bachelors,2024-02-26_20h16.21.062,CRL1e,2023.2.3,Win32,60.60606061,65dbad3905fde4fe1981dc61,65dcf14ccf3073155f829cfd,,,,,,,,,,,537.8586,1.1,538.9559,538.9559,540.1881,left,0,1.2196,,540.1882,541.1874,1,3,11,5,1,partial,2,images/Ex11.jpg,right,nonreversed,easy,7,,,,,
,,,,,65a54037a9c2c5d66a3601b2,001,39,Male,British,Bachelors,2024-02-26_20h16.21.062,CRL1e,2023.2.3,Win32,60.60606061,65dbad3905fde4fe1981dc61,65dcf14ccf3073155f829cfd,,,,,,,,,,,541.188,1.4,542.5843,542.5844,543.8335,right,1,1.2423,,543.8336,544.832,1,4,12,2,1,partial,2,images/Ex10.jpg,right,reversed,easy,7,,,,,
,,,,,65a54037a9c2c5d66a3601b2,001,39,Male,British,Bachelors,2024-02-26_20h16.21.062,CRL1e,2023.2.3,Win32,60.60606061,65dbad3905fde4fe1981dc61,65dcf14ccf3073155f829cfd,,,,,,,,,,,544.8327,0.6,545.4323,545.4323,546.031,right,1,0.5959,,546.031,547.0295,1,5,13,3,1,partial,2,images/Ex10.jpg,right,reversed,easy,7,,,,,
,,,,,65a54037a9c2c5d66a3601b2,001,39,Male,British,Bachelors,2024-02-26_20h16.21.062,CRL1e,2023.2.3,Win32,60.60606061,65dbad3905fde4fe1981dc61,65dcf14ccf3073155f829cfd,,,,,,,,,,,547.0301,0.7,547.7298,547.7299,549.4114,right,0,1.675,,549.4115,550.4099,1,6,14,1,1,partial,2,images/Ex9.jpg,left,nonreversed,easy,7,,,,,
,,,,,65a54037a9c2c5d66a3601b2,001,39,Male,British,Bachelors,2024-02-26_20h16.21.062,CRL1e,2023.2.3,Win32,60.60606061,65dbad3905fde4fe1981dc61,65dcf14ccf3073155f829cfd,,,,,,,,,,,550.4106,1,551.408,551.4081,552.225,right,1,0.8085,,552.2251,553.2232,1,7,15,4,1,partial,2,images/Ex11.jpg,right,nonreversed,easy,7,,,,,
,,,,,65a54037a9c2c5d66a3601b2,001,39,Male,British,Bachelors,2024-02-26_20h16.21.062,CRL1e,2023.2.3,Win32,60.60606061,65dbad3905fde4fe1981dc61,65dcf14ccf3073155f829cfd,,,,,,,,,,,553.2239,1.1,554.3225,554.3226,555.0385,right,0,0.7101,,555.0386,556.0368,2,0,16,1,1,partial,2,images/Ex9.jpg,left,nonreversed,easy,7,,,,,
,,,,,65a54037a9c2c5d66a3601b2,001,39,Male,British,Bachelors,2024-02-26_20h16.21.062,CRL1e,2023.2.3,Win32,60.60606061,65dbad3905fde4fe1981dc61,65dcf14ccf3073155f829cfd,,,,,,,,,,,556.0379,1.1,557.1359,557.1359,558.1011,right,1,0.9555,,558.1012,559.0998,2,1,17,5,1,partial,2,images/Ex11.jpg,right,nonreversed,easy,7,,,,,
,,,,,65a54037a9c2c5d66a3601b2,001,39,Male,British,Bachelors,2024-02-26_20h16.21.062,CRL1e,2023.2.3,Win32,60.60606061,65dbad3905fde4fe1981dc61,65dcf14ccf3073155f829cfd,,,,,,,,,,,559.1003,0.6,559.699,559.6991,560.8158,right,0,1.1109,,560.8159,561.8142,2,2,18,7,1,partial,2,images/Ex12.jpg,left,reversed,easy,7,,,,,
,,,,,65a54037a9c2c5d66a3601b2,001,39,Male,British,Bachelors,2024-02-26_20h16.21.062,CRL1e,2023.2.3,Win32,60.60606061,65dbad3905fde4fe1981dc61,65dcf14ccf3073155f829cfd,,,,,,,,,,,561.815,0.5,562.3137,562.3139,562.7633,left,1,0.4462,,562.7634,563.7616,2,3,19,6,1,partial,2,images/Ex12.jpg,left,reversed,easy,7,,,,,
,,,,,65a54037a9c2c5d66a3601b2,001,39,Male,British,Bachelors,2024-02-26_20h16.21.062,CRL1e,2023.2.3,Win32,60.60606061,65dbad3905fde4fe1981dc61,65dcf14ccf3073155f829cfd,,,,,,,,,,,563.7624,0.6,564.3606,564.3606,565.5777,right,1,1.2046,,565.5778,566.5756,2,4,20,4,1,partial,2,images/Ex11.jpg,right,nonreversed,easy,7,,,,,
,,,,,65a54037a9c2c5d66a3601b2,001,39,Male,British,Bachelors,2024-02-26_20h16.21.062,CRL1e,2023.2.3,Win32,60.60606061,65dbad3905fde4fe1981dc61,65dcf14ccf3073155f829cfd,,,,,,,,,,,566.5762,0.8,567.3749,567.375,568.3577,right,1,0.9704,,568.3578,569.3561,2,5,21,3,1,partial,2,images/Ex10.jpg,right,reversed,easy,7,,,,,
,,,,,65a54037a9c2c5d66a3601b2,001,39,Male,British,Bachelors,2024-02-26_20h16.21.062,CRL1e,2023.2.3,Win32,60.60606061,65dbad3905fde4fe1981dc61,65dcf14ccf3073155f829cfd,,,,,,,,,,,569.3566,0.6,569.9548,569.9549,570.788,left,1,0.8237,,570.7881,571.7862,2,6,22,0,1,partial,2,images/Ex9.jpg,left,nonreversed,easy,7,,,,,
,,,,,65a54037a9c2c5d66a3601b2,001,39,Male,British,Bachelors,2024-02-26_20h16.21.062,CRL1e,2023.2.3,Win32,60.60606061,65dbad3905fde4fe1981dc61,65dcf14ccf3073155f829cfd,,,,,,,,,,,571.7873,1.5,573.2851,573.2851,574.1179,right,1,0.822,,574.1182,575.1164,2,7,23,2,1,partial,2,images/Ex10.jpg,right,reversed,easy,7,,,,,
,,,,,65a54037a9c2c5d66a3601b2,001,39,Male,British,Bachelors,2024-02-26_20h16.21.062,CRL1e,2023.2.3,Win32,60.60606061,65dbad3905fde4fe1981dc61,65dcf14ccf3073155f829cfd,,,,,,,,,,,575.1172,0.7,575.8157,575.8157,576.4976,left,1,0.6692,,576.4977,577.497,3,0,24,0,1,partial,2,images/Ex9.jpg,left,nonreversed,easy,7,,,,,
,,,,,65a54037a9c2c5d66a3601b2,001,39,Male,British,Bachelors,2024-02-26_20h16.21.062,CRL1e,2023.2.3,Win32,60.60606061,65dbad3905fde4fe1981dc61,65dcf14ccf3073155f829cfd,,,,,,,,,,,577.4977,1.4,578.8946,578.8946,579.7279,right,1,0.8205,,579.7279,580.7261,3,1,25,3,1,partial,2,images/Ex10.jpg,right,reversed,easy,7,,,,,
,,,,,65a54037a9c2c5d66a3601b2,001,39,Male,British,Bachelors,2024-02-26_20h16.21.062,CRL1e,2023.2.3,Win32,60.60606061,65dbad3905fde4fe1981dc61,65dcf14ccf3073155f829cfd,,,,,,,,,,,580.7271,1.4,582.1246,582.1247,582.9084,left,0,0.7763,,582.9084,583.9056,3,2,26,5,1,partial,2,images/Ex11.jpg,right,nonreversed,easy,7,,,,,
,,,,,65a54037a9c2c5d66a3601b2,001,39,Male,British,Bachelors,2024-02-26_20h16.21.062,CRL1e,2023.2.3,Win32,60.60606061,65dbad3905fde4fe1981dc61,65dcf14ccf3073155f829cfd,,,,,,,,,,,583.906,0.6,584.506,584.506,585.2556,right,1,0.7418,,585.2557,586.2539,3,3,27,4,1,partial,2,images/Ex11.jpg,right,nonreversed,easy,7,,,,,
,,,,,65a54037a9c2c5d66a3601b2,001,39,Male,British,Bachelors,2024-02-26_20h16.21.062,CRL1e,2023.2.3,Win32,60.60606061,65dbad3905fde4fe1981dc61,65dcf14ccf3073155f829cfd,,,,,,,,,,,586.2546,1.2,587.4519,587.452,588.3185,right,1,0.8607,,588.3187,589.3175,3,4,28,2,1,partial,2,images/Ex10.jpg,right,reversed,easy,7,,,,,
,,,,,65a54037a9c2c5d66a3601b2,001,39,Male,British,Bachelors,2024-02-26_20h16.21.062,CRL1e,2023.2.3,Win32,60.60606061,65dbad3905fde4fe1981dc61,65dcf14ccf3073155f829cfd,,,,,,,,,,,589.3191,0.8,590.1167,590.1168,591.4985,right,0,1.3774,,591.4986,592.4965,3,5,29,6,1,partial,2,images/Ex12.jpg,left,reversed,easy,7,,,,,
,,,,,65a54037a9c2c5d66a3601b2,001,39,Male,British,Bachelors,2024-02-26_20h16.21.062,CRL1e,2023.2.3,Win32,60.60606061,65dbad3905fde4fe1981dc61,65dcf14ccf3073155f829cfd,,,,,,,,,,,592.4977,0.7,593.1958,593.1959,594.3852,left,1,1.1865,,594.3852,595.3769,3,6,30,1,1,partial,2,images/Ex9.jpg,left,nonreversed,easy,7,,,,,
,,,,,65a54037a9c2c5d66a3601b2,001,39,Male,British,Bachelors,2024-02-26_20h16.21.062,CRL1e,2023.2.3,Win32,60.60606061,65dbad3905fde4fe1981dc61,65dcf14ccf3073155f829cfd,,,,,,,,,,,595.3785,0.8,596.166,596.166,597.0594,left,1,0.8897,,597.0597,598.0577,3,7,31,7,1,partial,2,images/Ex12.jpg,left,reversed,easy,7,,,,,
,,,,,65a54037a9c2c5d66a3601b2,001,39,Male,British,Bachelors,2024-02-26_20h16.21.062,CRL1e,2023.2.3,Win32,60.60606061,65dbad3905fde4fe1981dc61,65dcf14ccf3073155f829cfd,,,,,,,,,,,598.0588,1.2,599.256,599.2562,600.6955,right,1,1.4357,,600.6955,601.6874,4,0,32,4,1,partial,2,images/Ex11.jpg,right,nonreversed,easy,7,,,,,
,,,,,65a54037a9c2c5d66a3601b2,001,39,Male,British,Bachelors,2024-02-26_20h16.21.062,CRL1e,2023.2.3,Win32,60.60606061,65dbad3905fde4fe1981dc61,65dcf14ccf3073155f829cfd,,,,,,,,,,,601.6888,1.3,602.9853,602.9854,603.8755,right,1,0.8879,,603.8756,604.8677,4,1,33,2,1,partial,2,images/Ex10.jpg,right,reversed,easy,7,,,,,
,,,,,65a54037a9c2c5d66a3601b2,001,39,Male,British,Bachelors,2024-02-26_20h16.21.062,CRL1e,2023.2.3,Win32,60.60606061,65dbad3905fde4fe1981dc61,65dcf14ccf3073155f829cfd,,,,,,,,,,,604.8696,1,605.8727,605.8727,608.1708,right,1,2.2961,,608.1709,609.1616,4,2,34,5,1,partial,2,images/Ex11.jpg,right,nonreversed,easy,7,,,,,
,,,,,65a54037a9c2c5d66a3601b2,001,39,Male,British,Bachelors,2024-02-26_20h16.21.062,CRL1e,2023.2.3,Win32,60.60606061,65dbad3905fde4fe1981dc61,65dcf14ccf3073155f829cfd,,,,,,,,,,,609.1629,0.7,609.8615,609.8616,611.8995,right,0,2.0344,,611.8996,612.8914,4,3,35,0,1,partial,2,images/Ex9.jpg,left,nonreversed,easy,7,,,,,
,,,,,65a54037a9c2c5d66a3601b2,001,39,Male,British,Bachelors,2024-02-26_20h16.21.062,CRL1e,2023.2.3,Win32,60.60606061,65dbad3905fde4fe1981dc61,65dcf14ccf3073155f829cfd,,,,,,,,,,,612.8928,1.3,614.1899,614.19,614.6957,left,1,0.5039,,614.6957,615.6882,4,4,36,1,1,partial,2,images/Ex9.jpg,left,nonreversed,easy,7,,,,,
,,,,,65a54037a9c2c5d66a3601b2,001,39,Male,British,Bachelors,2024-02-26_20h16.21.062,CRL1e,2023.2.3,Win32,60.60606061,65dbad3905fde4fe1981dc61,65dcf14ccf3073155f829cfd,,,,,,,,,,,615.6891,0.5,616.1917,616.1917,618.1693,left,1,1.9666,,618.1693,619.1681,4,5,37,6,1,partial,2,images/Ex12.jpg,left,reversed,easy,7,,,,,
,,,,,65a54037a9c2c5d66a3601b2,001,39,Male,British,Bachelors,2024-02-26_20h16.21.062,CRL1e,2023.2.3,Win32,60.60606061,65dbad3905fde4fe1981dc61,65dcf14ccf3073155f829cfd,,,,,,,,,,,619.1692,1.3,620.4663,620.4664,621.4331,right,1,0.9585,,621.4332,622.4305,4,6,38,3,1,partial,2,images/Ex10.jpg,right,reversed,easy,7,,,,,
,,,,,65a54037a9c2c5d66a3601b2,001,39,Male,British,Bachelors,2024-02-26_20h16.21.062,CRL1e,2023.2.3,Win32,60.60606061,65dbad3905fde4fe1981dc61,65dcf14ccf3073155f829cfd,,,,,,,,,,,622.4315,0.8,623.2199,623.22,624.0295,left,1,0.8028,,624.0297,625.0284,4,7,39,7,1,partial,2,images/Ex12.jpg,left,reversed,easy,7,,,,,
,,,,,65a54037a9c2c5d66a3601b2,001,39,Male,British,Bachelors,2024-02-26_20h16.21.062,CRL1e,2023.2.3,Win32,60.60606061,65dbad3905fde4fe1981dc61,65dcf14ccf3073155f829cfd,,,,,,,,,,,625.0295,1.4,626.4264,626.4266,627.2489,left,0,0.8189,,627.2491,628.2405,5,0,40,2,1,partial,2,images/Ex10.jpg,right,reversed,easy,7,,,,,
,,,,,65a54037a9c2c5d66a3601b2,001,39,Male,British,Bachelors,2024-02-26_20h16.21.062,CRL1e,2023.2.3,Win32,60.60606061,65dbad3905fde4fe1981dc61,65dcf14ccf3073155f829cfd,,,,,,,,,,,628.2416,0.8,629.0308,629.0308,629.9563,right,0,0.9163,,629.9564,630.9549,5,1,41,0,1,partial,2,images/Ex9.jpg,left,nonreversed,easy,7,,,,,
,,,,,65a54037a9c2c5d66a3601b2,001,39,Male,British,Bachelors,2024-02-26_20h16.21.062,CRL1e,2023.2.3,Win32,60.60606061,65dbad3905fde4fe1981dc61,65dcf14ccf3073155f829cfd,,,,,,,,,,,630.9568,1.2,632.1532,632.1533,632.8431,left,1,0.6871,,632.8432,633.8355,5,2,42,7,1,partial,2,images/Ex12.jpg,left,reversed,easy,7,,,,,
,,,,,65a54037a9c2c5d66a3601b2,001,39,Male,British,Bachelors,2024-02-26_20h16.21.062,CRL1e,2023.2.3,Win32,60.60606061,65dbad3905fde4fe1981dc61,65dcf14ccf3073155f829cfd,,,,,,,,,,,633.8363,1,634.8344,634.8345,635.4337,left,1,0.5882,,635.4337,636.4318,5,3,43,6,1,partial,2,images/Ex12.jpg,left,reversed,easy,7,,,,,
,,,,,65a54037a9c2c5d66a3601b2,001,39,Male,British,Bachelors,2024-02-26_20h16.21.062,CRL1e,2023.2.3,Win32,60.60606061,65dbad3905fde4fe1981dc61,65dcf14ccf3073155f829cfd,,,,,,,,,,,636.4329,1.4,637.8368,637.8368,638.6535,right,1,0.8149,,638.6535,639.6453,5,4,44,4,1,partial,2,images/Ex11.jpg,right,nonreversed,easy,7,,,,,
,,,,,65a54037a9c2c5d66a3601b2,001,39,Male,British,Bachelors,2024-02-26_20h16.21.062,CRL1e,2023.2.3,Win32,60.60606061,65dbad3905fde4fe1981dc61,65dcf14ccf3073155f829cfd,,,,,,,,,,,639.6466,0.9,640.5445,640.5446,641.3606,right,1,0.804,,641.3607,642.3655,5,5,45,3,1,partial,2,images/Ex10.jpg,right,reversed,easy,7,,,,,
,,,,,65a54037a9c2c5d66a3601b2,001,39,Male,British,Bachelors,2024-02-26_20h16.21.062,CRL1e,2023.2.3,Win32,60.60606061,65dbad3905fde4fe1981dc61,65dcf14ccf3073155f829cfd,,,,,,,,,,,642.3659,0.7,643.0588,643.0589,645.0233,left,1,1.9592,,645.0234,646.0116,5,6,46,1,1,partial,2,images/Ex9.jpg,left,nonreversed,easy,7,,,,,
,,,,,65a54037a9c2c5d66a3601b2,001,39,Male,British,Bachelors,2024-02-26_20h16.21.062,CRL1e,2023.2.3,Win32,60.60606061,65dbad3905fde4fe1981dc61,65dcf14ccf3073155f829cfd,,,,,,,,,,,646.0125,1.1,647.11,647.11,647.9403,right,1,0.8287,,647.9403,648.9345,5,7,47,5,1,partial,2,images/Ex11.jpg,right,nonreversed,easy,7,,,,,
,,,,,65a54037a9c2c5d66a3601b2,001,39,Male,British,Bachelors,2024-02-26_20h16.21.062,CRL1e,2023.2.3,Win32,60.60606061,65dbad3905fde4fe1981dc61,65dcf14ccf3073155f829cfd,,,,,,,,,,,,,,,,,,,,,,,,,,,,,,,,,,648.938,669.3041,space,20.3168,