infCons.started,infCons.stopped,resp_consent.keys,resp_consent.rt,resp_consent.duration,participant,session,Age?,Gender?,Nationality?,Highest Educational Degree?,date,expName,psychopyVersion,OS,frameRate,STUDY_ID,SESSION_ID,instructions.started,instructions.stopped,resp_instructions.keys,resp_instructions.rt,resp_instructions.duration,nextTask.started,nextTask.stopped,ready_task.keys,ready_task.rt,ready_task.duration,fixation.started,ITI,fixation.stopped,stim.started,stim.stopped,response.keys,response.corr,response.rt,response.duration,feedback.started,feedback.stopped,trials.thisRepN,trials.thisTrialN,trials.thisN,trials.thisIndex,trials.ran,task,phase,Exemplars,r_correct,condition,difficulty,set,end.started,end.stopped,resp_end.keys,resp_end.rt,resp_end.duration
0.0004,8.4796,space,8.409,,58b20a24c352cc0001ed554b,001,37,Female,USA,BA,2024-03-06_14h29.13.597,CRL1h,2023.2.3,MacIntel,29.98680581,65e67470ae2fbf2172c317b2,65e87d71a1e7fd4eddb309d4,,,,,,,,,,,,,,,,,,,,,,,,,,,,,,,,,,,,,,
,,,,,58b20a24c352cc0001ed554b,001,37,Female,USA,BA,2024-03-06_14h29.13.597,CRL1h,2023.2.3,MacIntel,29.98680581,65e67470ae2fbf2172c317b2,65e87d71a1e7fd4eddb309d4,8.48,52.2143,space,43.7044,,,,,,,,,,,,,,,,,,,,,,,,,,,,,,,,,,
,,,,,58b20a24c352cc0001ed554b,001,37,Female,USA,BA,2024-03-06_14h29.13.597,CRL1h,2023.2.3,MacIntel,29.98680581,65e67470ae2fbf2172c317b2,65e87d71a1e7fd4eddb309d4,,,,,,52.2326,56.5499,space,4.3006,,56.568,0.8,57.3662,57.3665,60.9021,right,1,3.527,,60.9161,61.9045,0,0,0,5,1,total,1,images/Ex14.jpg,right,training,hard,3,,,,,
,,,,,58b20a24c352cc0001ed554b,001,37,Female,USA,BA,2024-03-06_14h29.13.597,CRL1h,2023.2.3,MacIntel,29.98680581,65e67470ae2fbf2172c317b2,65e87d71a1e7fd4eddb309d4,,,,,,,,,,,61.9054,1.2,63.1055,63.1056,64.0191,left,1,0.9107,,64.0192,65.0205,0,1,1,10,1,total,1,images/Ex11.jpg,left,training,hard,3,,,,,
,,,,,58b20a24c352cc0001ed554b,001,37,Female,USA,BA,2024-03-06_14h29.13.597,CRL1h,2023.2.3,MacIntel,29.98680581,65e67470ae2fbf2172c317b2,65e87d71a1e7fd4eddb309d4,,,,,,,,,,,65.0211,1.1,66.121,66.1211,67.4558,right,0,1.3244,,67.4558,68.4544,0,2,2,9,1,total,1,images/Ex10.jpg,left,training,hard,3,,,,,
,,,,,58b20a24c352cc0001ed554b,001,37,Female,USA,BA,2024-03-06_14h29.13.597,CRL1h,2023.2.3,MacIntel,29.98680581,65e67470ae2fbf2172c317b2,65e87d71a1e7fd4eddb309d4,,,,,,,,,,,68.465,1.5,69.9577,69.9578,70.5576,left,0,0.5934,,70.5577,71.5572,0,3,3,6,1,total,1,images/Ex15.jpg,right,training,hard,3,,,,,
,,,,,58b20a24c352cc0001ed554b,001,37,Female,USA,BA,2024-03-06_14h29.13.597,CRL1h,2023.2.3,MacIntel,29.98680581,65e67470ae2fbf2172c317b2,65e87d71a1e7fd4eddb309d4,,,,,,,,,,,71.5577,1.3,72.8574,72.8574,73.5243,left,1,0.6632,,73.5244,74.5279,0,4,4,11,1,total,1,images/Ex12.jpg,left,training,hard,3,,,,,
,,,,,58b20a24c352cc0001ed554b,001,37,Female,USA,BA,2024-03-06_14h29.13.597,CRL1h,2023.2.3,MacIntel,29.98680581,65e67470ae2fbf2172c317b2,65e87d71a1e7fd4eddb309d4,,,,,,,,,,,74.5285,0.9,75.4252,75.4252,76.4583,right,1,1.03,,76.4584,77.4599,0,5,5,13,1,total,1,images/Ex14.jpg,right,training,hard,3,,,,,
,,,,,58b20a24c352cc0001ed554b,001,37,Female,USA,BA,2024-03-06_14h29.13.597,CRL1h,2023.2.3,MacIntel,29.98680581,65e67470ae2fbf2172c317b2,65e87d71a1e7fd4eddb309d4,,,,,,,,,,,77.4606,0.8,78.2621,78.2622,79.1768,left,1,0.9109,,79.1769,80.1769,0,6,6,0,1,total,1,images/Ex9.jpg,left,training,hard,3,,,,,
,,,,,58b20a24c352cc0001ed554b,001,37,Female,USA,BA,2024-03-06_14h29.13.597,CRL1h,2023.2.3,MacIntel,29.98680581,65e67470ae2fbf2172c317b2,65e87d71a1e7fd4eddb309d4,,,,,,,,,,,80.1774,0.9,81.0792,81.0793,81.7284,left,1,0.6439,,81.7285,82.729,0,7,7,2,1,total,1,images/Ex11.jpg,left,training,hard,3,,,,,
,,,,,58b20a24c352cc0001ed554b,001,37,Female,USA,BA,2024-03-06_14h29.13.597,CRL1h,2023.2.3,MacIntel,29.98680581,65e67470ae2fbf2172c317b2,65e87d71a1e7fd4eddb309d4,,,,,,,,,,,82.7295,1.1,83.8285,83.8285,84.4128,right,0,0.5818,,84.4128,85.4125,0,8,8,1,1,total,1,images/Ex10.jpg,left,training,hard,3,,,,,
,,,,,58b20a24c352cc0001ed554b,001,37,Female,USA,BA,2024-03-06_14h29.13.597,CRL1h,2023.2.3,MacIntel,29.98680581,65e67470ae2fbf2172c317b2,65e87d71a1e7fd4eddb309d4,,,,,,,,,,,85.4128,0.7,86.1134,86.1135,86.9133,left,0,0.7977,,86.9133,87.9145,0,9,9,14,1,total,1,images/Ex15.jpg,right,training,hard,3,,,,,
,,,,,58b20a24c352cc0001ed554b,001,37,Female,USA,BA,2024-03-06_14h29.13.597,CRL1h,2023.2.3,MacIntel,29.98680581,65e67470ae2fbf2172c317b2,65e87d71a1e7fd4eddb309d4,,,,,,,,,,,87.9156,1.1,89.0142,89.0142,89.7648,left,0,0.7494,,89.7649,90.7664,0,10,10,7,1,total,1,images/Ex16.jpg,right,training,hard,3,,,,,
,,,,,58b20a24c352cc0001ed554b,001,37,Female,USA,BA,2024-03-06_14h29.13.597,CRL1h,2023.2.3,MacIntel,29.98680581,65e67470ae2fbf2172c317b2,65e87d71a1e7fd4eddb309d4,,,,,,,,,,,90.7675,1.1,91.8661,91.8661,92.5499,left,0,0.6824,,92.5501,93.5529,0,11,11,12,1,total,1,images/Ex13.jpg,right,training,hard,3,,,,,
,,,,,58b20a24c352cc0001ed554b,001,37,Female,USA,BA,2024-03-06_14h29.13.597,CRL1h,2023.2.3,MacIntel,29.98680581,65e67470ae2fbf2172c317b2,65e87d71a1e7fd4eddb309d4,,,,,,,,,,,93.5534,0.5,94.0516,94.0516,94.7026,right,1,0.6449,,94.7026,95.7016,0,12,12,4,1,total,1,images/Ex13.jpg,right,training,hard,3,,,,,
,,,,,58b20a24c352cc0001ed554b,001,37,Female,USA,BA,2024-03-06_14h29.13.597,CRL1h,2023.2.3,MacIntel,29.98680581,65e67470ae2fbf2172c317b2,65e87d71a1e7fd4eddb309d4,,,,,,,,,,,95.7021,1.3,97.0032,97.0032,97.7693,right,0,0.7605,,97.7693,98.7688,0,13,13,8,1,total,1,images/Ex9.jpg,left,training,hard,3,,,,,
,,,,,58b20a24c352cc0001ed554b,001,37,Female,USA,BA,2024-03-06_14h29.13.597,CRL1h,2023.2.3,MacIntel,29.98680581,65e67470ae2fbf2172c317b2,65e87d71a1e7fd4eddb309d4,,,,,,,,,,,98.7691,1.1,99.8702,99.8702,100.7198,right,0,0.8483,,100.7199,101.7218,0,14,14,3,1,total,1,images/Ex12.jpg,left,training,hard,3,,,,,
,,,,,58b20a24c352cc0001ed554b,001,37,Female,USA,BA,2024-03-06_14h29.13.597,CRL1h,2023.2.3,MacIntel,29.98680581,65e67470ae2fbf2172c317b2,65e87d71a1e7fd4eddb309d4,,,,,,,,,,,101.7222,0.6,102.3205,102.3205,103.2545,right,1,0.9326,,103.2545,104.2567,0,15,15,15,1,total,1,images/Ex16.jpg,right,training,hard,3,,,,,
,,,,,58b20a24c352cc0001ed554b,001,37,Female,USA,BA,2024-03-06_14h29.13.597,CRL1h,2023.2.3,MacIntel,29.98680581,65e67470ae2fbf2172c317b2,65e87d71a1e7fd4eddb309d4,,,,,,,,,,,104.2581,1.3,105.5554,105.5554,106.3068,left,0,0.7484,,106.3069,107.3061,1,0,16,12,1,total,1,images/Ex13.jpg,right,training,hard,3,,,,,
,,,,,58b20a24c352cc0001ed554b,001,37,Female,USA,BA,2024-03-06_14h29.13.597,CRL1h,2023.2.3,MacIntel,29.98680581,65e67470ae2fbf2172c317b2,65e87d71a1e7fd4eddb309d4,,,,,,,,,,,107.3066,0.7,108.0094,108.0094,108.9067,left,1,0.8928,,108.9067,109.9073,1,1,17,10,1,total,1,images/Ex11.jpg,left,training,hard,3,,,,,
,,,,,58b20a24c352cc0001ed554b,001,37,Female,USA,BA,2024-03-06_14h29.13.597,CRL1h,2023.2.3,MacIntel,29.98680581,65e67470ae2fbf2172c317b2,65e87d71a1e7fd4eddb309d4,,,,,,,,,,,109.9078,1.4,111.3105,111.3105,112.0429,left,0,0.7287,,112.043,113.0435,1,2,18,14,1,total,1,images/Ex15.jpg,right,training,hard,3,,,,,
,,,,,58b20a24c352cc0001ed554b,001,37,Female,USA,BA,2024-03-06_14h29.13.597,CRL1h,2023.2.3,MacIntel,29.98680581,65e67470ae2fbf2172c317b2,65e87d71a1e7fd4eddb309d4,,,,,,,,,,,113.044,1.4,114.4443,114.4443,115.0947,right,1,0.6443,,115.0948,116.094,1,3,19,5,1,total,1,images/Ex14.jpg,right,training,hard,3,,,,,
,,,,,58b20a24c352cc0001ed554b,001,37,Female,USA,BA,2024-03-06_14h29.13.597,CRL1h,2023.2.3,MacIntel,29.98680581,65e67470ae2fbf2172c317b2,65e87d71a1e7fd4eddb309d4,,,,,,,,,,,116.0945,1.1,117.1942,117.1942,118.063,right,0,0.8651,,118.063,119.0634,1,4,20,2,1,total,1,images/Ex11.jpg,left,training,hard,3,,,,,
,,,,,58b20a24c352cc0001ed554b,001,37,Female,USA,BA,2024-03-06_14h29.13.597,CRL1h,2023.2.3,MacIntel,29.98680581,65e67470ae2fbf2172c317b2,65e87d71a1e7fd4eddb309d4,,,,,,,,,,,119.0639,1.2,120.2635,120.2635,121.0798,right,0,0.8138,,121.0799,122.0802,1,5,21,1,1,total,1,images/Ex10.jpg,left,training,hard,3,,,,,
,,,,,58b20a24c352cc0001ed554b,001,37,Female,USA,BA,2024-03-06_14h29.13.597,CRL1h,2023.2.3,MacIntel,29.98680581,65e67470ae2fbf2172c317b2,65e87d71a1e7fd4eddb309d4,,,,,,,,,,,122.0807,0.6,122.6816,122.6817,123.4145,left,0,0.7292,,123.4146,124.415,1,6,22,4,1,total,1,images/Ex13.jpg,right,training,hard,3,,,,,
,,,,,58b20a24c352cc0001ed554b,001,37,Female,USA,BA,2024-03-06_14h29.13.597,CRL1h,2023.2.3,MacIntel,29.98680581,65e67470ae2fbf2172c317b2,65e87d71a1e7fd4eddb309d4,,,,,,,,,,,124.4153,1.5,125.916,125.916,126.7985,right,1,0.8796,,126.7985,127.7993,1,7,23,7,1,total,1,images/Ex16.jpg,right,training,hard,3,,,,,
,,,,,58b20a24c352cc0001ed554b,001,37,Female,USA,BA,2024-03-06_14h29.13.597,CRL1h,2023.2.3,MacIntel,29.98680581,65e67470ae2fbf2172c317b2,65e87d71a1e7fd4eddb309d4,,,,,,,,,,,127.7998,1.3,129.1001,129.1001,129.9171,left,1,0.808,,129.9171,130.9182,1,8,24,0,1,total,1,images/Ex9.jpg,left,training,hard,3,,,,,
,,,,,58b20a24c352cc0001ed554b,001,37,Female,USA,BA,2024-03-06_14h29.13.597,CRL1h,2023.2.3,MacIntel,29.98680581,65e67470ae2fbf2172c317b2,65e87d71a1e7fd4eddb309d4,,,,,,,,,,,130.9194,1.2,132.1191,132.1191,132.8528,right,1,0.7314,,132.8529,133.8535,1,9,25,13,1,total,1,images/Ex14.jpg,right,training,hard,3,,,,,
,,,,,58b20a24c352cc0001ed554b,001,37,Female,USA,BA,2024-03-06_14h29.13.597,CRL1h,2023.2.3,MacIntel,29.98680581,65e67470ae2fbf2172c317b2,65e87d71a1e7fd4eddb309d4,,,,,,,,,,,133.8549,0.6,134.4526,134.4526,135.4041,right,0,0.9477,,135.4042,136.4049,1,10,26,8,1,total,1,images/Ex9.jpg,left,training,hard,3,,,,,
,,,,,58b20a24c352cc0001ed554b,001,37,Female,USA,BA,2024-03-06_14h29.13.597,CRL1h,2023.2.3,MacIntel,29.98680581,65e67470ae2fbf2172c317b2,65e87d71a1e7fd4eddb309d4,,,,,,,,,,,136.4054,1.1,137.5051,137.5051,138.5737,right,1,1.0656,,138.5737,139.5713,1,11,27,15,1,total,1,images/Ex16.jpg,right,training,hard,3,,,,,
,,,,,58b20a24c352cc0001ed554b,001,37,Female,USA,BA,2024-03-06_14h29.13.597,CRL1h,2023.2.3,MacIntel,29.98680581,65e67470ae2fbf2172c317b2,65e87d71a1e7fd4eddb309d4,,,,,,,,,,,139.5718,1.1,140.6733,140.6733,141.3741,left,0,0.6972,,141.3741,142.3736,1,12,28,6,1,total,1,images/Ex15.jpg,right,training,hard,3,,,,,
,,,,,58b20a24c352cc0001ed554b,001,37,Female,USA,BA,2024-03-06_14h29.13.597,CRL1h,2023.2.3,MacIntel,29.98680581,65e67470ae2fbf2172c317b2,65e87d71a1e7fd4eddb309d4,,,,,,,,,,,142.374,1.4,143.7741,143.7743,144.5921,left,1,0.8091,,144.5922,145.5921,1,13,29,11,1,total,1,images/Ex12.jpg,left,training,hard,3,,,,,
,,,,,58b20a24c352cc0001ed554b,001,37,Female,USA,BA,2024-03-06_14h29.13.597,CRL1h,2023.2.3,MacIntel,29.98680581,65e67470ae2fbf2172c317b2,65e87d71a1e7fd4eddb309d4,,,,,,,,,,,145.5941,1.1,146.6914,146.6914,147.3433,left,1,0.6497,,147.3433,148.3426,1,14,30,3,1,total,1,images/Ex12.jpg,left,training,hard,3,,,,,
,,,,,58b20a24c352cc0001ed554b,001,37,Female,USA,BA,2024-03-06_14h29.13.597,CRL1h,2023.2.3,MacIntel,29.98680581,65e67470ae2fbf2172c317b2,65e87d71a1e7fd4eddb309d4,,,,,,,,,,,148.3429,1,149.3443,149.3443,150.4109,left,1,1.0656,,150.4109,151.4105,1,15,31,9,1,total,1,images/Ex10.jpg,left,training,hard,3,,,,,
,,,,,58b20a24c352cc0001ed554b,001,37,Female,USA,BA,2024-03-06_14h29.13.597,CRL1h,2023.2.3,MacIntel,29.98680581,65e67470ae2fbf2172c317b2,65e87d71a1e7fd4eddb309d4,,,,,,,,,,,151.4108,1.2,152.612,152.612,153.2124,left,0,0.5961,,153.2125,154.2122,2,0,32,6,1,total,1,images/Ex15.jpg,right,training,hard,3,,,,,
,,,,,58b20a24c352cc0001ed554b,001,37,Female,USA,BA,2024-03-06_14h29.13.597,CRL1h,2023.2.3,MacIntel,29.98680581,65e67470ae2fbf2172c317b2,65e87d71a1e7fd4eddb309d4,,,,,,,,,,,154.2128,1.2,155.416,155.416,156.2811,right,0,0.86,,156.2812,157.2813,2,1,33,8,1,total,1,images/Ex9.jpg,left,training,hard,3,,,,,
,,,,,58b20a24c352cc0001ed554b,001,37,Female,USA,BA,2024-03-06_14h29.13.597,CRL1h,2023.2.3,MacIntel,29.98680581,65e67470ae2fbf2172c317b2,65e87d71a1e7fd4eddb309d4,,,,,,,,,,,157.282,0.9,158.1814,158.1814,158.8484,left,0,0.6658,,158.8484,159.848,2,2,34,12,1,total,1,images/Ex13.jpg,right,training,hard,3,,,,,
,,,,,58b20a24c352cc0001ed554b,001,37,Female,USA,BA,2024-03-06_14h29.13.597,CRL1h,2023.2.3,MacIntel,29.98680581,65e67470ae2fbf2172c317b2,65e87d71a1e7fd4eddb309d4,,,,,,,,,,,159.8484,0.6,160.4483,160.4483,161.4151,left,0,0.9636,,161.4151,162.4169,2,3,35,7,1,total,1,images/Ex16.jpg,right,training,hard,3,,,,,
,,,,,58b20a24c352cc0001ed554b,001,37,Female,USA,BA,2024-03-06_14h29.13.597,CRL1h,2023.2.3,MacIntel,29.98680581,65e67470ae2fbf2172c317b2,65e87d71a1e7fd4eddb309d4,,,,,,,,,,,162.4173,1.2,163.6161,163.6162,164.5174,left,1,0.8978,,164.5174,165.5179,2,4,36,10,1,total,1,images/Ex11.jpg,left,training,hard,3,,,,,
,,,,,58b20a24c352cc0001ed554b,001,37,Female,USA,BA,2024-03-06_14h29.13.597,CRL1h,2023.2.3,MacIntel,29.98680581,65e67470ae2fbf2172c317b2,65e87d71a1e7fd4eddb309d4,,,,,,,,,,,165.5184,1.5,167.0178,167.0178,167.8348,right,1,0.8148,,167.8348,168.8354,2,5,37,13,1,total,1,images/Ex14.jpg,right,training,hard,3,,,,,
,,,,,58b20a24c352cc0001ed554b,001,37,Female,USA,BA,2024-03-06_14h29.13.597,CRL1h,2023.2.3,MacIntel,29.98680581,65e67470ae2fbf2172c317b2,65e87d71a1e7fd4eddb309d4,,,,,,,,,,,168.8357,0.8,169.6357,169.6357,170.1376,right,1,0.4978,,170.1376,171.1372,2,6,38,5,1,total,1,images/Ex14.jpg,right,training,hard,3,,,,,
,,,,,58b20a24c352cc0001ed554b,001,37,Female,USA,BA,2024-03-06_14h29.13.597,CRL1h,2023.2.3,MacIntel,29.98680581,65e67470ae2fbf2172c317b2,65e87d71a1e7fd4eddb309d4,,,,,,,,,,,171.1377,1.1,172.2381,172.2381,173.2058,right,1,0.9584,,173.2058,174.2053,2,7,39,4,1,total,1,images/Ex13.jpg,right,training,hard,3,,,,,
,,,,,58b20a24c352cc0001ed554b,001,37,Female,USA,BA,2024-03-06_14h29.13.597,CRL1h,2023.2.3,MacIntel,29.98680581,65e67470ae2fbf2172c317b2,65e87d71a1e7fd4eddb309d4,,,,,,,,,,,174.2058,1.3,175.5071,175.5071,176.5065,right,0,0.9975,,176.5065,177.506,2,8,40,2,1,total,1,images/Ex11.jpg,left,training,hard,3,,,,,
,,,,,58b20a24c352cc0001ed554b,001,37,Female,USA,BA,2024-03-06_14h29.13.597,CRL1h,2023.2.3,MacIntel,29.98680581,65e67470ae2fbf2172c317b2,65e87d71a1e7fd4eddb309d4,,,,,,,,,,,177.5063,0.9,178.4078,178.4078,179.2909,right,0,0.8802,,179.2909,180.2915,2,9,41,1,1,total,1,images/Ex10.jpg,left,training,hard,3,,,,,
,,,,,58b20a24c352cc0001ed554b,001,37,Female,USA,BA,2024-03-06_14h29.13.597,CRL1h,2023.2.3,MacIntel,29.98680581,65e67470ae2fbf2172c317b2,65e87d71a1e7fd4eddb309d4,,,,,,,,,,,180.2919,0.5,180.791,180.791,181.7748,left,1,0.9818,,181.7749,182.7767,2,10,42,0,1,total,1,images/Ex9.jpg,left,training,hard,3,,,,,
,,,,,58b20a24c352cc0001ed554b,001,37,Female,USA,BA,2024-03-06_14h29.13.597,CRL1h,2023.2.3,MacIntel,29.98680581,65e67470ae2fbf2172c317b2,65e87d71a1e7fd4eddb309d4,,,,,,,,,,,182.7772,1.4,184.1764,184.1764,185.0936,left,0,0.9141,,185.0937,186.0936,2,11,43,15,1,total,1,images/Ex16.jpg,right,training,hard,3,,,,,
,,,,,58b20a24c352cc0001ed554b,001,37,Female,USA,BA,2024-03-06_14h29.13.597,CRL1h,2023.2.3,MacIntel,29.98680581,65e67470ae2fbf2172c317b2,65e87d71a1e7fd4eddb309d4,,,,,,,,,,,186.0941,0.8,186.8953,186.8953,187.8787,left,0,0.9794,,187.8788,188.8795,2,12,44,14,1,total,1,images/Ex15.jpg,right,training,hard,3,,,,,
,,,,,58b20a24c352cc0001ed554b,001,37,Female,USA,BA,2024-03-06_14h29.13.597,CRL1h,2023.2.3,MacIntel,29.98680581,65e67470ae2fbf2172c317b2,65e87d71a1e7fd4eddb309d4,,,,,,,,,,,188.88,0.8,189.6785,189.6785,190.6303,right,0,0.9475,,190.6303,191.6307,2,13,45,11,1,total,1,images/Ex12.jpg,left,training,hard,3,,,,,
,,,,,58b20a24c352cc0001ed554b,001,37,Female,USA,BA,2024-03-06_14h29.13.597,CRL1h,2023.2.3,MacIntel,29.98680581,65e67470ae2fbf2172c317b2,65e87d71a1e7fd4eddb309d4,,,,,,,,,,,191.6312,1,192.6305,192.6306,193.3153,right,0,0.6796,,193.3153,194.3178,2,14,46,9,1,total,1,images/Ex10.jpg,left,training,hard,3,,,,,
,,,,,58b20a24c352cc0001ed554b,001,37,Female,USA,BA,2024-03-06_14h29.13.597,CRL1h,2023.2.3,MacIntel,29.98680581,65e67470ae2fbf2172c317b2,65e87d71a1e7fd4eddb309d4,,,,,,,,,,,194.3184,1.4,195.7158,195.7158,196.6,left,1,0.882,,196.6001,197.5991,2,15,47,3,1,total,1,images/Ex12.jpg,left,training,hard,3,,,,,
,,,,,58b20a24c352cc0001ed554b,001,37,Female,USA,BA,2024-03-06_14h29.13.597,CRL1h,2023.2.3,MacIntel,29.98680581,65e67470ae2fbf2172c317b2,65e87d71a1e7fd4eddb309d4,,,,,,,,,,,197.5993,1.5,199.1,199.1,200.0858,left,1,0.9772,,200.0859,201.0852,3,0,48,0,1,total,1,images/Ex9.jpg,left,training,hard,3,,,,,
,,,,,58b20a24c352cc0001ed554b,001,37,Female,USA,BA,2024-03-06_14h29.13.597,CRL1h,2023.2.3,MacIntel,29.98680581,65e67470ae2fbf2172c317b2,65e87d71a1e7fd4eddb309d4,,,,,,,,,,,201.0863,0.5,201.585,201.585,202.3522,left,1,0.7638,,202.3524,203.3523,3,1,49,11,1,total,1,images/Ex12.jpg,left,training,hard,3,,,,,
,,,,,58b20a24c352cc0001ed554b,001,37,Female,USA,BA,2024-03-06_14h29.13.597,CRL1h,2023.2.3,MacIntel,29.98680581,65e67470ae2fbf2172c317b2,65e87d71a1e7fd4eddb309d4,,,,,,,,,,,203.3529,0.7,204.053,204.0531,204.8024,left,0,0.7472,,204.8025,205.8049,3,2,50,12,1,total,1,images/Ex13.jpg,right,training,hard,3,,,,,
,,,,,58b20a24c352cc0001ed554b,001,37,Female,USA,BA,2024-03-06_14h29.13.597,CRL1h,2023.2.3,MacIntel,29.98680581,65e67470ae2fbf2172c317b2,65e87d71a1e7fd4eddb309d4,,,,,,,,,,,205.8064,0.7,206.5045,206.5046,207.3536,left,0,0.845,,207.3536,208.3562,3,3,51,14,1,total,1,images/Ex15.jpg,right,training,hard,3,,,,,
,,,,,58b20a24c352cc0001ed554b,001,37,Female,USA,BA,2024-03-06_14h29.13.597,CRL1h,2023.2.3,MacIntel,29.98680581,65e67470ae2fbf2172c317b2,65e87d71a1e7fd4eddb309d4,,,,,,,,,,,208.3577,1,209.3545,209.3545,210.2397,left,1,0.8841,,210.2398,211.2388,3,4,52,1,1,total,1,images/Ex10.jpg,left,training,hard,3,,,,,
,,,,,58b20a24c352cc0001ed554b,001,37,Female,USA,BA,2024-03-06_14h29.13.597,CRL1h,2023.2.3,MacIntel,29.98680581,65e67470ae2fbf2172c317b2,65e87d71a1e7fd4eddb309d4,,,,,,,,,,,211.2391,1.4,212.6393,212.6393,213.2745,left,1,0.6277,,213.2746,214.2743,3,5,53,9,1,total,1,images/Ex10.jpg,left,training,hard,3,,,,,
,,,,,58b20a24c352cc0001ed554b,001,37,Female,USA,BA,2024-03-06_14h29.13.597,CRL1h,2023.2.3,MacIntel,29.98680581,65e67470ae2fbf2172c317b2,65e87d71a1e7fd4eddb309d4,,,,,,,,,,,214.2747,1.3,215.5742,215.5742,216.5812,left,1,0.9997,,216.5813,217.5791,3,6,54,10,1,total,1,images/Ex11.jpg,left,training,hard,3,,,,,
,,,,,58b20a24c352cc0001ed554b,001,37,Female,USA,BA,2024-03-06_14h29.13.597,CRL1h,2023.2.3,MacIntel,29.98680581,65e67470ae2fbf2172c317b2,65e87d71a1e7fd4eddb309d4,,,,,,,,,,,217.5797,1.4,218.9805,218.9805,220.027,left,0,1.0433,,220.027,221.03,3,7,55,7,1,total,1,images/Ex16.jpg,right,training,hard,3,,,,,
,,,,,58b20a24c352cc0001ed554b,001,37,Female,USA,BA,2024-03-06_14h29.13.597,CRL1h,2023.2.3,MacIntel,29.98680581,65e67470ae2fbf2172c317b2,65e87d71a1e7fd4eddb309d4,,,,,,,,,,,221.0306,0.9,221.929,221.9292,222.8132,left,1,0.8788,,222.8133,223.8139,3,8,56,8,1,total,1,images/Ex9.jpg,left,training,hard,3,,,,,
,,,,,58b20a24c352cc0001ed554b,001,37,Female,USA,BA,2024-03-06_14h29.13.597,CRL1h,2023.2.3,MacIntel,29.98680581,65e67470ae2fbf2172c317b2,65e87d71a1e7fd4eddb309d4,,,,,,,,,,,223.8146,0.6,224.4147,224.4148,225.0991,right,1,0.6778,,225.0992,226.096,3,9,57,5,1,total,1,images/Ex14.jpg,right,training,hard,3,,,,,
,,,,,58b20a24c352cc0001ed554b,001,37,Female,USA,BA,2024-03-06_14h29.13.597,CRL1h,2023.2.3,MacIntel,29.98680581,65e67470ae2fbf2172c317b2,65e87d71a1e7fd4eddb309d4,,,,,,,,,,,226.0965,0.9,226.9972,226.9973,227.848,left,0,0.847,,227.848,228.8497,3,10,58,15,1,total,1,images/Ex16.jpg,right,training,hard,3,,,,,
,,,,,58b20a24c352cc0001ed554b,001,37,Female,USA,BA,2024-03-06_14h29.13.597,CRL1h,2023.2.3,MacIntel,29.98680581,65e67470ae2fbf2172c317b2,65e87d71a1e7fd4eddb309d4,,,,,,,,,,,228.8506,1.3,230.1496,230.1496,231.0993,left,0,0.9465,,231.0994,232.1019,3,11,59,6,1,total,1,images/Ex15.jpg,right,training,hard,3,,,,,
,,,,,58b20a24c352cc0001ed554b,001,37,Female,USA,BA,2024-03-06_14h29.13.597,CRL1h,2023.2.3,MacIntel,29.98680581,65e67470ae2fbf2172c317b2,65e87d71a1e7fd4eddb309d4,,,,,,,,,,,232.1023,1,233.1007,233.1007,233.7508,right,1,0.647,,233.751,234.7533,3,12,60,13,1,total,1,images/Ex14.jpg,right,training,hard,3,,,,,
,,,,,58b20a24c352cc0001ed554b,001,37,Female,USA,BA,2024-03-06_14h29.13.597,CRL1h,2023.2.3,MacIntel,29.98680581,65e67470ae2fbf2172c317b2,65e87d71a1e7fd4eddb309d4,,,,,,,,,,,234.754,1.5,236.2552,236.2553,237.0211,right,0,0.7561,,237.0211,238.0214,3,13,61,2,1,total,1,images/Ex11.jpg,left,training,hard,3,,,,,
,,,,,58b20a24c352cc0001ed554b,001,37,Female,USA,BA,2024-03-06_14h29.13.597,CRL1h,2023.2.3,MacIntel,29.98680581,65e67470ae2fbf2172c317b2,65e87d71a1e7fd4eddb309d4,,,,,,,,,,,238.022,1.1,239.1198,239.1198,240.106,right,1,0.9793,,240.106,241.104,3,14,62,4,1,total,1,images/Ex13.jpg,right,training,hard,3,,,,,
,,,,,58b20a24c352cc0001ed554b,001,37,Female,USA,BA,2024-03-06_14h29.13.597,CRL1h,2023.2.3,MacIntel,29.98680581,65e67470ae2fbf2172c317b2,65e87d71a1e7fd4eddb309d4,,,,,,,,,,,241.1047,1.2,242.3081,242.3081,242.9887,right,0,0.6767,,242.9892,243.9888,3,15,63,3,1,total,1,images/Ex12.jpg,left,training,hard,3,,,,,
,,,,,58b20a24c352cc0001ed554b,001,37,Female,USA,BA,2024-03-06_14h29.13.597,CRL1h,2023.2.3,MacIntel,29.98680581,65e67470ae2fbf2172c317b2,65e87d71a1e7fd4eddb309d4,,,,,,,,,,,243.9893,0.8,244.7897,244.7897,245.5734,left,0,0.7789,,245.5736,246.5737,4,0,64,6,1,total,1,images/Ex15.jpg,right,training,hard,3,,,,,
,,,,,58b20a24c352cc0001ed554b,001,37,Female,USA,BA,2024-03-06_14h29.13.597,CRL1h,2023.2.3,MacIntel,29.98680581,65e67470ae2fbf2172c317b2,65e87d71a1e7fd4eddb309d4,,,,,,,,,,,246.5743,0.6,247.1764,247.1764,248.1572,left,1,0.9795,,248.1573,249.161,4,1,65,11,1,total,1,images/Ex12.jpg,left,training,hard,3,,,,,
,,,,,58b20a24c352cc0001ed554b,001,37,Female,USA,BA,2024-03-06_14h29.13.597,CRL1h,2023.2.3,MacIntel,29.98680581,65e67470ae2fbf2172c317b2,65e87d71a1e7fd4eddb309d4,,,,,,,,,,,249.1619,1.1,250.2582,250.2582,251.0615,right,1,0.7994,,251.0615,252.0591,4,2,66,7,1,total,1,images/Ex16.jpg,right,training,hard,3,,,,,
,,,,,58b20a24c352cc0001ed554b,001,37,Female,USA,BA,2024-03-06_14h29.13.597,CRL1h,2023.2.3,MacIntel,29.98680581,65e67470ae2fbf2172c317b2,65e87d71a1e7fd4eddb309d4,,,,,,,,,,,252.0596,1.3,253.3619,253.3619,254.1275,right,0,0.7606,,254.1277,255.1285,4,3,67,9,1,total,1,images/Ex10.jpg,left,training,hard,3,,,,,
,,,,,58b20a24c352cc0001ed554b,001,37,Female,USA,BA,2024-03-06_14h29.13.597,CRL1h,2023.2.3,MacIntel,29.98680581,65e67470ae2fbf2172c317b2,65e87d71a1e7fd4eddb309d4,,,,,,,,,,,255.1297,1.4,256.5276,256.5276,257.4955,right,0,0.9639,,257.4955,258.4963,4,4,68,2,1,total,1,images/Ex11.jpg,left,training,hard,3,,,,,
,,,,,58b20a24c352cc0001ed554b,001,37,Female,USA,BA,2024-03-06_14h29.13.597,CRL1h,2023.2.3,MacIntel,29.98680581,65e67470ae2fbf2172c317b2,65e87d71a1e7fd4eddb309d4,,,,,,,,,,,258.4968,0.7,259.1983,259.1983,260.0306,left,1,0.8265,,260.0306,261.0324,4,5,69,8,1,total,1,images/Ex9.jpg,left,training,hard,3,,,,,
,,,,,58b20a24c352cc0001ed554b,001,37,Female,USA,BA,2024-03-06_14h29.13.597,CRL1h,2023.2.3,MacIntel,29.98680581,65e67470ae2fbf2172c317b2,65e87d71a1e7fd4eddb309d4,,,,,,,,,,,261.0331,1.1,262.1311,262.1311,262.5996,right,1,0.463,,262.5996,263.5989,4,6,70,15,1,total,1,images/Ex16.jpg,right,training,hard,3,,,,,
,,,,,58b20a24c352cc0001ed554b,001,37,Female,USA,BA,2024-03-06_14h29.13.597,CRL1h,2023.2.3,MacIntel,29.98680581,65e67470ae2fbf2172c317b2,65e87d71a1e7fd4eddb309d4,,,,,,,,,,,263.6,0.6,264.1973,264.1973,265.0325,left,0,0.8301,,265.0326,266.0345,4,7,71,12,1,total,1,images/Ex13.jpg,right,training,hard,3,,,,,
,,,,,58b20a24c352cc0001ed554b,001,37,Female,USA,BA,2024-03-06_14h29.13.597,CRL1h,2023.2.3,MacIntel,29.98680581,65e67470ae2fbf2172c317b2,65e87d71a1e7fd4eddb309d4,,,,,,,,,,,266.0352,1.2,267.2329,267.2329,268.034,left,1,0.7917,,268.034,269.0342,4,8,72,0,1,total,1,images/Ex9.jpg,left,training,hard,3,,,,,
,,,,,58b20a24c352cc0001ed554b,001,37,Female,USA,BA,2024-03-06_14h29.13.597,CRL1h,2023.2.3,MacIntel,29.98680581,65e67470ae2fbf2172c317b2,65e87d71a1e7fd4eddb309d4,,,,,,,,,,,269.0348,1.1,270.1345,270.1345,271.087,right,1,0.9455,,271.0871,272.0845,4,9,73,14,1,total,1,images/Ex15.jpg,right,training,hard,3,,,,,
,,,,,58b20a24c352cc0001ed554b,001,37,Female,USA,BA,2024-03-06_14h29.13.597,CRL1h,2023.2.3,MacIntel,29.98680581,65e67470ae2fbf2172c317b2,65e87d71a1e7fd4eddb309d4,,,,,,,,,,,272.085,0.7,272.7876,272.7876,273.4379,right,1,0.6453,,273.438,274.437,4,10,74,5,1,total,1,images/Ex14.jpg,right,training,hard,3,,,,,
,,,,,58b20a24c352cc0001ed554b,001,37,Female,USA,BA,2024-03-06_14h29.13.597,CRL1h,2023.2.3,MacIntel,29.98680581,65e67470ae2fbf2172c317b2,65e87d71a1e7fd4eddb309d4,,,,,,,,,,,274.4382,0.7,275.1388,275.1388,275.8371,right,0,0.6952,,275.8371,276.8399,4,11,75,1,1,total,1,images/Ex10.jpg,left,training,hard,3,,,,,
,,,,,58b20a24c352cc0001ed554b,001,37,Female,USA,BA,2024-03-06_14h29.13.597,CRL1h,2023.2.3,MacIntel,29.98680581,65e67470ae2fbf2172c317b2,65e87d71a1e7fd4eddb309d4,,,,,,,,,,,276.8403,1.2,278.041,278.041,278.5238,right,1,0.4767,,278.5239,279.5248,4,12,76,13,1,total,1,images/Ex14.jpg,right,training,hard,3,,,,,
,,,,,58b20a24c352cc0001ed554b,001,37,Female,USA,BA,2024-03-06_14h29.13.597,CRL1h,2023.2.3,MacIntel,29.98680581,65e67470ae2fbf2172c317b2,65e87d71a1e7fd4eddb309d4,,,,,,,,,,,279.5253,1,280.5256,280.5257,281.5092,left,0,0.9764,,281.5092,282.5064,4,13,77,4,1,total,1,images/Ex13.jpg,right,training,hard,3,,,,,
,,,,,58b20a24c352cc0001ed554b,001,37,Female,USA,BA,2024-03-06_14h29.13.597,CRL1h,2023.2.3,MacIntel,29.98680581,65e67470ae2fbf2172c317b2,65e87d71a1e7fd4eddb309d4,,,,,,,,,,,282.507,1.2,283.7066,283.7067,284.5611,left,1,0.8492,,284.5612,285.5587,4,14,78,3,1,total,1,images/Ex12.jpg,left,training,hard,3,,,,,
,,,,,58b20a24c352cc0001ed554b,001,37,Female,USA,BA,2024-03-06_14h29.13.597,CRL1h,2023.2.3,MacIntel,29.98680581,65e67470ae2fbf2172c317b2,65e87d71a1e7fd4eddb309d4,,,,,,,,,,,285.559,1.2,286.7597,286.7597,287.8288,right,0,1.0625,,287.8288,288.8266,4,15,79,10,1,total,1,images/Ex11.jpg,left,training,hard,3,,,,,
,,,,,58b20a24c352cc0001ed554b,001,37,Female,USA,BA,2024-03-06_14h29.13.597,CRL1h,2023.2.3,MacIntel,29.98680581,65e67470ae2fbf2172c317b2,65e87d71a1e7fd4eddb309d4,,,,,,,,,,,288.8271,0.5,289.3272,289.3273,290.3455,left,1,1.0131,,290.3456,291.3466,5,0,80,0,1,total,1,images/Ex9.jpg,left,training,hard,3,,,,,
,,,,,58b20a24c352cc0001ed554b,001,37,Female,USA,BA,2024-03-06_14h29.13.597,CRL1h,2023.2.3,MacIntel,29.98680581,65e67470ae2fbf2172c317b2,65e87d71a1e7fd4eddb309d4,,,,,,,,,,,291.3471,1.3,292.6467,292.6467,293.7318,left,1,1.0814,,293.7319,294.7301,5,1,81,11,1,total,1,images/Ex12.jpg,left,training,hard,3,,,,,
,,,,,58b20a24c352cc0001ed554b,001,37,Female,USA,BA,2024-03-06_14h29.13.597,CRL1h,2023.2.3,MacIntel,29.98680581,65e67470ae2fbf2172c317b2,65e87d71a1e7fd4eddb309d4,,,,,,,,,,,294.7308,0.8,295.5316,295.5317,296.5143,right,0,0.9784,,296.5143,297.5169,5,2,82,1,1,total,1,images/Ex10.jpg,left,training,hard,3,,,,,
,,,,,58b20a24c352cc0001ed554b,001,37,Female,USA,BA,2024-03-06_14h29.13.597,CRL1h,2023.2.3,MacIntel,29.98680581,65e67470ae2fbf2172c317b2,65e87d71a1e7fd4eddb309d4,,,,,,,,,,,297.5176,0.6,298.1146,298.1146,299.1165,left,0,0.9898,,299.1165,300.1175,5,3,83,12,1,total,1,images/Ex13.jpg,right,training,hard,3,,,,,
,,,,,58b20a24c352cc0001ed554b,001,37,Female,USA,BA,2024-03-06_14h29.13.597,CRL1h,2023.2.3,MacIntel,29.98680581,65e67470ae2fbf2172c317b2,65e87d71a1e7fd4eddb309d4,,,,,,,,,,,300.1181,1.5,301.6162,301.6162,302.7014,left,0,1.0808,,302.7017,303.7007,5,4,84,6,1,total,1,images/Ex15.jpg,right,training,hard,3,,,,,
,,,,,58b20a24c352cc0001ed554b,001,37,Female,USA,BA,2024-03-06_14h29.13.597,CRL1h,2023.2.3,MacIntel,29.98680581,65e67470ae2fbf2172c317b2,65e87d71a1e7fd4eddb309d4,,,,,,,,,,,303.7011,0.7,304.4026,304.4026,305.8881,left,1,1.4796,,305.8883,306.8855,5,5,85,2,1,total,1,images/Ex11.jpg,left,training,hard,3,,,,,
,,,,,58b20a24c352cc0001ed554b,001,37,Female,USA,BA,2024-03-06_14h29.13.597,CRL1h,2023.2.3,MacIntel,29.98680581,65e67470ae2fbf2172c317b2,65e87d71a1e7fd4eddb309d4,,,,,,,,,,,306.8944,0.9,307.7856,307.7856,308.3051,left,1,0.5148,,308.3051,309.302,5,6,86,10,1,total,1,images/Ex11.jpg,left,training,hard,3,,,,,
,,,,,58b20a24c352cc0001ed554b,001,37,Female,USA,BA,2024-03-06_14h29.13.597,CRL1h,2023.2.3,MacIntel,29.98680581,65e67470ae2fbf2172c317b2,65e87d71a1e7fd4eddb309d4,,,,,,,,,,,309.3024,1.2,310.5063,310.5064,311.2402,right,1,0.7266,,311.2402,312.238,5,7,87,7,1,total,1,images/Ex16.jpg,right,training,hard,3,,,,,
,,,,,58b20a24c352cc0001ed554b,001,37,Female,USA,BA,2024-03-06_14h29.13.597,CRL1h,2023.2.3,MacIntel,29.98680581,65e67470ae2fbf2172c317b2,65e87d71a1e7fd4eddb309d4,,,,,,,,,,,312.2385,0.8,313.0391,313.0392,314.0764,right,0,1.0352,,314.0766,315.0737,5,8,88,3,1,total,1,images/Ex12.jpg,left,training,hard,3,,,,,
,,,,,58b20a24c352cc0001ed554b,001,37,Female,USA,BA,2024-03-06_14h29.13.597,CRL1h,2023.2.3,MacIntel,29.98680581,65e67470ae2fbf2172c317b2,65e87d71a1e7fd4eddb309d4,,,,,,,,,,,315.0747,1.1,316.1738,316.1738,316.8073,right,1,0.6285,,316.8074,317.8099,5,9,89,15,1,total,1,images/Ex16.jpg,right,training,hard,3,,,,,
,,,,,58b20a24c352cc0001ed554b,001,37,Female,USA,BA,2024-03-06_14h29.13.597,CRL1h,2023.2.3,MacIntel,29.98680581,65e67470ae2fbf2172c317b2,65e87d71a1e7fd4eddb309d4,,,,,,,,,,,317.8104,1.2,319.0065,319.0065,319.8746,left,1,0.8646,,319.8746,320.8774,5,10,90,9,1,total,1,images/Ex10.jpg,left,training,hard,3,,,,,
,,,,,58b20a24c352cc0001ed554b,001,37,Female,USA,BA,2024-03-06_14h29.13.597,CRL1h,2023.2.3,MacIntel,29.98680581,65e67470ae2fbf2172c317b2,65e87d71a1e7fd4eddb309d4,,,,,,,,,,,320.8779,0.9,321.7758,321.7759,322.6941,left,1,0.9142,,322.6942,323.6936,5,11,91,8,1,total,1,images/Ex9.jpg,left,training,hard,3,,,,,
,,,,,58b20a24c352cc0001ed554b,001,37,Female,USA,BA,2024-03-06_14h29.13.597,CRL1h,2023.2.3,MacIntel,29.98680581,65e67470ae2fbf2172c317b2,65e87d71a1e7fd4eddb309d4,,,,,,,,,,,323.6941,1.1,324.7944,324.7944,325.3295,left,0,0.5287,,325.3295,326.3267,5,12,92,4,1,total,1,images/Ex13.jpg,right,training,hard,3,,,,,
,,,,,58b20a24c352cc0001ed554b,001,37,Female,USA,BA,2024-03-06_14h29.13.597,CRL1h,2023.2.3,MacIntel,29.98680581,65e67470ae2fbf2172c317b2,65e87d71a1e7fd4eddb309d4,,,,,,,,,,,326.3273,1.3,327.6287,327.6288,328.3133,right,1,0.6756,,328.3133,329.3144,5,13,93,13,1,total,1,images/Ex14.jpg,right,training,hard,3,,,,,
,,,,,58b20a24c352cc0001ed554b,001,37,Female,USA,BA,2024-03-06_14h29.13.597,CRL1h,2023.2.3,MacIntel,29.98680581,65e67470ae2fbf2172c317b2,65e87d71a1e7fd4eddb309d4,,,,,,,,,,,329.3151,1.3,330.6137,330.6137,331.1305,right,1,0.5121,,331.1307,332.1296,5,14,94,5,1,total,1,images/Ex14.jpg,right,training,hard,3,,,,,
,,,,,58b20a24c352cc0001ed554b,001,37,Female,USA,BA,2024-03-06_14h29.13.597,CRL1h,2023.2.3,MacIntel,29.98680581,65e67470ae2fbf2172c317b2,65e87d71a1e7fd4eddb309d4,,,,,,,,,,,332.1305,1.3,333.4325,333.4327,334.2168,right,1,0.7783,,334.2168,335.2157,5,15,95,14,1,total,1,images/Ex15.jpg,right,training,hard,3,,,,,
,,,,,58b20a24c352cc0001ed554b,001,37,Female,USA,BA,2024-03-06_14h29.13.597,CRL1h,2023.2.3,MacIntel,29.98680581,65e67470ae2fbf2172c317b2,65e87d71a1e7fd4eddb309d4,,,,,,,,,,,335.2161,1.1,336.3172,336.3175,337.1172,left,1,0.7955,,337.1178,338.1166,6,0,96,11,1,total,1,images/Ex12.jpg,left,training,hard,3,,,,,
,,,,,58b20a24c352cc0001ed554b,001,37,Female,USA,BA,2024-03-06_14h29.13.597,CRL1h,2023.2.3,MacIntel,29.98680581,65e67470ae2fbf2172c317b2,65e87d71a1e7fd4eddb309d4,,,,,,,,,,,338.117,0.8,338.9177,338.9177,339.7346,right,0,0.8146,,339.735,340.7371,6,1,97,0,1,total,1,images/Ex9.jpg,left,training,hard,3,,,,,
,,,,,58b20a24c352cc0001ed554b,001,37,Female,USA,BA,2024-03-06_14h29.13.597,CRL1h,2023.2.3,MacIntel,29.98680581,65e67470ae2fbf2172c317b2,65e87d71a1e7fd4eddb309d4,,,,,,,,,,,340.7379,0.8,341.5356,341.5356,342.5706,right,0,1.029,,342.5707,343.5712,6,2,98,2,1,total,1,images/Ex11.jpg,left,training,hard,3,,,,,
,,,,,58b20a24c352cc0001ed554b,001,37,Female,USA,BA,2024-03-06_14h29.13.597,CRL1h,2023.2.3,MacIntel,29.98680581,65e67470ae2fbf2172c317b2,65e87d71a1e7fd4eddb309d4,,,,,,,,,,,343.5718,1,344.5719,344.5719,345.1898,left,1,0.6115,,345.1899,346.186,6,3,99,8,1,total,1,images/Ex9.jpg,left,training,hard,3,,,,,
,,,,,58b20a24c352cc0001ed554b,001,37,Female,USA,BA,2024-03-06_14h29.13.597,CRL1h,2023.2.3,MacIntel,29.98680581,65e67470ae2fbf2172c317b2,65e87d71a1e7fd4eddb309d4,,,,,,,,,,,346.1864,0.9,347.0876,347.0877,348.0537,right,1,0.9639,,348.0537,349.0552,6,4,100,6,1,total,1,images/Ex15.jpg,right,training,hard,3,,,,,
,,,,,58b20a24c352cc0001ed554b,001,37,Female,USA,BA,2024-03-06_14h29.13.597,CRL1h,2023.2.3,MacIntel,29.98680581,65e67470ae2fbf2172c317b2,65e87d71a1e7fd4eddb309d4,,,,,,,,,,,349.0556,1.3,350.3566,350.3567,351.3885,right,1,1.029,,351.3886,352.3921,6,5,101,12,1,total,1,images/Ex13.jpg,right,training,hard,3,,,,,
,,,,,58b20a24c352cc0001ed554b,001,37,Female,USA,BA,2024-03-06_14h29.13.597,CRL1h,2023.2.3,MacIntel,29.98680581,65e67470ae2fbf2172c317b2,65e87d71a1e7fd4eddb309d4,,,,,,,,,,,352.3926,1.5,353.8897,353.8898,354.9752,left,1,1.0765,,354.9753,355.974,6,6,102,9,1,total,1,images/Ex10.jpg,left,training,hard,3,,,,,
,,,,,58b20a24c352cc0001ed554b,001,37,Female,USA,BA,2024-03-06_14h29.13.597,CRL1h,2023.2.3,MacIntel,29.98680581,65e67470ae2fbf2172c317b2,65e87d71a1e7fd4eddb309d4,,,,,,,,,,,355.9743,1.4,357.3747,357.3747,358.0928,right,1,0.7143,,358.0929,359.0921,6,7,103,5,1,total,1,images/Ex14.jpg,right,training,hard,3,,,,,
,,,,,58b20a24c352cc0001ed554b,001,37,Female,USA,BA,2024-03-06_14h29.13.597,CRL1h,2023.2.3,MacIntel,29.98680581,65e67470ae2fbf2172c317b2,65e87d71a1e7fd4eddb309d4,,,,,,,,,,,359.0925,1.1,360.1929,360.1929,361.3612,left,0,1.1647,,361.3613,362.3608,6,8,104,4,1,total,1,images/Ex13.jpg,right,training,hard,3,,,,,
,,,,,58b20a24c352cc0001ed554b,001,37,Female,USA,BA,2024-03-06_14h29.13.597,CRL1h,2023.2.3,MacIntel,29.98680581,65e67470ae2fbf2172c317b2,65e87d71a1e7fd4eddb309d4,,,,,,,,,,,362.3611,1.1,363.4619,363.4619,364.5654,left,1,1.0968,,364.5655,365.5626,6,9,105,1,1,total,1,images/Ex10.jpg,left,training,hard,3,,,,,
,,,,,58b20a24c352cc0001ed554b,001,37,Female,USA,BA,2024-03-06_14h29.13.597,CRL1h,2023.2.3,MacIntel,29.98680581,65e67470ae2fbf2172c317b2,65e87d71a1e7fd4eddb309d4,,,,,,,,,,,365.563,1.2,366.7641,366.7642,367.72,right,1,0.9523,,367.7201,368.7148,6,10,106,7,1,total,1,images/Ex16.jpg,right,training,hard,3,,,,,
,,,,,58b20a24c352cc0001ed554b,001,37,Female,USA,BA,2024-03-06_14h29.13.597,CRL1h,2023.2.3,MacIntel,29.98680581,65e67470ae2fbf2172c317b2,65e87d71a1e7fd4eddb309d4,,,,,,,,,,,368.7152,0.8,369.5156,369.5158,370.3344,left,1,0.8127,,370.3345,371.3345,6,11,107,10,1,total,1,images/Ex11.jpg,left,training,hard,3,,,,,
,,,,,58b20a24c352cc0001ed554b,001,37,Female,USA,BA,2024-03-06_14h29.13.597,CRL1h,2023.2.3,MacIntel,29.98680581,65e67470ae2fbf2172c317b2,65e87d71a1e7fd4eddb309d4,,,,,,,,,,,371.3349,0.8,372.1337,372.1337,372.9544,left,1,0.8182,,372.9545,373.9522,6,12,108,3,1,total,1,images/Ex12.jpg,left,training,hard,3,,,,,
,,,,,58b20a24c352cc0001ed554b,001,37,Female,USA,BA,2024-03-06_14h29.13.597,CRL1h,2023.2.3,MacIntel,29.98680581,65e67470ae2fbf2172c317b2,65e87d71a1e7fd4eddb309d4,,,,,,,,,,,373.953,1.3,375.2512,375.2512,376.1347,left,0,0.8799,,376.1347,377.1379,6,13,109,14,1,total,1,images/Ex15.jpg,right,training,hard,3,,,,,
,,,,,58b20a24c352cc0001ed554b,001,37,Female,USA,BA,2024-03-06_14h29.13.597,CRL1h,2023.2.3,MacIntel,29.98680581,65e67470ae2fbf2172c317b2,65e87d71a1e7fd4eddb309d4,,,,,,,,,,,377.1391,1.5,378.6353,378.6354,379.2383,right,1,0.5972,,379.2385,380.2385,6,14,110,13,1,total,1,images/Ex14.jpg,right,training,hard,3,,,,,
,,,,,58b20a24c352cc0001ed554b,001,37,Female,USA,BA,2024-03-06_14h29.13.597,CRL1h,2023.2.3,MacIntel,29.98680581,65e67470ae2fbf2172c317b2,65e87d71a1e7fd4eddb309d4,,,,,,,,,,,380.2391,1.2,381.4398,381.4398,381.9891,right,1,0.544,,381.9892,382.9889,6,15,111,15,1,total,1,images/Ex16.jpg,right,training,hard,3,,,,,
,,,,,58b20a24c352cc0001ed554b,001,37,Female,USA,BA,2024-03-06_14h29.13.597,CRL1h,2023.2.3,MacIntel,29.98680581,65e67470ae2fbf2172c317b2,65e87d71a1e7fd4eddb309d4,,,,,,,,,,,382.99,1,383.9907,383.9907,384.8419,left,1,0.846,,384.8421,385.8398,7,0,112,0,1,total,1,images/Ex9.jpg,left,training,hard,3,,,,,
,,,,,58b20a24c352cc0001ed554b,001,37,Female,USA,BA,2024-03-06_14h29.13.597,CRL1h,2023.2.3,MacIntel,29.98680581,65e67470ae2fbf2172c317b2,65e87d71a1e7fd4eddb309d4,,,,,,,,,,,385.8401,1.4,387.2405,387.2406,388.2431,left,1,0.9963,,388.2432,389.243,7,1,113,9,1,total,1,images/Ex10.jpg,left,training,hard,3,,,,,
,,,,,58b20a24c352cc0001ed554b,001,37,Female,USA,BA,2024-03-06_14h29.13.597,CRL1h,2023.2.3,MacIntel,29.98680581,65e67470ae2fbf2172c317b2,65e87d71a1e7fd4eddb309d4,,,,,,,,,,,389.2434,0.6,389.8402,389.8402,391.1091,left,0,1.261,,391.1092,392.1086,7,2,114,4,1,total,1,images/Ex13.jpg,right,training,hard,3,,,,,
,,,,,58b20a24c352cc0001ed554b,001,37,Female,USA,BA,2024-03-06_14h29.13.597,CRL1h,2023.2.3,MacIntel,29.98680581,65e67470ae2fbf2172c317b2,65e87d71a1e7fd4eddb309d4,,,,,,,,,,,392.1092,1.4,393.5114,393.5115,394.0446,right,1,0.5283,,394.0446,395.0461,7,3,115,13,1,total,1,images/Ex14.jpg,right,training,hard,3,,,,,
,,,,,58b20a24c352cc0001ed554b,001,37,Female,USA,BA,2024-03-06_14h29.13.597,CRL1h,2023.2.3,MacIntel,29.98680581,65e67470ae2fbf2172c317b2,65e87d71a1e7fd4eddb309d4,,,,,,,,,,,395.0467,1.5,396.5436,396.5436,397.6958,left,1,1.1482,,397.6959,398.695,7,4,116,10,1,total,1,images/Ex11.jpg,left,training,hard,3,,,,,
,,,,,58b20a24c352cc0001ed554b,001,37,Female,USA,BA,2024-03-06_14h29.13.597,CRL1h,2023.2.3,MacIntel,29.98680581,65e67470ae2fbf2172c317b2,65e87d71a1e7fd4eddb309d4,,,,,,,,,,,398.6956,0.8,399.4963,399.4963,400.5318,right,1,1.0311,,400.5319,401.5303,7,5,117,14,1,total,1,images/Ex15.jpg,right,training,hard,3,,,,,
,,,,,58b20a24c352cc0001ed554b,001,37,Female,USA,BA,2024-03-06_14h29.13.597,CRL1h,2023.2.3,MacIntel,29.98680581,65e67470ae2fbf2172c317b2,65e87d71a1e7fd4eddb309d4,,,,,,,,,,,401.5308,0.7,402.2332,402.2333,402.8339,right,1,0.5936,,402.8341,403.8309,7,6,118,5,1,total,1,images/Ex14.jpg,right,training,hard,3,,,,,
,,,,,58b20a24c352cc0001ed554b,001,37,Female,USA,BA,2024-03-06_14h29.13.597,CRL1h,2023.2.3,MacIntel,29.98680581,65e67470ae2fbf2172c317b2,65e87d71a1e7fd4eddb309d4,,,,,,,,,,,403.8314,1,404.8337,404.8337,405.7483,left,1,0.9104,,405.7484,406.7487,7,7,119,11,1,total,1,images/Ex12.jpg,left,training,hard,3,,,,,
,,,,,58b20a24c352cc0001ed554b,001,37,Female,USA,BA,2024-03-06_14h29.13.597,CRL1h,2023.2.3,MacIntel,29.98680581,65e67470ae2fbf2172c317b2,65e87d71a1e7fd4eddb309d4,,,,,,,,,,,406.7491,1.3,408.0503,408.0503,408.6191,right,1,0.5636,,408.6192,409.6176,7,8,120,15,1,total,1,images/Ex16.jpg,right,training,hard,3,,,,,
,,,,,58b20a24c352cc0001ed554b,001,37,Female,USA,BA,2024-03-06_14h29.13.597,CRL1h,2023.2.3,MacIntel,29.98680581,65e67470ae2fbf2172c317b2,65e87d71a1e7fd4eddb309d4,,,,,,,,,,,409.6191,0.7,410.3199,410.3199,411.1853,left,0,0.8629,,411.1853,412.1882,7,9,121,12,1,total,1,images/Ex13.jpg,right,training,hard,3,,,,,
,,,,,58b20a24c352cc0001ed554b,001,37,Female,USA,BA,2024-03-06_14h29.13.597,CRL1h,2023.2.3,MacIntel,29.98680581,65e67470ae2fbf2172c317b2,65e87d71a1e7fd4eddb309d4,,,,,,,,,,,412.1891,0.9,413.0876,413.0877,414.0099,left,1,0.9206,,414.0099,415.0039,7,10,122,2,1,total,1,images/Ex11.jpg,left,training,hard,3,,,,,
,,,,,58b20a24c352cc0001ed554b,001,37,Female,USA,BA,2024-03-06_14h29.13.597,CRL1h,2023.2.3,MacIntel,29.98680581,65e67470ae2fbf2172c317b2,65e87d71a1e7fd4eddb309d4,,,,,,,,,,,415.0052,1.3,416.3061,416.3063,417.3901,left,0,1.077,,417.3901,418.3881,7,11,123,6,1,total,1,images/Ex15.jpg,right,training,hard,3,,,,,
,,,,,58b20a24c352cc0001ed554b,001,37,Female,USA,BA,2024-03-06_14h29.13.597,CRL1h,2023.2.3,MacIntel,29.98680581,65e67470ae2fbf2172c317b2,65e87d71a1e7fd4eddb309d4,,,,,,,,,,,418.3885,1.3,419.6907,419.6908,420.7054,left,1,1.0103,,420.7055,421.7074,7,12,124,1,1,total,1,images/Ex10.jpg,left,training,hard,3,,,,,
,,,,,58b20a24c352cc0001ed554b,001,37,Female,USA,BA,2024-03-06_14h29.13.597,CRL1h,2023.2.3,MacIntel,29.98680581,65e67470ae2fbf2172c317b2,65e87d71a1e7fd4eddb309d4,,,,,,,,,,,421.7087,1.3,423.01,423.01,424.3575,left,1,1.3435,,424.3575,425.3602,7,13,125,3,1,total,1,images/Ex12.jpg,left,training,hard,3,,,,,
,,,,,58b20a24c352cc0001ed554b,001,37,Female,USA,BA,2024-03-06_14h29.13.597,CRL1h,2023.2.3,MacIntel,29.98680581,65e67470ae2fbf2172c317b2,65e87d71a1e7fd4eddb309d4,,,,,,,,,,,425.3609,1.4,426.7583,426.7584,427.5103,right,1,0.7469,,427.5104,428.5119,7,14,126,7,1,total,1,images/Ex16.jpg,right,training,hard,3,,,,,
,,,,,58b20a24c352cc0001ed554b,001,37,Female,USA,BA,2024-03-06_14h29.13.597,CRL1h,2023.2.3,MacIntel,29.98680581,65e67470ae2fbf2172c317b2,65e87d71a1e7fd4eddb309d4,,,,,,,,,,,428.5125,1.2,429.7091,429.7092,430.7459,right,0,1.0348,,430.7459,431.7453,7,15,127,8,1,total,1,images/Ex9.jpg,left,training,hard,3,,,,,
,,,,,58b20a24c352cc0001ed554b,001,37,Female,USA,BA,2024-03-06_14h29.13.597,CRL1h,2023.2.3,MacIntel,29.98680581,65e67470ae2fbf2172c317b2,65e87d71a1e7fd4eddb309d4,,,,,,,,,,,431.7522,0.6,432.3435,432.3436,432.8948,right,0,0.5479,,432.8948,433.8946,0,0,0,7,1,total,2,images/Ex16.jpg,left,reversed,hard,3,,,,,
,,,,,58b20a24c352cc0001ed554b,001,37,Female,USA,BA,2024-03-06_14h29.13.597,CRL1h,2023.2.3,MacIntel,29.98680581,65e67470ae2fbf2172c317b2,65e87d71a1e7fd4eddb309d4,,,,,,,,,,,433.8951,1.4,435.299,435.299,436.1473,left,0,0.8426,,436.1473,437.146,0,1,1,3,1,total,2,images/Ex12.jpg,right,reversed,hard,3,,,,,
,,,,,58b20a24c352cc0001ed554b,001,37,Female,USA,BA,2024-03-06_14h29.13.597,CRL1h,2023.2.3,MacIntel,29.98680581,65e67470ae2fbf2172c317b2,65e87d71a1e7fd4eddb309d4,,,,,,,,,,,437.1465,0.5,437.6499,437.65,438.2967,right,0,0.6446,,438.2968,439.2988,0,2,2,13,1,total,2,images/Ex14.jpg,left,reversed,hard,3,,,,,
,,,,,58b20a24c352cc0001ed554b,001,37,Female,USA,BA,2024-03-06_14h29.13.597,CRL1h,2023.2.3,MacIntel,29.98680581,65e67470ae2fbf2172c317b2,65e87d71a1e7fd4eddb309d4,,,,,,,,,,,439.3,1,440.2974,440.2974,441.3185,left,1,1.0153,,441.3186,442.3183,0,3,3,15,1,total,2,images/Ex16.jpg,left,reversed,hard,3,,,,,
,,,,,58b20a24c352cc0001ed554b,001,37,Female,USA,BA,2024-03-06_14h29.13.597,CRL1h,2023.2.3,MacIntel,29.98680581,65e67470ae2fbf2172c317b2,65e87d71a1e7fd4eddb309d4,,,,,,,,,,,442.3192,0.8,443.1188,443.1188,444.4193,right,1,1.2962,,444.4194,445.4182,0,4,4,2,1,total,2,images/Ex11.jpg,right,reversed,hard,3,,,,,
,,,,,58b20a24c352cc0001ed554b,001,37,Female,USA,BA,2024-03-06_14h29.13.597,CRL1h,2023.2.3,MacIntel,29.98680581,65e67470ae2fbf2172c317b2,65e87d71a1e7fd4eddb309d4,,,,,,,,,,,445.4186,0.6,446.0206,446.0206,446.9717,left,0,0.9449,,446.9721,447.9704,0,5,5,1,1,total,2,images/Ex10.jpg,right,reversed,hard,3,,,,,
,,,,,58b20a24c352cc0001ed554b,001,37,Female,USA,BA,2024-03-06_14h29.13.597,CRL1h,2023.2.3,MacIntel,29.98680581,65e67470ae2fbf2172c317b2,65e87d71a1e7fd4eddb309d4,,,,,,,,,,,447.9711,0.8,448.771,448.771,449.4039,right,0,0.6304,,449.4039,450.4025,0,6,6,5,1,total,2,images/Ex14.jpg,left,reversed,hard,3,,,,,
,,,,,58b20a24c352cc0001ed554b,001,37,Female,USA,BA,2024-03-06_14h29.13.597,CRL1h,2023.2.3,MacIntel,29.98680581,65e67470ae2fbf2172c317b2,65e87d71a1e7fd4eddb309d4,,,,,,,,,,,450.4029,1.1,451.5064,451.5065,452.4068,left,1,0.8955,,452.4069,453.4035,0,7,7,4,1,total,2,images/Ex13.jpg,left,reversed,hard,3,,,,,
,,,,,58b20a24c352cc0001ed554b,001,37,Female,USA,BA,2024-03-06_14h29.13.597,CRL1h,2023.2.3,MacIntel,29.98680581,65e67470ae2fbf2172c317b2,65e87d71a1e7fd4eddb309d4,,,,,,,,,,,453.404,1.1,454.507,454.5071,455.223,left,0,0.7109,,455.2232,456.2247,0,8,8,8,1,total,2,images/Ex9.jpg,right,reversed,hard,3,,,,,
,,,,,58b20a24c352cc0001ed554b,001,37,Female,USA,BA,2024-03-06_14h29.13.597,CRL1h,2023.2.3,MacIntel,29.98680581,65e67470ae2fbf2172c317b2,65e87d71a1e7fd4eddb309d4,,,,,,,,,,,456.2251,1.3,457.5255,457.5256,458.3408,left,0,0.8122,,458.3409,459.3427,0,9,9,11,1,total,2,images/Ex12.jpg,right,reversed,hard,3,,,,,
,,,,,58b20a24c352cc0001ed554b,001,37,Female,USA,BA,2024-03-06_14h29.13.597,CRL1h,2023.2.3,MacIntel,29.98680581,65e67470ae2fbf2172c317b2,65e87d71a1e7fd4eddb309d4,,,,,,,,,,,459.3433,1.2,460.5438,460.5439,461.1426,right,1,0.5947,,461.1427,462.1436,0,10,10,0,1,total,2,images/Ex9.jpg,right,reversed,hard,3,,,,,
,,,,,58b20a24c352cc0001ed554b,001,37,Female,USA,BA,2024-03-06_14h29.13.597,CRL1h,2023.2.3,MacIntel,29.98680581,65e67470ae2fbf2172c317b2,65e87d71a1e7fd4eddb309d4,,,,,,,,,,,462.1441,0.6,462.745,462.745,463.593,right,0,0.8455,,463.5931,464.5956,0,11,11,6,1,total,2,images/Ex15.jpg,left,reversed,hard,3,,,,,
,,,,,58b20a24c352cc0001ed554b,001,37,Female,USA,BA,2024-03-06_14h29.13.597,CRL1h,2023.2.3,MacIntel,29.98680581,65e67470ae2fbf2172c317b2,65e87d71a1e7fd4eddb309d4,,,,,,,,,,,464.5963,0.6,465.1936,465.1936,465.6638,left,1,0.4625,,465.6639,466.6633,0,12,12,14,1,total,2,images/Ex15.jpg,left,reversed,hard,3,,,,,
,,,,,58b20a24c352cc0001ed554b,001,37,Female,USA,BA,2024-03-06_14h29.13.597,CRL1h,2023.2.3,MacIntel,29.98680581,65e67470ae2fbf2172c317b2,65e87d71a1e7fd4eddb309d4,,,,,,,,,,,466.664,0.5,467.1617,467.1617,467.8792,left,0,0.7125,,467.8793,468.8803,0,13,13,10,1,total,2,images/Ex11.jpg,right,reversed,hard,3,,,,,
,,,,,58b20a24c352cc0001ed554b,001,37,Female,USA,BA,2024-03-06_14h29.13.597,CRL1h,2023.2.3,MacIntel,29.98680581,65e67470ae2fbf2172c317b2,65e87d71a1e7fd4eddb309d4,,,,,,,,,,,468.8809,0.8,469.6814,469.6815,470.5654,right,0,0.8768,,470.5654,471.5637,0,14,14,12,1,total,2,images/Ex13.jpg,left,reversed,hard,3,,,,,
,,,,,58b20a24c352cc0001ed554b,001,37,Female,USA,BA,2024-03-06_14h29.13.597,CRL1h,2023.2.3,MacIntel,29.98680581,65e67470ae2fbf2172c317b2,65e87d71a1e7fd4eddb309d4,,,,,,,,,,,471.5643,0.6,472.1652,472.1653,472.9968,left,0,0.8249,,472.997,474.0005,0,15,15,9,1,total,2,images/Ex10.jpg,right,reversed,hard,3,,,,,
,,,,,58b20a24c352cc0001ed554b,001,37,Female,USA,BA,2024-03-06_14h29.13.597,CRL1h,2023.2.3,MacIntel,29.98680581,65e67470ae2fbf2172c317b2,65e87d71a1e7fd4eddb309d4,,,,,,,,,,,474.0011,1.3,475.3002,475.3002,476.0852,left,0,0.7795,,476.0852,477.0838,1,0,16,11,1,total,2,images/Ex12.jpg,right,reversed,hard,3,,,,,
,,,,,58b20a24c352cc0001ed554b,001,37,Female,USA,BA,2024-03-06_14h29.13.597,CRL1h,2023.2.3,MacIntel,29.98680581,65e67470ae2fbf2172c317b2,65e87d71a1e7fd4eddb309d4,,,,,,,,,,,477.0844,1.4,478.4856,478.4857,479.7836,left,0,1.2955,,479.7837,480.7864,1,1,17,10,1,total,2,images/Ex11.jpg,right,reversed,hard,3,,,,,
,,,,,58b20a24c352cc0001ed554b,001,37,Female,USA,BA,2024-03-06_14h29.13.597,CRL1h,2023.2.3,MacIntel,29.98680581,65e67470ae2fbf2172c317b2,65e87d71a1e7fd4eddb309d4,,,,,,,,,,,480.787,1,481.7866,481.7867,482.6217,right,1,0.828,,482.6218,483.6192,1,2,18,3,1,total,2,images/Ex12.jpg,right,reversed,hard,3,,,,,
,,,,,58b20a24c352cc0001ed554b,001,37,Female,USA,BA,2024-03-06_14h29.13.597,CRL1h,2023.2.3,MacIntel,29.98680581,65e67470ae2fbf2172c317b2,65e87d71a1e7fd4eddb309d4,,,,,,,,,,,483.6198,0.9,484.522,484.5221,485.3732,left,0,0.8464,,485.3733,486.374,1,3,19,1,1,total,2,images/Ex10.jpg,right,reversed,hard,3,,,,,
,,,,,58b20a24c352cc0001ed554b,001,37,Female,USA,BA,2024-03-06_14h29.13.597,CRL1h,2023.2.3,MacIntel,29.98680581,65e67470ae2fbf2172c317b2,65e87d71a1e7fd4eddb309d4,,,,,,,,,,,486.375,1.5,487.8707,487.8707,488.5072,right,0,0.6312,,488.5072,489.5061,1,4,20,15,1,total,2,images/Ex16.jpg,left,reversed,hard,3,,,,,
,,,,,58b20a24c352cc0001ed554b,001,37,Female,USA,BA,2024-03-06_14h29.13.597,CRL1h,2023.2.3,MacIntel,29.98680581,65e67470ae2fbf2172c317b2,65e87d71a1e7fd4eddb309d4,,,,,,,,,,,489.5065,1.4,490.9055,490.9056,491.7904,left,1,0.8812,,491.7905,492.7905,1,5,21,13,1,total,2,images/Ex14.jpg,left,reversed,hard,3,,,,,
,,,,,58b20a24c352cc0001ed554b,001,37,Female,USA,BA,2024-03-06_14h29.13.597,CRL1h,2023.2.3,MacIntel,29.98680581,65e67470ae2fbf2172c317b2,65e87d71a1e7fd4eddb309d4,,,,,,,,,,,492.7911,0.7,493.4931,493.4932,494.2738,right,0,0.7779,,494.2738,495.2751,1,6,22,6,1,total,2,images/Ex15.jpg,left,reversed,hard,3,,,,,
,,,,,58b20a24c352cc0001ed554b,001,37,Female,USA,BA,2024-03-06_14h29.13.597,CRL1h,2023.2.3,MacIntel,29.98680581,65e67470ae2fbf2172c317b2,65e87d71a1e7fd4eddb309d4,,,,,,,,,,,495.2755,1.5,496.7748,496.7748,497.559,left,0,0.7808,,497.559,498.5583,1,7,23,2,1,total,2,images/Ex11.jpg,right,reversed,hard,3,,,,,
,,,,,58b20a24c352cc0001ed554b,001,37,Female,USA,BA,2024-03-06_14h29.13.597,CRL1h,2023.2.3,MacIntel,29.98680581,65e67470ae2fbf2172c317b2,65e87d71a1e7fd4eddb309d4,,,,,,,,,,,498.5588,0.8,499.3615,499.3615,500.2126,left,0,0.8437,,500.2127,501.2097,1,8,24,8,1,total,2,images/Ex9.jpg,right,reversed,hard,3,,,,,
,,,,,58b20a24c352cc0001ed554b,001,37,Female,USA,BA,2024-03-06_14h29.13.597,CRL1h,2023.2.3,MacIntel,29.98680581,65e67470ae2fbf2172c317b2,65e87d71a1e7fd4eddb309d4,,,,,,,,,,,501.2101,1.4,502.6125,502.6126,503.4317,right,0,0.8115,,503.4318,504.4294,1,9,25,12,1,total,2,images/Ex13.jpg,left,reversed,hard,3,,,,,
,,,,,58b20a24c352cc0001ed554b,001,37,Female,USA,BA,2024-03-06_14h29.13.597,CRL1h,2023.2.3,MacIntel,29.98680581,65e67470ae2fbf2172c317b2,65e87d71a1e7fd4eddb309d4,,,,,,,,,,,504.43,0.7,505.1318,505.1319,506.0467,left,1,0.9098,,506.0467,507.0475,1,10,26,4,1,total,2,images/Ex13.jpg,left,reversed,hard,3,,,,,
,,,,,58b20a24c352cc0001ed554b,001,37,Female,USA,BA,2024-03-06_14h29.13.597,CRL1h,2023.2.3,MacIntel,29.98680581,65e67470ae2fbf2172c317b2,65e87d71a1e7fd4eddb309d4,,,,,,,,,,,507.0481,0.9,507.9475,507.9475,508.8354,left,1,0.8807,,508.8355,509.8313,1,11,27,5,1,total,2,images/Ex14.jpg,left,reversed,hard,3,,,,,
,,,,,58b20a24c352cc0001ed554b,001,37,Female,USA,BA,2024-03-06_14h29.13.597,CRL1h,2023.2.3,MacIntel,29.98680581,65e67470ae2fbf2172c317b2,65e87d71a1e7fd4eddb309d4,,,,,,,,,,,509.8317,0.5,510.3339,510.3339,511.2668,right,1,0.9271,,511.2668,512.2664,1,12,28,0,1,total,2,images/Ex9.jpg,right,reversed,hard,3,,,,,
,,,,,58b20a24c352cc0001ed554b,001,37,Female,USA,BA,2024-03-06_14h29.13.597,CRL1h,2023.2.3,MacIntel,29.98680581,65e67470ae2fbf2172c317b2,65e87d71a1e7fd4eddb309d4,,,,,,,,,,,512.2669,1.1,513.3665,513.3666,514.2178,right,0,0.8475,,514.2178,515.217,1,13,29,14,1,total,2,images/Ex15.jpg,left,reversed,hard,3,,,,,
,,,,,58b20a24c352cc0001ed554b,001,37,Female,USA,BA,2024-03-06_14h29.13.597,CRL1h,2023.2.3,MacIntel,29.98680581,65e67470ae2fbf2172c317b2,65e87d71a1e7fd4eddb309d4,,,,,,,,,,,515.2175,1.5,516.7188,516.7188,517.4692,left,0,0.7423,,517.4692,518.4716,1,14,30,9,1,total,2,images/Ex10.jpg,right,reversed,hard,3,,,,,
,,,,,58b20a24c352cc0001ed554b,001,37,Female,USA,BA,2024-03-06_14h29.13.597,CRL1h,2023.2.3,MacIntel,29.98680581,65e67470ae2fbf2172c317b2,65e87d71a1e7fd4eddb309d4,,,,,,,,,,,518.472,1.5,519.9696,519.9697,521.0379,left,1,1.0633,,521.038,522.039,1,15,31,7,1,total,2,images/Ex16.jpg,left,reversed,hard,3,,,,,
,,,,,58b20a24c352cc0001ed554b,001,37,Female,USA,BA,2024-03-06_14h29.13.597,CRL1h,2023.2.3,MacIntel,29.98680581,65e67470ae2fbf2172c317b2,65e87d71a1e7fd4eddb309d4,,,,,,,,,,,522.0397,0.6,522.6403,522.6403,523.6048,right,0,0.9556,,523.6049,524.6075,2,0,32,4,1,total,2,images/Ex13.jpg,left,reversed,hard,3,,,,,
,,,,,58b20a24c352cc0001ed554b,001,37,Female,USA,BA,2024-03-06_14h29.13.597,CRL1h,2023.2.3,MacIntel,29.98680581,65e67470ae2fbf2172c317b2,65e87d71a1e7fd4eddb309d4,,,,,,,,,,,524.6079,0.7,525.3061,525.3062,526.1231,right,1,0.8123,,526.1232,527.1243,2,1,33,2,1,total,2,images/Ex11.jpg,right,reversed,hard,3,,,,,
,,,,,58b20a24c352cc0001ed554b,001,37,Female,USA,BA,2024-03-06_14h29.13.597,CRL1h,2023.2.3,MacIntel,29.98680581,65e67470ae2fbf2172c317b2,65e87d71a1e7fd4eddb309d4,,,,,,,,,,,527.1249,1.4,528.5261,528.5261,529.4096,left,1,0.8774,,529.4097,530.4086,2,2,34,7,1,total,2,images/Ex16.jpg,left,reversed,hard,3,,,,,
,,,,,58b20a24c352cc0001ed554b,001,37,Female,USA,BA,2024-03-06_14h29.13.597,CRL1h,2023.2.3,MacIntel,29.98680581,65e67470ae2fbf2172c317b2,65e87d71a1e7fd4eddb309d4,,,,,,,,,,,530.4098,1.4,531.8073,531.8074,532.9448,left,1,1.1329,,532.9449,533.9448,2,3,35,14,1,total,2,images/Ex15.jpg,left,reversed,hard,3,,,,,
,,,,,58b20a24c352cc0001ed554b,001,37,Female,USA,BA,2024-03-06_14h29.13.597,CRL1h,2023.2.3,MacIntel,29.98680581,65e67470ae2fbf2172c317b2,65e87d71a1e7fd4eddb309d4,,,,,,,,,,,533.9457,0.9,534.8435,534.8435,535.7462,right,0,0.8988,,535.7463,536.7441,2,4,36,13,1,total,2,images/Ex14.jpg,left,reversed,hard,3,,,,,
,,,,,58b20a24c352cc0001ed554b,001,37,Female,USA,BA,2024-03-06_14h29.13.597,CRL1h,2023.2.3,MacIntel,29.98680581,65e67470ae2fbf2172c317b2,65e87d71a1e7fd4eddb309d4,,,,,,,,,,,536.7446,0.9,537.6433,537.6434,538.4301,left,1,0.777,,538.4301,539.4278,2,5,37,15,1,total,2,images/Ex16.jpg,left,reversed,hard,3,,,,,
,,,,,58b20a24c352cc0001ed554b,001,37,Female,USA,BA,2024-03-06_14h29.13.597,CRL1h,2023.2.3,MacIntel,29.98680581,65e67470ae2fbf2172c317b2,65e87d71a1e7fd4eddb309d4,,,,,,,,,,,539.4283,1.2,540.6294,540.6295,541.6468,left,1,1.0076,,541.6469,542.6464,2,6,38,5,1,total,2,images/Ex14.jpg,left,reversed,hard,3,,,,,
,,,,,58b20a24c352cc0001ed554b,001,37,Female,USA,BA,2024-03-06_14h29.13.597,CRL1h,2023.2.3,MacIntel,29.98680581,65e67470ae2fbf2172c317b2,65e87d71a1e7fd4eddb309d4,,,,,,,,,,,542.6468,0.9,543.5468,543.5469,544.4305,right,1,0.8809,,544.4306,545.4313,2,7,39,11,1,total,2,images/Ex12.jpg,right,reversed,hard,3,,,,,
,,,,,58b20a24c352cc0001ed554b,001,37,Female,USA,BA,2024-03-06_14h29.13.597,CRL1h,2023.2.3,MacIntel,29.98680581,65e67470ae2fbf2172c317b2,65e87d71a1e7fd4eddb309d4,,,,,,,,,,,545.4317,0.8,546.231,546.231,546.9159,left,0,0.6813,,546.9161,547.9152,2,8,40,9,1,total,2,images/Ex10.jpg,right,reversed,hard,3,,,,,
,,,,,58b20a24c352cc0001ed554b,001,37,Female,USA,BA,2024-03-06_14h29.13.597,CRL1h,2023.2.3,MacIntel,29.98680581,65e67470ae2fbf2172c317b2,65e87d71a1e7fd4eddb309d4,,,,,,,,,,,547.9157,1.2,549.1167,549.1167,549.5838,right,1,0.463,,549.5839,550.5847,2,9,41,8,1,total,2,images/Ex9.jpg,right,reversed,hard,3,,,,,
,,,,,58b20a24c352cc0001ed554b,001,37,Female,USA,BA,2024-03-06_14h29.13.597,CRL1h,2023.2.3,MacIntel,29.98680581,65e67470ae2fbf2172c317b2,65e87d71a1e7fd4eddb309d4,,,,,,,,,,,550.5851,1.1,551.6862,551.6862,552.3367,left,1,0.6444,,552.3367,553.336,2,10,42,12,1,total,2,images/Ex13.jpg,left,reversed,hard,3,,,,,
,,,,,58b20a24c352cc0001ed554b,001,37,Female,USA,BA,2024-03-06_14h29.13.597,CRL1h,2023.2.3,MacIntel,29.98680581,65e67470ae2fbf2172c317b2,65e87d71a1e7fd4eddb309d4,,,,,,,,,,,553.3366,1.2,554.5365,554.5366,554.9695,left,0,0.4319,,554.9696,555.9721,2,11,43,1,1,total,2,images/Ex10.jpg,right,reversed,hard,3,,,,,
,,,,,58b20a24c352cc0001ed554b,001,37,Female,USA,BA,2024-03-06_14h29.13.597,CRL1h,2023.2.3,MacIntel,29.98680581,65e67470ae2fbf2172c317b2,65e87d71a1e7fd4eddb309d4,,,,,,,,,,,555.9726,0.9,556.8718,556.8719,557.7209,left,0,0.8436,,557.7212,558.7202,2,12,44,3,1,total,2,images/Ex12.jpg,right,reversed,hard,3,,,,,
,,,,,58b20a24c352cc0001ed554b,001,37,Female,USA,BA,2024-03-06_14h29.13.597,CRL1h,2023.2.3,MacIntel,29.98680581,65e67470ae2fbf2172c317b2,65e87d71a1e7fd4eddb309d4,,,,,,,,,,,558.7205,0.8,559.5231,559.5231,560.4545,left,0,0.928,,560.4545,561.456,2,13,45,10,1,total,2,images/Ex11.jpg,right,reversed,hard,3,,,,,
,,,,,58b20a24c352cc0001ed554b,001,37,Female,USA,BA,2024-03-06_14h29.13.597,CRL1h,2023.2.3,MacIntel,29.98680581,65e67470ae2fbf2172c317b2,65e87d71a1e7fd4eddb309d4,,,,,,,,,,,561.4564,0.6,562.0552,562.0553,562.8232,left,1,0.7653,,562.8233,563.8241,2,14,46,6,1,total,2,images/Ex15.jpg,left,reversed,hard,3,,,,,
,,,,,58b20a24c352cc0001ed554b,001,37,Female,USA,BA,2024-03-06_14h29.13.597,CRL1h,2023.2.3,MacIntel,29.98680581,65e67470ae2fbf2172c317b2,65e87d71a1e7fd4eddb309d4,,,,,,,,,,,563.8248,1.5,565.3245,565.3246,565.9902,right,1,0.6637,,565.9903,566.9916,2,15,47,0,1,total,2,images/Ex9.jpg,right,reversed,hard,3,,,,,
,,,,,58b20a24c352cc0001ed554b,001,37,Female,USA,BA,2024-03-06_14h29.13.597,CRL1h,2023.2.3,MacIntel,29.98680581,65e67470ae2fbf2172c317b2,65e87d71a1e7fd4eddb309d4,,,,,,,,,,,566.9921,1,567.9943,567.9943,568.6094,left,0,0.6052,,568.6095,569.6102,3,0,48,0,1,total,2,images/Ex9.jpg,right,reversed,hard,3,,,,,
,,,,,58b20a24c352cc0001ed554b,001,37,Female,USA,BA,2024-03-06_14h29.13.597,CRL1h,2023.2.3,MacIntel,29.98680581,65e67470ae2fbf2172c317b2,65e87d71a1e7fd4eddb309d4,,,,,,,,,,,569.6108,1.1,570.7107,570.7107,571.2936,right,0,0.5792,,571.2936,572.2944,3,1,49,15,1,total,2,images/Ex16.jpg,left,reversed,hard,3,,,,,
,,,,,58b20a24c352cc0001ed554b,001,37,Female,USA,BA,2024-03-06_14h29.13.597,CRL1h,2023.2.3,MacIntel,29.98680581,65e67470ae2fbf2172c317b2,65e87d71a1e7fd4eddb309d4,,,,,,,,,,,572.2952,0.6,572.8945,572.8946,573.7941,left,0,0.8944,,573.7942,574.7953,3,2,50,8,1,total,2,images/Ex9.jpg,right,reversed,hard,3,,,,,
,,,,,58b20a24c352cc0001ed554b,001,37,Female,USA,BA,2024-03-06_14h29.13.597,CRL1h,2023.2.3,MacIntel,29.98680581,65e67470ae2fbf2172c317b2,65e87d71a1e7fd4eddb309d4,,,,,,,,,,,574.7957,1.1,575.8947,575.8947,576.6621,left,1,0.7602,,576.6621,577.6624,3,3,51,4,1,total,2,images/Ex13.jpg,left,reversed,hard,3,,,,,
,,,,,58b20a24c352cc0001ed554b,001,37,Female,USA,BA,2024-03-06_14h29.13.597,CRL1h,2023.2.3,MacIntel,29.98680581,65e67470ae2fbf2172c317b2,65e87d71a1e7fd4eddb309d4,,,,,,,,,,,577.6628,1.3,578.9632,578.9633,579.864,left,1,0.8963,,579.864,580.8646,3,4,52,5,1,total,2,images/Ex14.jpg,left,reversed,hard,3,,,,,
,,,,,58b20a24c352cc0001ed554b,001,37,Female,USA,BA,2024-03-06_14h29.13.597,CRL1h,2023.2.3,MacIntel,29.98680581,65e67470ae2fbf2172c317b2,65e87d71a1e7fd4eddb309d4,,,,,,,,,,,580.8651,0.5,581.3654,581.3654,582.2516,left,1,0.8796,,582.2516,583.2499,3,5,53,13,1,total,2,images/Ex14.jpg,left,reversed,hard,3,,,,,
,,,,,58b20a24c352cc0001ed554b,001,37,Female,USA,BA,2024-03-06_14h29.13.597,CRL1h,2023.2.3,MacIntel,29.98680581,65e67470ae2fbf2172c317b2,65e87d71a1e7fd4eddb309d4,,,,,,,,,,,583.2503,1.3,584.55,584.55,585.3015,left,0,0.7421,,585.3016,586.3011,3,6,54,11,1,total,2,images/Ex12.jpg,right,reversed,hard,3,,,,,
,,,,,58b20a24c352cc0001ed554b,001,37,Female,USA,BA,2024-03-06_14h29.13.597,CRL1h,2023.2.3,MacIntel,29.98680581,65e67470ae2fbf2172c317b2,65e87d71a1e7fd4eddb309d4,,,,,,,,,,,586.3015,1.4,587.702,587.702,588.3718,left,1,0.6688,,588.3718,589.3679,3,7,55,7,1,total,2,images/Ex16.jpg,left,reversed,hard,3,,,,,
,,,,,58b20a24c352cc0001ed554b,001,37,Female,USA,BA,2024-03-06_14h29.13.597,CRL1h,2023.2.3,MacIntel,29.98680581,65e67470ae2fbf2172c317b2,65e87d71a1e7fd4eddb309d4,,,,,,,,,,,589.3684,0.6,589.9717,589.9717,590.8726,left,1,0.8964,,590.8726,591.8702,3,8,56,6,1,total,2,images/Ex15.jpg,left,reversed,hard,3,,,,,
,,,,,58b20a24c352cc0001ed554b,001,37,Female,USA,BA,2024-03-06_14h29.13.597,CRL1h,2023.2.3,MacIntel,29.98680581,65e67470ae2fbf2172c317b2,65e87d71a1e7fd4eddb309d4,,,,,,,,,,,591.8708,0.6,592.4697,592.4697,592.9563,left,1,0.4823,,592.9563,593.9555,3,9,57,14,1,total,2,images/Ex15.jpg,left,reversed,hard,3,,,,,
,,,,,58b20a24c352cc0001ed554b,001,37,Female,USA,BA,2024-03-06_14h29.13.597,CRL1h,2023.2.3,MacIntel,29.98680581,65e67470ae2fbf2172c317b2,65e87d71a1e7fd4eddb309d4,,,,,,,,,,,593.9568,1.2,595.1555,595.1556,595.8736,right,1,0.713,,595.8737,596.875,3,10,58,3,1,total,2,images/Ex12.jpg,right,reversed,hard,3,,,,,
,,,,,58b20a24c352cc0001ed554b,001,37,Female,USA,BA,2024-03-06_14h29.13.597,CRL1h,2023.2.3,MacIntel,29.98680581,65e67470ae2fbf2172c317b2,65e87d71a1e7fd4eddb309d4,,,,,,,,,,,596.8755,1.2,598.0744,598.0745,598.8922,left,0,0.8135,,598.8922,599.8936,3,11,59,9,1,total,2,images/Ex10.jpg,right,reversed,hard,3,,,,,
,,,,,58b20a24c352cc0001ed554b,001,37,Female,USA,BA,2024-03-06_14h29.13.597,CRL1h,2023.2.3,MacIntel,29.98680581,65e67470ae2fbf2172c317b2,65e87d71a1e7fd4eddb309d4,,,,,,,,,,,599.8945,1,600.8937,600.8938,601.7635,left,0,0.86,,601.7636,602.7608,3,12,60,2,1,total,2,images/Ex11.jpg,right,reversed,hard,3,,,,,
,,,,,58b20a24c352cc0001ed554b,001,37,Female,USA,BA,2024-03-06_14h29.13.597,CRL1h,2023.2.3,MacIntel,29.98680581,65e67470ae2fbf2172c317b2,65e87d71a1e7fd4eddb309d4,,,,,,,,,,,602.7612,0.5,603.2612,603.2612,603.7943,right,1,0.5226,,603.7943,604.7928,3,13,61,1,1,total,2,images/Ex10.jpg,right,reversed,hard,3,,,,,
,,,,,58b20a24c352cc0001ed554b,001,37,Female,USA,BA,2024-03-06_14h29.13.597,CRL1h,2023.2.3,MacIntel,29.98680581,65e67470ae2fbf2172c317b2,65e87d71a1e7fd4eddb309d4,,,,,,,,,,,604.7934,1.3,606.0927,606.0927,606.9464,right,0,0.8475,,606.9464,607.9479,3,14,62,12,1,total,2,images/Ex13.jpg,left,reversed,hard,3,,,,,
,,,,,58b20a24c352cc0001ed554b,001,37,Female,USA,BA,2024-03-06_14h29.13.597,CRL1h,2023.2.3,MacIntel,29.98680581,65e67470ae2fbf2172c317b2,65e87d71a1e7fd4eddb309d4,,,,,,,,,,,607.9489,0.7,608.6473,608.6474,609.5123,right,1,0.8609,,609.5123,610.5116,3,15,63,10,1,total,2,images/Ex11.jpg,right,reversed,hard,3,,,,,
,,,,,58b20a24c352cc0001ed554b,001,37,Female,USA,BA,2024-03-06_14h29.13.597,CRL1h,2023.2.3,MacIntel,29.98680581,65e67470ae2fbf2172c317b2,65e87d71a1e7fd4eddb309d4,,,,,,610.5139,804.9503,space,194.4226,,804.9714,0.8,805.7676,805.7677,806.9372,left,0,1.164,,806.9373,807.9391,0,0,0,7,1,partial,1,images/Ex8.jpg,right,training,hard,3,,,,,
,,,,,58b20a24c352cc0001ed554b,001,37,Female,USA,BA,2024-03-06_14h29.13.597,CRL1h,2023.2.3,MacIntel,29.98680581,65e67470ae2fbf2172c317b2,65e87d71a1e7fd4eddb309d4,,,,,,,,,,,807.94,1,808.9393,808.9394,809.6218,left,0,0.6762,,809.6219,810.6225,0,1,1,15,1,partial,1,images/Ex8.jpg,right,training,hard,3,,,,,
,,,,,58b20a24c352cc0001ed554b,001,37,Female,USA,BA,2024-03-06_14h29.13.597,CRL1h,2023.2.3,MacIntel,29.98680581,65e67470ae2fbf2172c317b2,65e87d71a1e7fd4eddb309d4,,,,,,,,,,,810.6229,0.6,811.2219,811.2219,812.0705,left,0,0.845,,812.0705,813.0724,0,2,2,5,1,partial,1,images/Ex6.jpg,right,training,hard,3,,,,,
,,,,,58b20a24c352cc0001ed554b,001,37,Female,USA,BA,2024-03-06_14h29.13.597,CRL1h,2023.2.3,MacIntel,29.98680581,65e67470ae2fbf2172c317b2,65e87d71a1e7fd4eddb309d4,,,,,,,,,,,813.0729,0.8,813.8749,813.8749,814.4907,right,1,0.6103,,814.4907,815.4897,0,3,3,4,1,partial,1,images/Ex5.jpg,right,training,hard,3,,,,,
,,,,,58b20a24c352cc0001ed554b,001,37,Female,USA,BA,2024-03-06_14h29.13.597,CRL1h,2023.2.3,MacIntel,29.98680581,65e67470ae2fbf2172c317b2,65e87d71a1e7fd4eddb309d4,,,,,,,,,,,815.4901,0.6,816.0899,816.09,816.7401,left,1,0.6447,,816.7401,817.7406,0,4,4,9,1,partial,1,images/Ex2.jpg,left,training,hard,3,,,,,
,,,,,58b20a24c352cc0001ed554b,001,37,Female,USA,BA,2024-03-06_14h29.13.597,CRL1h,2023.2.3,MacIntel,29.98680581,65e67470ae2fbf2172c317b2,65e87d71a1e7fd4eddb309d4,,,,,,,,,,,817.741,1.4,819.1403,819.1404,819.9109,right,1,0.765,,819.911,820.9091,0,5,5,6,1,partial,1,images/Ex7.jpg,right,training,hard,3,,,,,
,,,,,58b20a24c352cc0001ed554b,001,37,Female,USA,BA,2024-03-06_14h29.13.597,CRL1h,2023.2.3,MacIntel,29.98680581,65e67470ae2fbf2172c317b2,65e87d71a1e7fd4eddb309d4,,,,,,,,,,,820.9095,1.2,822.1092,822.1093,822.8591,left,0,0.747,,822.8591,823.8595,0,6,6,12,1,partial,1,images/Ex5.jpg,right,training,hard,3,,,,,
,,,,,58b20a24c352cc0001ed554b,001,37,Female,USA,BA,2024-03-06_14h29.13.597,CRL1h,2023.2.3,MacIntel,29.98680581,65e67470ae2fbf2172c317b2,65e87d71a1e7fd4eddb309d4,,,,,,,,,,,823.8599,1.2,825.0594,825.0595,825.7451,left,1,0.6835,,825.7452,826.745,0,7,7,11,1,partial,1,images/Ex4.jpg,left,training,hard,3,,,,,
,,,,,58b20a24c352cc0001ed554b,001,37,Female,USA,BA,2024-03-06_14h29.13.597,CRL1h,2023.2.3,MacIntel,29.98680581,65e67470ae2fbf2172c317b2,65e87d71a1e7fd4eddb309d4,,,,,,,,,,,826.7456,1,827.7457,827.7457,828.4304,left,1,0.6793,,828.4305,829.4296,0,8,8,3,1,partial,1,images/Ex4.jpg,left,training,hard,3,,,,,
,,,,,58b20a24c352cc0001ed554b,001,37,Female,USA,BA,2024-03-06_14h29.13.597,CRL1h,2023.2.3,MacIntel,29.98680581,65e67470ae2fbf2172c317b2,65e87d71a1e7fd4eddb309d4,,,,,,,,,,,829.4304,0.6,830.0297,830.0298,830.8962,right,1,0.8633,,830.8962,831.8978,0,9,9,14,1,partial,1,images/Ex7.jpg,right,training,hard,3,,,,,
,,,,,58b20a24c352cc0001ed554b,001,37,Female,USA,BA,2024-03-06_14h29.13.597,CRL1h,2023.2.3,MacIntel,29.98680581,65e67470ae2fbf2172c317b2,65e87d71a1e7fd4eddb309d4,,,,,,,,,,,831.8983,1.5,833.4013,833.4014,834.0644,left,1,0.6546,,834.0645,835.0662,0,10,10,10,1,partial,1,images/Ex3.jpg,left,training,hard,3,,,,,
,,,,,58b20a24c352cc0001ed554b,001,37,Female,USA,BA,2024-03-06_14h29.13.597,CRL1h,2023.2.3,MacIntel,29.98680581,65e67470ae2fbf2172c317b2,65e87d71a1e7fd4eddb309d4,,,,,,,,,,,835.0674,0.6,835.6655,835.6655,836.482,right,0,0.814,,836.482,837.4822,0,11,11,1,1,partial,1,images/Ex2.jpg,left,training,hard,3,,,,,
,,,,,58b20a24c352cc0001ed554b,001,37,Female,USA,BA,2024-03-06_14h29.13.597,CRL1h,2023.2.3,MacIntel,29.98680581,65e67470ae2fbf2172c317b2,65e87d71a1e7fd4eddb309d4,,,,,,,,,,,837.4826,1.4,838.883,838.8832,839.7367,right,0,0.8471,,839.7368,840.7348,0,12,12,0,1,partial,1,images/Ex1.jpg,left,training,hard,3,,,,,
,,,,,58b20a24c352cc0001ed554b,001,37,Female,USA,BA,2024-03-06_14h29.13.597,CRL1h,2023.2.3,MacIntel,29.98680581,65e67470ae2fbf2172c317b2,65e87d71a1e7fd4eddb309d4,,,,,,,,,,,840.7354,1.2,841.9357,841.9358,842.5349,left,1,0.5969,,842.535,843.5353,0,13,13,8,1,partial,1,images/Ex1.jpg,left,training,hard,3,,,,,
,,,,,58b20a24c352cc0001ed554b,001,37,Female,USA,BA,2024-03-06_14h29.13.597,CRL1h,2023.2.3,MacIntel,29.98680581,65e67470ae2fbf2172c317b2,65e87d71a1e7fd4eddb309d4,,,,,,,,,,,843.5357,0.9,844.4357,844.4357,845.1704,right,0,0.7311,,845.1705,846.1729,0,14,14,2,1,partial,1,images/Ex3.jpg,left,training,hard,3,,,,,
,,,,,58b20a24c352cc0001ed554b,001,37,Female,USA,BA,2024-03-06_14h29.13.597,CRL1h,2023.2.3,MacIntel,29.98680581,65e67470ae2fbf2172c317b2,65e87d71a1e7fd4eddb309d4,,,,,,,,,,,846.1734,1.1,847.2713,847.2715,848.1216,left,0,0.8458,,848.1217,849.1222,0,15,15,13,1,partial,1,images/Ex6.jpg,right,training,hard,3,,,,,
,,,,,58b20a24c352cc0001ed554b,001,37,Female,USA,BA,2024-03-06_14h29.13.597,CRL1h,2023.2.3,MacIntel,29.98680581,65e67470ae2fbf2172c317b2,65e87d71a1e7fd4eddb309d4,,,,,,,,,,,849.1226,0.8,849.9221,849.9221,850.5226,right,1,0.5983,,850.5228,851.5235,1,0,16,13,1,partial,1,images/Ex6.jpg,right,training,hard,3,,,,,
,,,,,58b20a24c352cc0001ed554b,001,37,Female,USA,BA,2024-03-06_14h29.13.597,CRL1h,2023.2.3,MacIntel,29.98680581,65e67470ae2fbf2172c317b2,65e87d71a1e7fd4eddb309d4,,,,,,,,,,,851.5242,0.9,852.4244,852.4244,853.0917,left,0,0.6618,,853.0918,854.0906,1,1,17,14,1,partial,1,images/Ex7.jpg,right,training,hard,3,,,,,
,,,,,58b20a24c352cc0001ed554b,001,37,Female,USA,BA,2024-03-06_14h29.13.597,CRL1h,2023.2.3,MacIntel,29.98680581,65e67470ae2fbf2172c317b2,65e87d71a1e7fd4eddb309d4,,,,,,,,,,,854.091,1.2,855.2951,855.2952,855.9923,right,1,0.6931,,855.9924,856.9924,1,2,18,15,1,partial,1,images/Ex8.jpg,right,training,hard,3,,,,,
,,,,,58b20a24c352cc0001ed554b,001,37,Female,USA,BA,2024-03-06_14h29.13.597,CRL1h,2023.2.3,MacIntel,29.98680581,65e67470ae2fbf2172c317b2,65e87d71a1e7fd4eddb309d4,,,,,,,,,,,856.9928,1,857.9935,857.9935,858.6296,right,1,0.6299,,858.6296,859.628,1,3,19,7,1,partial,1,images/Ex8.jpg,right,training,hard,3,,,,,
,,,,,58b20a24c352cc0001ed554b,001,37,Female,USA,BA,2024-03-06_14h29.13.597,CRL1h,2023.2.3,MacIntel,29.98680581,65e67470ae2fbf2172c317b2,65e87d71a1e7fd4eddb309d4,,,,,,,,,,,859.6289,1.3,860.9277,860.9278,861.911,left,1,0.9801,,861.911,862.914,1,4,20,8,1,partial,1,images/Ex1.jpg,left,training,hard,3,,,,,
,,,,,58b20a24c352cc0001ed554b,001,37,Female,USA,BA,2024-03-06_14h29.13.597,CRL1h,2023.2.3,MacIntel,29.98680581,65e67470ae2fbf2172c317b2,65e87d71a1e7fd4eddb309d4,,,,,,,,,,,862.9145,0.6,863.513,863.513,864.3302,right,1,0.8114,,864.3302,865.3308,1,5,21,4,1,partial,1,images/Ex5.jpg,right,training,hard,3,,,,,
,,,,,58b20a24c352cc0001ed554b,001,37,Female,USA,BA,2024-03-06_14h29.13.597,CRL1h,2023.2.3,MacIntel,29.98680581,65e67470ae2fbf2172c317b2,65e87d71a1e7fd4eddb309d4,,,,,,,,,,,865.3319,0.9,866.2307,866.2307,866.9805,left,1,0.7471,,866.9806,867.9815,1,6,22,11,1,partial,1,images/Ex4.jpg,left,training,hard,3,,,,,
,,,,,58b20a24c352cc0001ed554b,001,37,Female,USA,BA,2024-03-06_14h29.13.597,CRL1h,2023.2.3,MacIntel,29.98680581,65e67470ae2fbf2172c317b2,65e87d71a1e7fd4eddb309d4,,,,,,,,,,,867.9819,1.3,869.282,869.2821,869.7644,left,1,0.4813,,869.7645,870.7661,1,7,23,1,1,partial,1,images/Ex2.jpg,left,training,hard,3,,,,,
,,,,,58b20a24c352cc0001ed554b,001,37,Female,USA,BA,2024-03-06_14h29.13.597,CRL1h,2023.2.3,MacIntel,29.98680581,65e67470ae2fbf2172c317b2,65e87d71a1e7fd4eddb309d4,,,,,,,,,,,870.7672,1.3,872.0654,872.0655,872.9336,left,0,0.8632,,872.9336,873.933,1,8,24,12,1,partial,1,images/Ex5.jpg,right,training,hard,3,,,,,
,,,,,58b20a24c352cc0001ed554b,001,37,Female,USA,BA,2024-03-06_14h29.13.597,CRL1h,2023.2.3,MacIntel,29.98680581,65e67470ae2fbf2172c317b2,65e87d71a1e7fd4eddb309d4,,,,,,,,,,,873.9334,1.1,875.0336,875.0337,876.0187,left,1,0.9798,,876.0188,877.0211,1,9,25,3,1,partial,1,images/Ex4.jpg,left,training,hard,3,,,,,
,,,,,58b20a24c352cc0001ed554b,001,37,Female,USA,BA,2024-03-06_14h29.13.597,CRL1h,2023.2.3,MacIntel,29.98680581,65e67470ae2fbf2172c317b2,65e87d71a1e7fd4eddb309d4,,,,,,,,,,,877.0216,0.7,877.7222,877.7224,878.2696,left,1,0.542,,878.2696,879.2694,1,10,26,9,1,partial,1,images/Ex2.jpg,left,training,hard,3,,,,,
,,,,,58b20a24c352cc0001ed554b,001,37,Female,USA,BA,2024-03-06_14h29.13.597,CRL1h,2023.2.3,MacIntel,29.98680581,65e67470ae2fbf2172c317b2,65e87d71a1e7fd4eddb309d4,,,,,,,,,,,879.2699,0.9,880.1702,880.1702,880.9706,left,1,0.7969,,880.9706,881.9713,1,11,27,0,1,partial,1,images/Ex1.jpg,left,training,hard,3,,,,,
,,,,,58b20a24c352cc0001ed554b,001,37,Female,USA,BA,2024-03-06_14h29.13.597,CRL1h,2023.2.3,MacIntel,29.98680581,65e67470ae2fbf2172c317b2,65e87d71a1e7fd4eddb309d4,,,,,,,,,,,881.9718,0.6,882.5723,882.5725,883.4063,left,0,0.8305,,883.4065,884.4056,1,12,28,5,1,partial,1,images/Ex6.jpg,right,training,hard,3,,,,,
,,,,,58b20a24c352cc0001ed554b,001,37,Female,USA,BA,2024-03-06_14h29.13.597,CRL1h,2023.2.3,MacIntel,29.98680581,65e67470ae2fbf2172c317b2,65e87d71a1e7fd4eddb309d4,,,,,,,,,,,884.406,1.1,885.5053,885.5054,886.3224,left,1,0.814,,886.3224,887.3237,1,13,29,10,1,partial,1,images/Ex3.jpg,left,training,hard,3,,,,,
,,,,,58b20a24c352cc0001ed554b,001,37,Female,USA,BA,2024-03-06_14h29.13.597,CRL1h,2023.2.3,MacIntel,29.98680581,65e67470ae2fbf2172c317b2,65e87d71a1e7fd4eddb309d4,,,,,,,,,,,887.3242,1.2,888.5234,888.5235,889.107,left,1,0.5815,,889.107,890.1084,1,14,30,2,1,partial,1,images/Ex3.jpg,left,training,hard,3,,,,,
,,,,,58b20a24c352cc0001ed554b,001,37,Female,USA,BA,2024-03-06_14h29.13.597,CRL1h,2023.2.3,MacIntel,29.98680581,65e67470ae2fbf2172c317b2,65e87d71a1e7fd4eddb309d4,,,,,,,,,,,890.1088,1.3,891.4082,891.4082,892.1256,right,1,0.714,,892.1256,893.1253,1,15,31,6,1,partial,1,images/Ex7.jpg,right,training,hard,3,,,,,
,,,,,58b20a24c352cc0001ed554b,001,37,Female,USA,BA,2024-03-06_14h29.13.597,CRL1h,2023.2.3,MacIntel,29.98680581,65e67470ae2fbf2172c317b2,65e87d71a1e7fd4eddb309d4,,,,,,,,,,,893.1258,1.2,894.3192,894.3192,894.8597,right,1,0.5324,,894.8598,895.8631,2,0,32,14,1,partial,1,images/Ex7.jpg,right,training,hard,3,,,,,
,,,,,58b20a24c352cc0001ed554b,001,37,Female,USA,BA,2024-03-06_14h29.13.597,CRL1h,2023.2.3,MacIntel,29.98680581,65e67470ae2fbf2172c317b2,65e87d71a1e7fd4eddb309d4,,,,,,,,,,,895.8637,1.3,897.1644,897.1644,897.929,right,0,0.7619,,897.929,898.9291,2,1,33,3,1,partial,1,images/Ex4.jpg,left,training,hard,3,,,,,
,,,,,58b20a24c352cc0001ed554b,001,37,Female,USA,BA,2024-03-06_14h29.13.597,CRL1h,2023.2.3,MacIntel,29.98680581,65e67470ae2fbf2172c317b2,65e87d71a1e7fd4eddb309d4,,,,,,,,,,,898.9296,1.2,900.1295,900.1295,900.6644,left,1,0.5287,,900.6644,901.6635,2,2,34,1,1,partial,1,images/Ex2.jpg,left,training,hard,3,,,,,
,,,,,58b20a24c352cc0001ed554b,001,37,Female,USA,BA,2024-03-06_14h29.13.597,CRL1h,2023.2.3,MacIntel,29.98680581,65e67470ae2fbf2172c317b2,65e87d71a1e7fd4eddb309d4,,,,,,,,,,,901.664,0.9,902.5643,902.5643,903.3986,right,1,0.8292,,903.3987,904.3986,2,3,35,6,1,partial,1,images/Ex7.jpg,right,training,hard,3,,,,,
,,,,,58b20a24c352cc0001ed554b,001,37,Female,USA,BA,2024-03-06_14h29.13.597,CRL1h,2023.2.3,MacIntel,29.98680581,65e67470ae2fbf2172c317b2,65e87d71a1e7fd4eddb309d4,,,,,,,,,,,904.399,1.4,905.7998,905.7999,906.4999,left,0,0.694,,906.5001,907.4998,2,4,36,13,1,partial,1,images/Ex6.jpg,right,training,hard,3,,,,,
,,,,,58b20a24c352cc0001ed554b,001,37,Female,USA,BA,2024-03-06_14h29.13.597,CRL1h,2023.2.3,MacIntel,29.98680581,65e67470ae2fbf2172c317b2,65e87d71a1e7fd4eddb309d4,,,,,,,,,,,907.5002,1.3,908.8005,908.8006,909.5835,right,0,0.7797,,909.5836,910.5847,2,5,37,2,1,partial,1,images/Ex3.jpg,left,training,hard,3,,,,,
,,,,,58b20a24c352cc0001ed554b,001,37,Female,USA,BA,2024-03-06_14h29.13.597,CRL1h,2023.2.3,MacIntel,29.98680581,65e67470ae2fbf2172c317b2,65e87d71a1e7fd4eddb309d4,,,,,,,,,,,910.5852,1,911.5842,911.5842,912.2694,left,0,0.6799,,912.2694,913.2697,2,6,38,7,1,partial,1,images/Ex8.jpg,right,training,hard,3,,,,,
,,,,,58b20a24c352cc0001ed554b,001,37,Female,USA,BA,2024-03-06_14h29.13.597,CRL1h,2023.2.3,MacIntel,29.98680581,65e67470ae2fbf2172c317b2,65e87d71a1e7fd4eddb309d4,,,,,,,,,,,913.2701,1.5,914.7729,914.773,915.6232,right,0,0.8394,,915.6233,916.6201,2,7,39,11,1,partial,1,images/Ex4.jpg,left,training,hard,3,,,,,
,,,,,58b20a24c352cc0001ed554b,001,37,Female,USA,BA,2024-03-06_14h29.13.597,CRL1h,2023.2.3,MacIntel,29.98680581,65e67470ae2fbf2172c317b2,65e87d71a1e7fd4eddb309d4,,,,,,,,,,,916.6204,1.4,918.0217,918.0217,918.621,left,1,0.5983,,918.6211,919.6215,2,8,40,10,1,partial,1,images/Ex3.jpg,left,training,hard,3,,,,,
,,,,,58b20a24c352cc0001ed554b,001,37,Female,USA,BA,2024-03-06_14h29.13.597,CRL1h,2023.2.3,MacIntel,29.98680581,65e67470ae2fbf2172c317b2,65e87d71a1e7fd4eddb309d4,,,,,,,,,,,919.6218,1.3,920.9229,920.923,921.4921,left,1,0.5658,,921.4922,922.4906,2,9,41,9,1,partial,1,images/Ex2.jpg,left,training,hard,3,,,,,
,,,,,58b20a24c352cc0001ed554b,001,37,Female,USA,BA,2024-03-06_14h29.13.597,CRL1h,2023.2.3,MacIntel,29.98680581,65e67470ae2fbf2172c317b2,65e87d71a1e7fd4eddb309d4,,,,,,,,,,,922.4911,0.8,923.2904,923.2904,923.808,left,0,0.5089,,923.8081,924.8093,2,10,42,12,1,partial,1,images/Ex5.jpg,right,training,hard,3,,,,,
,,,,,58b20a24c352cc0001ed554b,001,37,Female,USA,BA,2024-03-06_14h29.13.597,CRL1h,2023.2.3,MacIntel,29.98680581,65e67470ae2fbf2172c317b2,65e87d71a1e7fd4eddb309d4,,,,,,,,,,,924.8103,1.5,926.3091,926.3092,926.9255,left,0,0.6075,,926.9255,927.9268,2,11,43,5,1,partial,1,images/Ex6.jpg,right,training,hard,3,,,,,
,,,,,58b20a24c352cc0001ed554b,001,37,Female,USA,BA,2024-03-06_14h29.13.597,CRL1h,2023.2.3,MacIntel,29.98680581,65e67470ae2fbf2172c317b2,65e87d71a1e7fd4eddb309d4,,,,,,,,,,,927.9272,0.8,928.7272,928.7273,929.4944,left,1,0.7653,,929.4945,930.4931,2,12,44,0,1,partial,1,images/Ex1.jpg,left,training,hard,3,,,,,
,,,,,58b20a24c352cc0001ed554b,001,37,Female,USA,BA,2024-03-06_14h29.13.597,CRL1h,2023.2.3,MacIntel,29.98680581,65e67470ae2fbf2172c317b2,65e87d71a1e7fd4eddb309d4,,,,,,,,,,,930.4935,1.5,931.9951,931.9952,932.6945,right,1,0.6917,,932.6945,933.6962,2,13,45,15,1,partial,1,images/Ex8.jpg,right,training,hard,3,,,,,
,,,,,58b20a24c352cc0001ed554b,001,37,Female,USA,BA,2024-03-06_14h29.13.597,CRL1h,2023.2.3,MacIntel,29.98680581,65e67470ae2fbf2172c317b2,65e87d71a1e7fd4eddb309d4,,,,,,,,,,,933.6966,1.5,935.1967,935.1971,936.0131,left,1,0.8141,,936.0131,937.013,2,14,46,8,1,partial,1,images/Ex1.jpg,left,training,hard,3,,,,,
,,,,,58b20a24c352cc0001ed554b,001,37,Female,USA,BA,2024-03-06_14h29.13.597,CRL1h,2023.2.3,MacIntel,29.98680581,65e67470ae2fbf2172c317b2,65e87d71a1e7fd4eddb309d4,,,,,,,,,,,937.0134,0.6,937.6152,937.6154,938.4485,right,1,0.8284,,938.4486,939.4486,2,15,47,4,1,partial,1,images/Ex5.jpg,right,training,hard,3,,,,,
,,,,,58b20a24c352cc0001ed554b,001,37,Female,USA,BA,2024-03-06_14h29.13.597,CRL1h,2023.2.3,MacIntel,29.98680581,65e67470ae2fbf2172c317b2,65e87d71a1e7fd4eddb309d4,,,,,,,,,,,939.4489,1.2,940.6482,940.6483,941.1998,right,1,0.5467,,941.1998,942.1998,3,0,48,4,1,partial,1,images/Ex5.jpg,right,training,hard,3,,,,,
,,,,,58b20a24c352cc0001ed554b,001,37,Female,USA,BA,2024-03-06_14h29.13.597,CRL1h,2023.2.3,MacIntel,29.98680581,65e67470ae2fbf2172c317b2,65e87d71a1e7fd4eddb309d4,,,,,,,,,,,942.2002,1.3,943.5014,943.5014,944.118,left,0,0.6125,,944.1181,945.117,3,1,49,13,1,partial,1,images/Ex6.jpg,right,training,hard,3,,,,,
,,,,,58b20a24c352cc0001ed554b,001,37,Female,USA,BA,2024-03-06_14h29.13.597,CRL1h,2023.2.3,MacIntel,29.98680581,65e67470ae2fbf2172c317b2,65e87d71a1e7fd4eddb309d4,,,,,,,,,,,945.1179,1.5,946.6185,946.6186,947.4187,right,0,0.7975,,947.4187,948.4195,3,2,50,11,1,partial,1,images/Ex4.jpg,left,training,hard,3,,,,,
,,,,,58b20a24c352cc0001ed554b,001,37,Female,USA,BA,2024-03-06_14h29.13.597,CRL1h,2023.2.3,MacIntel,29.98680581,65e67470ae2fbf2172c317b2,65e87d71a1e7fd4eddb309d4,,,,,,,,,,,948.4201,0.9,949.3191,949.3192,950.2866,left,1,0.9639,,950.2867,951.2873,3,3,51,8,1,partial,1,images/Ex1.jpg,left,training,hard,3,,,,,
,,,,,58b20a24c352cc0001ed554b,001,37,Female,USA,BA,2024-03-06_14h29.13.597,CRL1h,2023.2.3,MacIntel,29.98680581,65e67470ae2fbf2172c317b2,65e87d71a1e7fd4eddb309d4,,,,,,,,,,,951.288,1.2,952.4886,952.4886,953.2394,right,1,0.7446,,953.2396,954.2376,3,4,52,14,1,partial,1,images/Ex7.jpg,right,training,hard,3,,,,,
,,,,,58b20a24c352cc0001ed554b,001,37,Female,USA,BA,2024-03-06_14h29.13.597,CRL1h,2023.2.3,MacIntel,29.98680581,65e67470ae2fbf2172c317b2,65e87d71a1e7fd4eddb309d4,,,,,,,,,,,954.238,1.3,955.539,955.539,956.4428,right,0,0.8972,,956.4429,957.4397,3,5,53,2,1,partial,1,images/Ex3.jpg,left,training,hard,3,,,,,
,,,,,58b20a24c352cc0001ed554b,001,37,Female,USA,BA,2024-03-06_14h29.13.597,CRL1h,2023.2.3,MacIntel,29.98680581,65e67470ae2fbf2172c317b2,65e87d71a1e7fd4eddb309d4,,,,,,,,,,,957.4401,0.9,958.3426,958.3426,959.2905,left,0,0.9436,,959.2906,960.2924,3,6,54,7,1,partial,1,images/Ex8.jpg,right,training,hard,3,,,,,
,,,,,58b20a24c352cc0001ed554b,001,37,Female,USA,BA,2024-03-06_14h29.13.597,CRL1h,2023.2.3,MacIntel,29.98680581,65e67470ae2fbf2172c317b2,65e87d71a1e7fd4eddb309d4,,,,,,,,,,,960.2928,0.8,961.0934,961.0934,961.6591,left,1,0.5633,,961.6591,962.6584,3,7,55,1,1,partial,1,images/Ex2.jpg,left,training,hard,3,,,,,
,,,,,58b20a24c352cc0001ed554b,001,37,Female,USA,BA,2024-03-06_14h29.13.597,CRL1h,2023.2.3,MacIntel,29.98680581,65e67470ae2fbf2172c317b2,65e87d71a1e7fd4eddb309d4,,,,,,,,,,,962.6587,1.4,964.0604,964.0605,964.6774,right,1,0.61,,964.6774,965.6794,3,8,56,6,1,partial,1,images/Ex7.jpg,right,training,hard,3,,,,,
,,,,,58b20a24c352cc0001ed554b,001,37,Female,USA,BA,2024-03-06_14h29.13.597,CRL1h,2023.2.3,MacIntel,29.98680581,65e67470ae2fbf2172c317b2,65e87d71a1e7fd4eddb309d4,,,,,,,,,,,965.6801,1,966.678,966.678,967.211,left,0,0.5306,,967.2111,968.2118,3,9,57,5,1,partial,1,images/Ex6.jpg,right,training,hard,3,,,,,
,,,,,58b20a24c352cc0001ed554b,001,37,Female,USA,BA,2024-03-06_14h29.13.597,CRL1h,2023.2.3,MacIntel,29.98680581,65e67470ae2fbf2172c317b2,65e87d71a1e7fd4eddb309d4,,,,,,,,,,,968.2122,0.6,968.8123,968.8124,969.7149,left,1,0.9002,,969.715,970.7127,3,10,58,0,1,partial,1,images/Ex1.jpg,left,training,hard,3,,,,,
,,,,,58b20a24c352cc0001ed554b,001,37,Female,USA,BA,2024-03-06_14h29.13.597,CRL1h,2023.2.3,MacIntel,29.98680581,65e67470ae2fbf2172c317b2,65e87d71a1e7fd4eddb309d4,,,,,,,,,,,970.7132,1.3,972.0136,972.0137,972.63,right,0,0.613,,972.6301,973.6309,3,11,59,10,1,partial,1,images/Ex3.jpg,left,training,hard,3,,,,,
,,,,,58b20a24c352cc0001ed554b,001,37,Female,USA,BA,2024-03-06_14h29.13.597,CRL1h,2023.2.3,MacIntel,29.98680581,65e67470ae2fbf2172c317b2,65e87d71a1e7fd4eddb309d4,,,,,,,,,,,973.6313,0.8,974.4307,974.4307,975.3159,left,0,0.881,,975.316,976.3149,3,12,60,15,1,partial,1,images/Ex8.jpg,right,training,hard,3,,,,,
,,,,,58b20a24c352cc0001ed554b,001,37,Female,USA,BA,2024-03-06_14h29.13.597,CRL1h,2023.2.3,MacIntel,29.98680581,65e67470ae2fbf2172c317b2,65e87d71a1e7fd4eddb309d4,,,,,,,,,,,976.3152,0.6,976.9184,976.9185,977.3666,left,1,0.443,,977.3666,978.3669,3,13,61,9,1,partial,1,images/Ex2.jpg,left,training,hard,3,,,,,
,,,,,58b20a24c352cc0001ed554b,001,37,Female,USA,BA,2024-03-06_14h29.13.597,CRL1h,2023.2.3,MacIntel,29.98680581,65e67470ae2fbf2172c317b2,65e87d71a1e7fd4eddb309d4,,,,,,,,,,,978.3676,1.2,979.5665,979.5665,980.2336,right,0,0.6638,,980.2336,981.2349,3,14,62,3,1,partial,1,images/Ex4.jpg,left,training,hard,3,,,,,
,,,,,58b20a24c352cc0001ed554b,001,37,Female,USA,BA,2024-03-06_14h29.13.597,CRL1h,2023.2.3,MacIntel,29.98680581,65e67470ae2fbf2172c317b2,65e87d71a1e7fd4eddb309d4,,,,,,,,,,,981.2361,1.2,982.4345,982.4345,983.236,right,1,0.7924,,983.2361,984.2364,3,15,63,12,1,partial,1,images/Ex5.jpg,right,training,hard,3,,,,,
,,,,,58b20a24c352cc0001ed554b,001,37,Female,USA,BA,2024-03-06_14h29.13.597,CRL1h,2023.2.3,MacIntel,29.98680581,65e67470ae2fbf2172c317b2,65e87d71a1e7fd4eddb309d4,,,,,,,,,,,984.2376,0.9,985.1364,985.1364,986.1219,left,0,0.9811,,986.1219,987.1208,4,0,64,7,1,partial,1,images/Ex8.jpg,right,training,hard,3,,,,,
,,,,,58b20a24c352cc0001ed554b,001,37,Female,USA,BA,2024-03-06_14h29.13.597,CRL1h,2023.2.3,MacIntel,29.98680581,65e67470ae2fbf2172c317b2,65e87d71a1e7fd4eddb309d4,,,,,,,,,,,987.1212,1.1,988.2243,988.2243,989.2421,right,1,1.0053,,989.2421,990.2407,4,1,65,5,1,partial,1,images/Ex6.jpg,right,training,hard,3,,,,,
,,,,,58b20a24c352cc0001ed554b,001,37,Female,USA,BA,2024-03-06_14h29.13.597,CRL1h,2023.2.3,MacIntel,29.98680581,65e67470ae2fbf2172c317b2,65e87d71a1e7fd4eddb309d4,,,,,,,,,,,990.2416,0.6,990.8384,990.8384,991.3897,right,1,0.548,,991.3898,992.3896,4,2,66,12,1,partial,1,images/Ex5.jpg,right,training,hard,3,,,,,
,,,,,58b20a24c352cc0001ed554b,001,37,Female,USA,BA,2024-03-06_14h29.13.597,CRL1h,2023.2.3,MacIntel,29.98680581,65e67470ae2fbf2172c317b2,65e87d71a1e7fd4eddb309d4,,,,,,,,,,,992.39,1.3,993.6896,993.6896,994.2073,left,1,0.5146,,994.2073,995.2072,4,3,67,1,1,partial,1,images/Ex2.jpg,left,training,hard,3,,,,,
,,,,,58b20a24c352cc0001ed554b,001,37,Female,USA,BA,2024-03-06_14h29.13.597,CRL1h,2023.2.3,MacIntel,29.98680581,65e67470ae2fbf2172c317b2,65e87d71a1e7fd4eddb309d4,,,,,,,,,,,995.2076,1.5,996.7089,996.709,997.4769,left,1,0.7633,,997.4771,998.4779,4,4,68,0,1,partial,1,images/Ex1.jpg,left,training,hard,3,,,,,
,,,,,58b20a24c352cc0001ed554b,001,37,Female,USA,BA,2024-03-06_14h29.13.597,CRL1h,2023.2.3,MacIntel,29.98680581,65e67470ae2fbf2172c317b2,65e87d71a1e7fd4eddb309d4,,,,,,,,,,,998.4789,1.3,999.777,999.777,1000.3446,right,1,0.5598,,1000.3446,1001.345,4,5,69,14,1,partial,1,images/Ex7.jpg,right,training,hard,3,,,,,
,,,,,58b20a24c352cc0001ed554b,001,37,Female,USA,BA,2024-03-06_14h29.13.597,CRL1h,2023.2.3,MacIntel,29.98680581,65e67470ae2fbf2172c317b2,65e87d71a1e7fd4eddb309d4,,,,,,,,,,,1001.3454,0.9,1002.2451,1002.2451,1002.9786,right,0,0.731,,1002.9786,1003.9786,4,6,70,3,1,partial,1,images/Ex4.jpg,left,training,hard,3,,,,,
,,,,,58b20a24c352cc0001ed554b,001,37,Female,USA,BA,2024-03-06_14h29.13.597,CRL1h,2023.2.3,MacIntel,29.98680581,65e67470ae2fbf2172c317b2,65e87d71a1e7fd4eddb309d4,,,,,,,,,,,1003.9791,1.3,1005.2795,1005.2795,1006.1152,right,0,0.8305,,1006.1152,1007.1132,4,7,71,10,1,partial,1,images/Ex3.jpg,left,training,hard,3,,,,,
,,,,,58b20a24c352cc0001ed554b,001,37,Female,USA,BA,2024-03-06_14h29.13.597,CRL1h,2023.2.3,MacIntel,29.98680581,65e67470ae2fbf2172c317b2,65e87d71a1e7fd4eddb309d4,,,,,,,,,,,1007.1137,0.7,1007.8168,1007.8168,1008.5494,left,1,0.7269,,1008.5494,1009.5476,4,8,72,11,1,partial,1,images/Ex4.jpg,left,training,hard,3,,,,,
,,,,,58b20a24c352cc0001ed554b,001,37,Female,USA,BA,2024-03-06_14h29.13.597,CRL1h,2023.2.3,MacIntel,29.98680581,65e67470ae2fbf2172c317b2,65e87d71a1e7fd4eddb309d4,,,,,,,,,,,1009.548,0.9,1010.4504,1010.4505,1011.3316,right,1,0.8789,,1011.3316,1012.3329,4,9,73,13,1,partial,1,images/Ex6.jpg,right,training,hard,3,,,,,
,,,,,58b20a24c352cc0001ed554b,001,37,Female,USA,BA,2024-03-06_14h29.13.597,CRL1h,2023.2.3,MacIntel,29.98680581,65e67470ae2fbf2172c317b2,65e87d71a1e7fd4eddb309d4,,,,,,,,,,,1012.3342,1,1013.3326,1013.3327,1013.7157,left,1,0.3807,,1013.7158,1014.72,4,10,74,9,1,partial,1,images/Ex2.jpg,left,training,hard,3,,,,,
,,,,,58b20a24c352cc0001ed554b,001,37,Female,USA,BA,2024-03-06_14h29.13.597,CRL1h,2023.2.3,MacIntel,29.98680581,65e67470ae2fbf2172c317b2,65e87d71a1e7fd4eddb309d4,,,,,,,,,,,1014.7203,1.2,1015.9193,1015.9195,1016.8031,left,1,0.8777,,1016.8031,1017.8024,4,11,75,2,1,partial,1,images/Ex3.jpg,left,training,hard,3,,,,,
,,,,,58b20a24c352cc0001ed554b,001,37,Female,USA,BA,2024-03-06_14h29.13.597,CRL1h,2023.2.3,MacIntel,29.98680581,65e67470ae2fbf2172c317b2,65e87d71a1e7fd4eddb309d4,,,,,,,,,,,1017.8028,1.1,1018.9026,1018.9027,1019.9705,left,0,1.0624,,1019.9707,1020.972,4,12,76,4,1,partial,1,images/Ex5.jpg,right,training,hard,3,,,,,
,,,,,58b20a24c352cc0001ed554b,001,37,Female,USA,BA,2024-03-06_14h29.13.597,CRL1h,2023.2.3,MacIntel,29.98680581,65e67470ae2fbf2172c317b2,65e87d71a1e7fd4eddb309d4,,,,,,,,,,,1020.9725,0.5,1021.4703,1021.4704,1022.1711,left,1,0.6968,,1022.1712,1023.171,4,13,77,8,1,partial,1,images/Ex1.jpg,left,training,hard,3,,,,,
,,,,,58b20a24c352cc0001ed554b,001,37,Female,USA,BA,2024-03-06_14h29.13.597,CRL1h,2023.2.3,MacIntel,29.98680581,65e67470ae2fbf2172c317b2,65e87d71a1e7fd4eddb309d4,,,,,,,,,,,1023.1727,1.2,1024.3735,1024.3736,1024.9724,right,1,0.5973,,1024.9724,1025.9723,4,14,78,6,1,partial,1,images/Ex7.jpg,right,training,hard,3,,,,,
,,,,,58b20a24c352cc0001ed554b,001,37,Female,USA,BA,2024-03-06_14h29.13.597,CRL1h,2023.2.3,MacIntel,29.98680581,65e67470ae2fbf2172c317b2,65e87d71a1e7fd4eddb309d4,,,,,,,,,,,1025.9727,1.5,1027.4737,1027.4738,1028.4908,left,0,1.0122,,1028.4909,1029.4913,4,15,79,15,1,partial,1,images/Ex8.jpg,right,training,hard,3,,,,,
,,,,,58b20a24c352cc0001ed554b,001,37,Female,USA,BA,2024-03-06_14h29.13.597,CRL1h,2023.2.3,MacIntel,29.98680581,65e67470ae2fbf2172c317b2,65e87d71a1e7fd4eddb309d4,,,,,,,,,,,1029.4923,1.2,1030.692,1030.692,1031.3248,left,1,0.6273,,1031.3248,1032.3261,5,0,80,8,1,partial,1,images/Ex1.jpg,left,training,hard,3,,,,,
,,,,,58b20a24c352cc0001ed554b,001,37,Female,USA,BA,2024-03-06_14h29.13.597,CRL1h,2023.2.3,MacIntel,29.98680581,65e67470ae2fbf2172c317b2,65e87d71a1e7fd4eddb309d4,,,,,,,,,,,1032.3266,1.1,1033.4266,1033.4266,1034.1788,left,1,0.747,,1034.1791,1035.1761,5,1,81,0,1,partial,1,images/Ex1.jpg,left,training,hard,3,,,,,
,,,,,58b20a24c352cc0001ed554b,001,37,Female,USA,BA,2024-03-06_14h29.13.597,CRL1h,2023.2.3,MacIntel,29.98680581,65e67470ae2fbf2172c317b2,65e87d71a1e7fd4eddb309d4,,,,,,,,,,,1035.1765,1.2,1036.3783,1036.3783,1036.894,left,1,0.5115,,1036.8941,1037.8952,5,2,82,1,1,partial,1,images/Ex2.jpg,left,training,hard,3,,,,,
,,,,,58b20a24c352cc0001ed554b,001,37,Female,USA,BA,2024-03-06_14h29.13.597,CRL1h,2023.2.3,MacIntel,29.98680581,65e67470ae2fbf2172c317b2,65e87d71a1e7fd4eddb309d4,,,,,,,,,,,1037.8957,1,1038.896,1038.8961,1039.8286,left,1,0.928,,1039.8287,1040.8289,5,3,83,3,1,partial,1,images/Ex4.jpg,left,training,hard,3,,,,,
,,,,,58b20a24c352cc0001ed554b,001,37,Female,USA,BA,2024-03-06_14h29.13.597,CRL1h,2023.2.3,MacIntel,29.98680581,65e67470ae2fbf2172c317b2,65e87d71a1e7fd4eddb309d4,,,,,,,,,,,1040.8292,0.7,1041.5292,1041.5292,1042.3808,right,0,0.8468,,1042.3809,1043.38,5,4,84,10,1,partial,1,images/Ex3.jpg,left,training,hard,3,,,,,
,,,,,58b20a24c352cc0001ed554b,001,37,Female,USA,BA,2024-03-06_14h29.13.597,CRL1h,2023.2.3,MacIntel,29.98680581,65e67470ae2fbf2172c317b2,65e87d71a1e7fd4eddb309d4,,,,,,,,,,,1043.3803,1.4,1044.7818,1044.7819,1045.9328,right,1,1.147,,1045.9329,1046.9328,5,5,85,6,1,partial,1,images/Ex7.jpg,right,training,hard,3,,,,,
,,,,,58b20a24c352cc0001ed554b,001,37,Female,USA,BA,2024-03-06_14h29.13.597,CRL1h,2023.2.3,MacIntel,29.98680581,65e67470ae2fbf2172c317b2,65e87d71a1e7fd4eddb309d4,,,,,,,,,,,1046.9333,1.5,1048.4338,1048.4338,1049.0499,left,0,0.6118,,1049.0499,1050.0514,5,6,86,5,1,partial,1,images/Ex6.jpg,right,training,hard,3,,,,,
,,,,,58b20a24c352cc0001ed554b,001,37,Female,USA,BA,2024-03-06_14h29.13.597,CRL1h,2023.2.3,MacIntel,29.98680581,65e67470ae2fbf2172c317b2,65e87d71a1e7fd4eddb309d4,,,,,,,,,,,1050.0518,1,1051.0508,1051.0508,1052.1855,left,1,1.1302,,1052.1856,1053.1863,5,7,87,11,1,partial,1,images/Ex4.jpg,left,training,hard,3,,,,,
,,,,,58b20a24c352cc0001ed554b,001,37,Female,USA,BA,2024-03-06_14h29.13.597,CRL1h,2023.2.3,MacIntel,29.98680581,65e67470ae2fbf2172c317b2,65e87d71a1e7fd4eddb309d4,,,,,,,,,,,1053.1865,1.3,1054.4854,1054.4854,1055.0028,left,1,0.5139,,1055.0028,1056.0034,5,8,88,9,1,partial,1,images/Ex2.jpg,left,training,hard,3,,,,,
,,,,,58b20a24c352cc0001ed554b,001,37,Female,USA,BA,2024-03-06_14h29.13.597,CRL1h,2023.2.3,MacIntel,29.98680581,65e67470ae2fbf2172c317b2,65e87d71a1e7fd4eddb309d4,,,,,,,,,,,1056.0037,0.5,1056.503,1056.503,1057.2205,right,1,0.7148,,1057.2207,1058.2217,5,9,89,4,1,partial,1,images/Ex5.jpg,right,training,hard,3,,,,,
,,,,,58b20a24c352cc0001ed554b,001,37,Female,USA,BA,2024-03-06_14h29.13.597,CRL1h,2023.2.3,MacIntel,29.98680581,65e67470ae2fbf2172c317b2,65e87d71a1e7fd4eddb309d4,,,,,,,,,,,1058.2223,0.8,1059.0221,1059.0222,1059.4884,left,0,0.4648,,1059.4886,1060.4887,5,10,90,15,1,partial,1,images/Ex8.jpg,right,training,hard,3,,,,,
,,,,,58b20a24c352cc0001ed554b,001,37,Female,USA,BA,2024-03-06_14h29.13.597,CRL1h,2023.2.3,MacIntel,29.98680581,65e67470ae2fbf2172c317b2,65e87d71a1e7fd4eddb309d4,,,,,,,,,,,1060.4892,1,1061.4889,1061.4889,1062.6398,right,1,1.1462,,1062.6399,1063.6406,5,11,91,12,1,partial,1,images/Ex5.jpg,right,training,hard,3,,,,,
,,,,,58b20a24c352cc0001ed554b,001,37,Female,USA,BA,2024-03-06_14h29.13.597,CRL1h,2023.2.3,MacIntel,29.98680581,65e67470ae2fbf2172c317b2,65e87d71a1e7fd4eddb309d4,,,,,,,,,,,1063.6411,0.7,1064.3411,1064.3411,1065.1243,right,0,0.781,,1065.1244,1066.1255,5,12,92,2,1,partial,1,images/Ex3.jpg,left,training,hard,3,,,,,
,,,,,58b20a24c352cc0001ed554b,001,37,Female,USA,BA,2024-03-06_14h29.13.597,CRL1h,2023.2.3,MacIntel,29.98680581,65e67470ae2fbf2172c317b2,65e87d71a1e7fd4eddb309d4,,,,,,,,,,,1066.1259,1.3,1067.4263,1067.4263,1068.2449,right,1,0.8075,,1068.245,1069.2436,5,13,93,14,1,partial,1,images/Ex7.jpg,right,training,hard,3,,,,,
,,,,,58b20a24c352cc0001ed554b,001,37,Female,USA,BA,2024-03-06_14h29.13.597,CRL1h,2023.2.3,MacIntel,29.98680581,65e67470ae2fbf2172c317b2,65e87d71a1e7fd4eddb309d4,,,,,,,,,,,1069.2441,1.1,1070.3433,1070.3434,1071.0607,left,0,0.7161,,1071.0607,1072.0621,5,14,94,13,1,partial,1,images/Ex6.jpg,right,training,hard,3,,,,,
,,,,,58b20a24c352cc0001ed554b,001,37,Female,USA,BA,2024-03-06_14h29.13.597,CRL1h,2023.2.3,MacIntel,29.98680581,65e67470ae2fbf2172c317b2,65e87d71a1e7fd4eddb309d4,,,,,,,,,,,1072.0627,0.6,1072.6611,1072.6612,1073.6785,right,1,1.0151,,1073.6785,1074.6804,5,15,95,7,1,partial,1,images/Ex8.jpg,right,training,hard,3,,,,,
,,,,,58b20a24c352cc0001ed554b,001,37,Female,USA,BA,2024-03-06_14h29.13.597,CRL1h,2023.2.3,MacIntel,29.98680581,65e67470ae2fbf2172c317b2,65e87d71a1e7fd4eddb309d4,,,,,,,,,,,1074.6809,1.1,1075.7826,1075.7827,1076.3625,right,1,0.5757,,1076.3626,1077.3647,6,0,96,4,1,partial,1,images/Ex5.jpg,right,training,hard,3,,,,,
,,,,,58b20a24c352cc0001ed554b,001,37,Female,USA,BA,2024-03-06_14h29.13.597,CRL1h,2023.2.3,MacIntel,29.98680581,65e67470ae2fbf2172c317b2,65e87d71a1e7fd4eddb309d4,,,,,,,,,,,1077.3658,0.7,1078.0633,1078.0634,1078.5634,right,1,0.4985,,1078.5635,1079.5642,6,1,97,12,1,partial,1,images/Ex5.jpg,right,training,hard,3,,,,,
,,,,,58b20a24c352cc0001ed554b,001,37,Female,USA,BA,2024-03-06_14h29.13.597,CRL1h,2023.2.3,MacIntel,29.98680581,65e67470ae2fbf2172c317b2,65e87d71a1e7fd4eddb309d4,,,,,,,,,,,1079.5645,1.2,1080.7644,1080.7644,1081.5995,right,1,0.826,,1081.5996,1082.6,6,2,98,6,1,partial,1,images/Ex7.jpg,right,training,hard,3,,,,,
,,,,,58b20a24c352cc0001ed554b,001,37,Female,USA,BA,2024-03-06_14h29.13.597,CRL1h,2023.2.3,MacIntel,29.98680581,65e67470ae2fbf2172c317b2,65e87d71a1e7fd4eddb309d4,,,,,,,,,,,1082.6003,1.4,1083.9999,1084,1084.552,left,1,0.5425,,1084.5522,1085.5514,6,3,99,9,1,partial,1,images/Ex2.jpg,left,training,hard,3,,,,,
,,,,,58b20a24c352cc0001ed554b,001,37,Female,USA,BA,2024-03-06_14h29.13.597,CRL1h,2023.2.3,MacIntel,29.98680581,65e67470ae2fbf2172c317b2,65e87d71a1e7fd4eddb309d4,,,,,,,,,,,1085.5518,0.8,1086.3525,1086.3526,1087.0857,left,1,0.7305,,1087.086,1088.0853,6,4,100,3,1,partial,1,images/Ex4.jpg,left,training,hard,3,,,,,
,,,,,58b20a24c352cc0001ed554b,001,37,Female,USA,BA,2024-03-06_14h29.13.597,CRL1h,2023.2.3,MacIntel,29.98680581,65e67470ae2fbf2172c317b2,65e87d71a1e7fd4eddb309d4,,,,,,,,,,,1088.0858,1.4,1089.4885,1089.4886,1090.253,left,1,0.7606,,1090.2531,1091.2537,6,5,101,2,1,partial,1,images/Ex3.jpg,left,training,hard,3,,,,,
,,,,,58b20a24c352cc0001ed554b,001,37,Female,USA,BA,2024-03-06_14h29.13.597,CRL1h,2023.2.3,MacIntel,29.98680581,65e67470ae2fbf2172c317b2,65e87d71a1e7fd4eddb309d4,,,,,,,,,,,1091.2541,1.2,1092.4546,1092.4547,1093.3544,right,1,0.8961,,1093.3545,1094.3542,6,6,102,5,1,partial,1,images/Ex6.jpg,right,training,hard,3,,,,,
,,,,,58b20a24c352cc0001ed554b,001,37,Female,USA,BA,2024-03-06_14h29.13.597,CRL1h,2023.2.3,MacIntel,29.98680581,65e67470ae2fbf2172c317b2,65e87d71a1e7fd4eddb309d4,,,,,,,,,,,1094.3545,1.3,1095.6566,1095.6568,1096.4747,right,1,0.8082,,1096.4748,1097.4725,6,7,103,14,1,partial,1,images/Ex7.jpg,right,training,hard,3,,,,,
,,,,,58b20a24c352cc0001ed554b,001,37,Female,USA,BA,2024-03-06_14h29.13.597,CRL1h,2023.2.3,MacIntel,29.98680581,65e67470ae2fbf2172c317b2,65e87d71a1e7fd4eddb309d4,,,,,,,,,,,1097.4729,1.4,1098.8757,1098.8757,1099.3742,left,1,0.497,,1099.3743,1100.3757,6,8,104,1,1,partial,1,images/Ex2.jpg,left,training,hard,3,,,,,
,,,,,58b20a24c352cc0001ed554b,001,37,Female,USA,BA,2024-03-06_14h29.13.597,CRL1h,2023.2.3,MacIntel,29.98680581,65e67470ae2fbf2172c317b2,65e87d71a1e7fd4eddb309d4,,,,,,,,,,,1100.3765,1.3,1101.6746,1101.6746,1102.4249,right,1,0.7471,,1102.4249,1103.4262,6,9,105,13,1,partial,1,images/Ex6.jpg,right,training,hard,3,,,,,
,,,,,58b20a24c352cc0001ed554b,001,37,Female,USA,BA,2024-03-06_14h29.13.597,CRL1h,2023.2.3,MacIntel,29.98680581,65e67470ae2fbf2172c317b2,65e87d71a1e7fd4eddb309d4,,,,,,,,,,,1103.4267,1,1104.4254,1104.4254,1105.2943,left,1,0.8648,,1105.2943,1106.2937,6,10,106,11,1,partial,1,images/Ex4.jpg,left,training,hard,3,,,,,
,,,,,58b20a24c352cc0001ed554b,001,37,Female,USA,BA,2024-03-06_14h29.13.597,CRL1h,2023.2.3,MacIntel,29.98680581,65e67470ae2fbf2172c317b2,65e87d71a1e7fd4eddb309d4,,,,,,,,,,,1106.294,0.8,1107.0948,1107.0948,1107.8113,left,1,0.7143,,1107.8114,1108.8121,6,11,107,0,1,partial,1,images/Ex1.jpg,left,training,hard,3,,,,,
,,,,,58b20a24c352cc0001ed554b,001,37,Female,USA,BA,2024-03-06_14h29.13.597,CRL1h,2023.2.3,MacIntel,29.98680581,65e67470ae2fbf2172c317b2,65e87d71a1e7fd4eddb309d4,,,,,,,,,,,1108.8131,1.4,1110.2127,1110.2128,1110.7798,left,1,0.5648,,1110.7799,1111.7823,6,12,108,8,1,partial,1,images/Ex1.jpg,left,training,hard,3,,,,,
,,,,,58b20a24c352cc0001ed554b,001,37,Female,USA,BA,2024-03-06_14h29.13.597,CRL1h,2023.2.3,MacIntel,29.98680581,65e67470ae2fbf2172c317b2,65e87d71a1e7fd4eddb309d4,,,,,,,,,,,1111.7827,1.2,1112.9798,1112.9798,1113.881,left,0,0.8963,,1113.8811,1114.8807,6,13,109,15,1,partial,1,images/Ex8.jpg,right,training,hard,3,,,,,
,,,,,58b20a24c352cc0001ed554b,001,37,Female,USA,BA,2024-03-06_14h29.13.597,CRL1h,2023.2.3,MacIntel,29.98680581,65e67470ae2fbf2172c317b2,65e87d71a1e7fd4eddb309d4,,,,,,,,,,,1114.8809,0.6,1115.4809,1115.481,1116.3146,left,1,0.8314,,1116.3146,1117.3161,6,14,110,10,1,partial,1,images/Ex3.jpg,left,training,hard,3,,,,,
,,,,,58b20a24c352cc0001ed554b,001,37,Female,USA,BA,2024-03-06_14h29.13.597,CRL1h,2023.2.3,MacIntel,29.98680581,65e67470ae2fbf2172c317b2,65e87d71a1e7fd4eddb309d4,,,,,,,,,,,1117.3167,1.4,1118.7175,1118.7176,1119.5338,left,0,0.8111,,1119.5339,1120.535,6,15,111,7,1,partial,1,images/Ex8.jpg,right,training,hard,3,,,,,
,,,,,58b20a24c352cc0001ed554b,001,37,Female,USA,BA,2024-03-06_14h29.13.597,CRL1h,2023.2.3,MacIntel,29.98680581,65e67470ae2fbf2172c317b2,65e87d71a1e7fd4eddb309d4,,,,,,,,,,,1120.5354,0.9,1121.4336,1121.4336,1121.9842,right,1,0.5473,,1121.9843,1122.9855,7,0,112,15,1,partial,1,images/Ex8.jpg,right,training,hard,3,,,,,
,,,,,58b20a24c352cc0001ed554b,001,37,Female,USA,BA,2024-03-06_14h29.13.597,CRL1h,2023.2.3,MacIntel,29.98680581,65e67470ae2fbf2172c317b2,65e87d71a1e7fd4eddb309d4,,,,,,,,,,,1122.9861,0.8,1123.7859,1123.7861,1124.4691,left,1,0.6798,,1124.4692,1125.469,7,1,113,3,1,partial,1,images/Ex4.jpg,left,training,hard,3,,,,,
,,,,,58b20a24c352cc0001ed554b,001,37,Female,USA,BA,2024-03-06_14h29.13.597,CRL1h,2023.2.3,MacIntel,29.98680581,65e67470ae2fbf2172c317b2,65e87d71a1e7fd4eddb309d4,,,,,,,,,,,1125.4693,1,1126.4726,1126.4727,1127.0373,left,1,0.562,,1127.0373,1128.039,7,2,114,9,1,partial,1,images/Ex2.jpg,left,training,hard,3,,,,,
,,,,,58b20a24c352cc0001ed554b,001,37,Female,USA,BA,2024-03-06_14h29.13.597,CRL1h,2023.2.3,MacIntel,29.98680581,65e67470ae2fbf2172c317b2,65e87d71a1e7fd4eddb309d4,,,,,,,,,,,1128.0395,0.6,1128.6371,1128.6372,1129.4905,right,0,0.8474,,1129.4906,1130.4888,7,3,115,11,1,partial,1,images/Ex4.jpg,left,training,hard,3,,,,,
,,,,,58b20a24c352cc0001ed554b,001,37,Female,USA,BA,2024-03-06_14h29.13.597,CRL1h,2023.2.3,MacIntel,29.98680581,65e67470ae2fbf2172c317b2,65e87d71a1e7fd4eddb309d4,,,,,,,,,,,1130.4891,1.5,1131.9902,1131.9903,1132.5235,left,1,0.5233,,1132.5236,1133.5247,7,4,116,1,1,partial,1,images/Ex2.jpg,left,training,hard,3,,,,,
,,,,,58b20a24c352cc0001ed554b,001,37,Female,USA,BA,2024-03-06_14h29.13.597,CRL1h,2023.2.3,MacIntel,29.98680581,65e67470ae2fbf2172c317b2,65e87d71a1e7fd4eddb309d4,,,,,,,,,,,1133.5254,1.1,1134.6238,1134.6238,1135.4254,left,1,0.7984,,1135.4254,1136.4253,7,5,117,10,1,partial,1,images/Ex3.jpg,left,training,hard,3,,,,,
,,,,,58b20a24c352cc0001ed554b,001,37,Female,USA,BA,2024-03-06_14h29.13.597,CRL1h,2023.2.3,MacIntel,29.98680581,65e67470ae2fbf2172c317b2,65e87d71a1e7fd4eddb309d4,,,,,,,,,,,1136.4257,1.2,1137.6247,1137.6247,1138.1605,left,1,0.5347,,1138.1605,1139.1599,7,6,118,8,1,partial,1,images/Ex1.jpg,left,training,hard,3,,,,,
,,,,,58b20a24c352cc0001ed554b,001,37,Female,USA,BA,2024-03-06_14h29.13.597,CRL1h,2023.2.3,MacIntel,29.98680581,65e67470ae2fbf2172c317b2,65e87d71a1e7fd4eddb309d4,,,,,,,,,,,1139.1604,1.1,1140.2593,1140.2593,1140.86,left,1,0.5967,,1140.86,1141.8611,7,7,119,2,1,partial,1,images/Ex3.jpg,left,training,hard,3,,,,,
,,,,,58b20a24c352cc0001ed554b,001,37,Female,USA,BA,2024-03-06_14h29.13.597,CRL1h,2023.2.3,MacIntel,29.98680581,65e67470ae2fbf2172c317b2,65e87d71a1e7fd4eddb309d4,,,,,,,,,,,1141.8616,1.1,1142.962,1142.9621,1143.5956,right,1,0.6274,,1143.5957,1144.5948,7,8,120,12,1,partial,1,images/Ex5.jpg,right,training,hard,3,,,,,
,,,,,58b20a24c352cc0001ed554b,001,37,Female,USA,BA,2024-03-06_14h29.13.597,CRL1h,2023.2.3,MacIntel,29.98680581,65e67470ae2fbf2172c317b2,65e87d71a1e7fd4eddb309d4,,,,,,,,,,,1144.5951,0.8,1145.3963,1145.3963,1146.0133,right,1,0.6161,,1146.0134,1147.0131,7,9,121,4,1,partial,1,images/Ex5.jpg,right,training,hard,3,,,,,
,,,,,58b20a24c352cc0001ed554b,001,37,Female,USA,BA,2024-03-06_14h29.13.597,CRL1h,2023.2.3,MacIntel,29.98680581,65e67470ae2fbf2172c317b2,65e87d71a1e7fd4eddb309d4,,,,,,,,,,,1147.0135,0.8,1147.8136,1147.8136,1148.5666,left,0,0.7499,,1148.5667,1149.5665,7,10,122,6,1,partial,1,images/Ex7.jpg,right,training,hard,3,,,,,
,,,,,58b20a24c352cc0001ed554b,001,37,Female,USA,BA,2024-03-06_14h29.13.597,CRL1h,2023.2.3,MacIntel,29.98680581,65e67470ae2fbf2172c317b2,65e87d71a1e7fd4eddb309d4,,,,,,,,,,,1149.567,0.7,1150.2655,1150.2655,1151.1655,right,1,0.8964,,1151.1655,1152.1661,7,11,123,5,1,partial,1,images/Ex6.jpg,right,training,hard,3,,,,,
,,,,,58b20a24c352cc0001ed554b,001,37,Female,USA,BA,2024-03-06_14h29.13.597,CRL1h,2023.2.3,MacIntel,29.98680581,65e67470ae2fbf2172c317b2,65e87d71a1e7fd4eddb309d4,,,,,,,,,,,1152.1673,0.6,1152.7685,1152.7686,1153.4016,right,1,0.6264,,1153.4017,1154.4006,7,12,124,13,1,partial,1,images/Ex6.jpg,right,training,hard,3,,,,,
,,,,,58b20a24c352cc0001ed554b,001,37,Female,USA,BA,2024-03-06_14h29.13.597,CRL1h,2023.2.3,MacIntel,29.98680581,65e67470ae2fbf2172c317b2,65e87d71a1e7fd4eddb309d4,,,,,,,,,,,1154.4014,1,1155.4039,1155.4039,1156.2849,left,0,0.8708,,1156.285,1157.2848,7,13,125,7,1,partial,1,images/Ex8.jpg,right,training,hard,3,,,,,
,,,,,58b20a24c352cc0001ed554b,001,37,Female,USA,BA,2024-03-06_14h29.13.597,CRL1h,2023.2.3,MacIntel,29.98680581,65e67470ae2fbf2172c317b2,65e87d71a1e7fd4eddb309d4,,,,,,,,,,,1157.2852,1.5,1158.7847,1158.7848,1159.9552,right,1,1.1644,,1159.9552,1160.9537,7,14,126,14,1,partial,1,images/Ex7.jpg,right,training,hard,3,,,,,
,,,,,58b20a24c352cc0001ed554b,001,37,Female,USA,BA,2024-03-06_14h29.13.597,CRL1h,2023.2.3,MacIntel,29.98680581,65e67470ae2fbf2172c317b2,65e87d71a1e7fd4eddb309d4,,,,,,,,,,,1160.954,1.3,1162.254,1162.2541,1162.92,left,1,0.6637,,1162.92,1163.9206,7,15,127,0,1,partial,1,images/Ex1.jpg,left,training,hard,3,,,,,
,,,,,58b20a24c352cc0001ed554b,001,37,Female,USA,BA,2024-03-06_14h29.13.597,CRL1h,2023.2.3,MacIntel,29.98680581,65e67470ae2fbf2172c317b2,65e87d71a1e7fd4eddb309d4,,,,,,,,,,,1163.9272,1.2,1165.1213,1165.1213,1165.8737,right,0,0.7472,,1165.8737,1166.8732,0,0,0,5,1,partial,2,images/Ex6.jpg,left,reversed,hard,3,,,,,
