infCons.started,infCons.stopped,resp_consent.keys,resp_consent.rt,resp_consent.duration,participant,session,Age?,Gender?,Nationality?,Highest Educational Degree?,date,expName,psychopyVersion,OS,frameRate,STUDY_ID,SESSION_ID,instructions.started,instructions.stopped,resp_instructions.keys,resp_instructions.rt,resp_instructions.duration,nextTask.started,nextTask.stopped,ready_task.keys,ready_task.rt,ready_task.duration,fixation.started,ITI,fixation.stopped,stim.started,stim.stopped,response.keys,response.corr,response.rt,response.duration,feedback.started,feedback.stopped,trials.thisRepN,trials.thisTrialN,trials.thisN,trials.thisIndex,trials.ran,task,phase,Exemplars,r_correct,condition,difficulty,set,end.started,end.stopped,resp_end.keys,resp_end.rt,resp_end.duration
0.0002,8.0249,space,7.9957,,5a31373183019b00012f6322,001,40,female,english,high school,2024-03-06_14h32.25.575,CRL1h,2023.2.3,Win32,60.24096386,65e67470ae2fbf2172c317b2,65e87e4ce20711f8bf42deb8,,,,,,,,,,,,,,,,,,,,,,,,,,,,,,,,,,,,,,
,,,,,5a31373183019b00012f6322,001,40,female,english,high school,2024-03-06_14h32.25.575,CRL1h,2023.2.3,Win32,60.24096386,65e67470ae2fbf2172c317b2,65e87e4ce20711f8bf42deb8,8.0252,47.3443,space,39.2955,,,,,,,,,,,,,,,,,,,,,,,,,,,,,,,,,,
,,,,,5a31373183019b00012f6322,001,40,female,english,high school,2024-03-06_14h32.25.575,CRL1h,2023.2.3,Win32,60.24096386,65e67470ae2fbf2172c317b2,65e87e4ce20711f8bf42deb8,,,,,,47.3552,52.5447,space,5.1688,,52.5553,1,53.5448,53.5451,55.4282,right,1,1.8661,,55.4284,56.4274,0,0,0,6,1,total,1,images/Ex15.jpg,right,training,hard,3,,,,,
,,,,,5a31373183019b00012f6322,001,40,female,english,high school,2024-03-06_14h32.25.575,CRL1h,2023.2.3,Win32,60.24096386,65e67470ae2fbf2172c317b2,65e87e4ce20711f8bf42deb8,,,,,,,,,,,56.4279,1.4,57.8276,57.8277,59.4782,left,1,1.6429,,59.4782,60.4781,0,1,1,10,1,total,1,images/Ex11.jpg,left,training,hard,3,,,,,
,,,,,5a31373183019b00012f6322,001,40,female,english,high school,2024-03-06_14h32.25.575,CRL1h,2023.2.3,Win32,60.24096386,65e67470ae2fbf2172c317b2,65e87e4ce20711f8bf42deb8,,,,,,,,,,,60.4785,1,61.4773,61.4773,62.8116,right,0,1.3291,,62.8116,63.8115,0,2,2,3,1,total,1,images/Ex12.jpg,left,training,hard,3,,,,,
,,,,,5a31373183019b00012f6322,001,40,female,english,high school,2024-03-06_14h32.25.575,CRL1h,2023.2.3,Win32,60.24096386,65e67470ae2fbf2172c317b2,65e87e4ce20711f8bf42deb8,,,,,,,,,,,63.8118,1.3,65.1112,65.1112,66.9117,right,1,1.7938,,66.9117,67.9116,0,3,3,7,1,total,1,images/Ex16.jpg,right,training,hard,3,,,,,
,,,,,5a31373183019b00012f6322,001,40,female,english,high school,2024-03-06_14h32.25.575,CRL1h,2023.2.3,Win32,60.24096386,65e67470ae2fbf2172c317b2,65e87e4ce20711f8bf42deb8,,,,,,,,,,,67.9182,1.4,69.311,69.311,70.8123,left,0,1.5002,,70.8123,71.8122,0,4,4,12,1,total,1,images/Ex13.jpg,right,training,hard,3,,,,,
,,,,,5a31373183019b00012f6322,001,40,female,english,high school,2024-03-06_14h32.25.575,CRL1h,2023.2.3,Win32,60.24096386,65e67470ae2fbf2172c317b2,65e87e4ce20711f8bf42deb8,,,,,,,,,,,71.8198,1.2,73.0126,73.0126,74.2455,right,0,1.2212,,74.2455,75.2457,0,5,5,9,1,total,1,images/Ex10.jpg,left,training,hard,3,,,,,
,,,,,5a31373183019b00012f6322,001,40,female,english,high school,2024-03-06_14h32.25.575,CRL1h,2023.2.3,Win32,60.24096386,65e67470ae2fbf2172c317b2,65e87e4ce20711f8bf42deb8,,,,,,,,,,,75.246,0.6,75.8456,75.8456,78.3288,right,1,2.4724,,78.3289,79.3289,0,6,6,15,1,total,1,images/Ex16.jpg,right,training,hard,3,,,,,
,,,,,5a31373183019b00012f6322,001,40,female,english,high school,2024-03-06_14h32.25.575,CRL1h,2023.2.3,Win32,60.24096386,65e67470ae2fbf2172c317b2,65e87e4ce20711f8bf42deb8,,,,,,,,,,,79.3292,1.4,80.7285,80.7286,82.2791,left,0,1.5416,,82.2791,83.2793,0,7,7,4,1,total,1,images/Ex13.jpg,right,training,hard,3,,,,,
,,,,,5a31373183019b00012f6322,001,40,female,english,high school,2024-03-06_14h32.25.575,CRL1h,2023.2.3,Win32,60.24096386,65e67470ae2fbf2172c317b2,65e87e4ce20711f8bf42deb8,,,,,,,,,,,83.2795,0.5,83.7794,83.7795,84.9294,left,1,1.1449,,84.9294,85.9292,0,8,8,1,1,total,1,images/Ex10.jpg,left,training,hard,3,,,,,
,,,,,5a31373183019b00012f6322,001,40,female,english,high school,2024-03-06_14h32.25.575,CRL1h,2023.2.3,Win32,60.24096386,65e67470ae2fbf2172c317b2,65e87e4ce20711f8bf42deb8,,,,,,,,,,,85.9296,0.7,86.6302,86.6302,87.5963,right,0,0.9577,,87.5963,88.5967,0,9,9,2,1,total,1,images/Ex11.jpg,left,training,hard,3,,,,,
,,,,,5a31373183019b00012f6322,001,40,female,english,high school,2024-03-06_14h32.25.575,CRL1h,2023.2.3,Win32,60.24096386,65e67470ae2fbf2172c317b2,65e87e4ce20711f8bf42deb8,,,,,,,,,,,88.5971,1,89.5965,89.5966,90.9468,right,1,1.3458,,90.9469,91.9461,0,10,10,13,1,total,1,images/Ex14.jpg,right,training,hard,3,,,,,
,,,,,5a31373183019b00012f6322,001,40,female,english,high school,2024-03-06_14h32.25.575,CRL1h,2023.2.3,Win32,60.24096386,65e67470ae2fbf2172c317b2,65e87e4ce20711f8bf42deb8,,,,,,,,,,,91.9465,0.9,92.847,92.847,94.3463,right,0,1.4914,,94.3463,95.3464,0,11,11,0,1,total,1,images/Ex9.jpg,left,training,hard,3,,,,,
,,,,,5a31373183019b00012f6322,001,40,female,english,high school,2024-03-06_14h32.25.575,CRL1h,2023.2.3,Win32,60.24096386,65e67470ae2fbf2172c317b2,65e87e4ce20711f8bf42deb8,,,,,,,,,,,95.3467,1.3,96.6472,96.6472,98.9303,right,0,2.2751,,98.9304,99.93,0,12,12,11,1,total,1,images/Ex12.jpg,left,training,hard,3,,,,,
,,,,,5a31373183019b00012f6322,001,40,female,english,high school,2024-03-06_14h32.25.575,CRL1h,2023.2.3,Win32,60.24096386,65e67470ae2fbf2172c317b2,65e87e4ce20711f8bf42deb8,,,,,,,,,,,99.9381,0.8,100.7303,100.7304,102.38,left,0,1.6379,,102.38,103.3805,0,13,13,14,1,total,1,images/Ex15.jpg,right,training,hard,3,,,,,
,,,,,5a31373183019b00012f6322,001,40,female,english,high school,2024-03-06_14h32.25.575,CRL1h,2023.2.3,Win32,60.24096386,65e67470ae2fbf2172c317b2,65e87e4ce20711f8bf42deb8,,,,,,,,,,,103.3812,0.8,104.1806,104.1808,105.4973,right,0,1.3071,,105.4973,106.4967,0,14,14,8,1,total,1,images/Ex9.jpg,left,training,hard,3,,,,,
,,,,,5a31373183019b00012f6322,001,40,female,english,high school,2024-03-06_14h32.25.575,CRL1h,2023.2.3,Win32,60.24096386,65e67470ae2fbf2172c317b2,65e87e4ce20711f8bf42deb8,,,,,,,,,,,106.4971,1.2,107.6981,107.6981,108.8965,right,1,1.1863,,108.8966,109.8974,0,15,15,5,1,total,1,images/Ex14.jpg,right,training,hard,3,,,,,
,,,,,5a31373183019b00012f6322,001,40,female,english,high school,2024-03-06_14h32.25.575,CRL1h,2023.2.3,Win32,60.24096386,65e67470ae2fbf2172c317b2,65e87e4ce20711f8bf42deb8,,,,,,,,,,,109.8979,0.8,110.6978,110.6978,111.3806,right,1,0.681,,111.3806,112.381,1,0,16,13,1,total,1,images/Ex14.jpg,right,training,hard,3,,,,,
,,,,,5a31373183019b00012f6322,001,40,female,english,high school,2024-03-06_14h32.25.575,CRL1h,2023.2.3,Win32,60.24096386,65e67470ae2fbf2172c317b2,65e87e4ce20711f8bf42deb8,,,,,,,,,,,112.3814,0.5,112.881,112.8811,114.5483,left,1,1.6635,,114.5483,115.5479,1,1,17,8,1,total,1,images/Ex9.jpg,left,training,hard,3,,,,,
,,,,,5a31373183019b00012f6322,001,40,female,english,high school,2024-03-06_14h32.25.575,CRL1h,2023.2.3,Win32,60.24096386,65e67470ae2fbf2172c317b2,65e87e4ce20711f8bf42deb8,,,,,,,,,,,115.5545,0.8,116.3481,116.3481,117.7478,left,0,1.3934,,117.7478,118.7482,1,2,18,15,1,total,1,images/Ex16.jpg,right,training,hard,3,,,,,
,,,,,5a31373183019b00012f6322,001,40,female,english,high school,2024-03-06_14h32.25.575,CRL1h,2023.2.3,Win32,60.24096386,65e67470ae2fbf2172c317b2,65e87e4ce20711f8bf42deb8,,,,,,,,,,,118.7486,1.4,120.1489,120.1489,121.4316,left,1,1.2792,,121.4317,122.4319,1,3,19,9,1,total,1,images/Ex10.jpg,left,training,hard,3,,,,,
,,,,,5a31373183019b00012f6322,001,40,female,english,high school,2024-03-06_14h32.25.575,CRL1h,2023.2.3,Win32,60.24096386,65e67470ae2fbf2172c317b2,65e87e4ce20711f8bf42deb8,,,,,,,,,,,122.4323,1,123.4315,123.4315,124.5816,right,1,1.1417,,124.5816,125.582,1,4,20,12,1,total,1,images/Ex13.jpg,right,training,hard,3,,,,,
,,,,,5a31373183019b00012f6322,001,40,female,english,high school,2024-03-06_14h32.25.575,CRL1h,2023.2.3,Win32,60.24096386,65e67470ae2fbf2172c317b2,65e87e4ce20711f8bf42deb8,,,,,,,,,,,125.5907,0.9,126.4816,126.4816,127.4155,right,1,0.925,,127.4155,128.4153,1,5,21,5,1,total,1,images/Ex14.jpg,right,training,hard,3,,,,,
,,,,,5a31373183019b00012f6322,001,40,female,english,high school,2024-03-06_14h32.25.575,CRL1h,2023.2.3,Win32,60.24096386,65e67470ae2fbf2172c317b2,65e87e4ce20711f8bf42deb8,,,,,,,,,,,128.4157,1.3,129.7154,129.7154,130.9482,left,1,1.2278,,130.9483,131.949,1,6,22,3,1,total,1,images/Ex12.jpg,left,training,hard,3,,,,,
,,,,,5a31373183019b00012f6322,001,40,female,english,high school,2024-03-06_14h32.25.575,CRL1h,2023.2.3,Win32,60.24096386,65e67470ae2fbf2172c317b2,65e87e4ce20711f8bf42deb8,,,,,,,,,,,131.9494,0.8,132.7491,132.7491,134.3826,right,1,1.6229,,134.3826,135.3825,1,7,23,7,1,total,1,images/Ex16.jpg,right,training,hard,3,,,,,
,,,,,5a31373183019b00012f6322,001,40,female,english,high school,2024-03-06_14h32.25.575,CRL1h,2023.2.3,Win32,60.24096386,65e67470ae2fbf2172c317b2,65e87e4ce20711f8bf42deb8,,,,,,,,,,,135.383,0.7,136.0825,136.0826,137.5328,left,1,1.4392,,137.5328,138.5325,1,8,24,2,1,total,1,images/Ex11.jpg,left,training,hard,3,,,,,
,,,,,5a31373183019b00012f6322,001,40,female,english,high school,2024-03-06_14h32.25.575,CRL1h,2023.2.3,Win32,60.24096386,65e67470ae2fbf2172c317b2,65e87e4ce20711f8bf42deb8,,,,,,,,,,,138.5329,1.3,139.8324,139.8324,140.8492,left,1,1.0138,,140.8492,141.8495,1,9,25,10,1,total,1,images/Ex11.jpg,left,training,hard,3,,,,,
,,,,,5a31373183019b00012f6322,001,40,female,english,high school,2024-03-06_14h32.25.575,CRL1h,2023.2.3,Win32,60.24096386,65e67470ae2fbf2172c317b2,65e87e4ce20711f8bf42deb8,,,,,,,,,,,141.8499,0.9,142.7494,142.7494,143.7158,right,0,0.9608,,143.7158,144.7165,1,10,26,11,1,total,1,images/Ex12.jpg,left,training,hard,3,,,,,
,,,,,5a31373183019b00012f6322,001,40,female,english,high school,2024-03-06_14h32.25.575,CRL1h,2023.2.3,Win32,60.24096386,65e67470ae2fbf2172c317b2,65e87e4ce20711f8bf42deb8,,,,,,,,,,,144.7168,1.1,145.8162,145.8162,147.199,right,0,1.382,,147.199,148.1996,1,11,27,1,1,total,1,images/Ex10.jpg,left,training,hard,3,,,,,
,,,,,5a31373183019b00012f6322,001,40,female,english,high school,2024-03-06_14h32.25.575,CRL1h,2023.2.3,Win32,60.24096386,65e67470ae2fbf2172c317b2,65e87e4ce20711f8bf42deb8,,,,,,,,,,,148.1999,1.5,149.6992,149.6992,150.7665,left,1,1.0628,,150.7665,151.7666,1,12,28,0,1,total,1,images/Ex9.jpg,left,training,hard,3,,,,,
,,,,,5a31373183019b00012f6322,001,40,female,english,high school,2024-03-06_14h32.25.575,CRL1h,2023.2.3,Win32,60.24096386,65e67470ae2fbf2172c317b2,65e87e4ce20711f8bf42deb8,,,,,,,,,,,151.767,1.4,153.1667,153.1667,154.4004,right,1,1.225,,154.4004,155.4005,1,13,29,6,1,total,1,images/Ex15.jpg,right,training,hard,3,,,,,
,,,,,5a31373183019b00012f6322,001,40,female,english,high school,2024-03-06_14h32.25.575,CRL1h,2023.2.3,Win32,60.24096386,65e67470ae2fbf2172c317b2,65e87e4ce20711f8bf42deb8,,,,,,,,,,,155.4008,0.5,155.9005,155.9005,156.4667,right,1,0.5627,,156.4667,157.4668,1,14,30,14,1,total,1,images/Ex15.jpg,right,training,hard,3,,,,,
,,,,,5a31373183019b00012f6322,001,40,female,english,high school,2024-03-06_14h32.25.575,CRL1h,2023.2.3,Win32,60.24096386,65e67470ae2fbf2172c317b2,65e87e4ce20711f8bf42deb8,,,,,,,,,,,157.467,1.4,158.8667,158.8667,159.9335,left,0,1.0635,,159.9336,160.934,1,15,31,4,1,total,1,images/Ex13.jpg,right,training,hard,3,,,,,
,,,,,5a31373183019b00012f6322,001,40,female,english,high school,2024-03-06_14h32.25.575,CRL1h,2023.2.3,Win32,60.24096386,65e67470ae2fbf2172c317b2,65e87e4ce20711f8bf42deb8,,,,,,,,,,,160.9344,0.6,161.5335,161.5335,163.0009,right,0,1.4617,,163.0009,164.0005,2,0,32,11,1,total,1,images/Ex12.jpg,left,training,hard,3,,,,,
,,,,,5a31373183019b00012f6322,001,40,female,english,high school,2024-03-06_14h32.25.575,CRL1h,2023.2.3,Win32,60.24096386,65e67470ae2fbf2172c317b2,65e87e4ce20711f8bf42deb8,,,,,,,,,,,164.0069,1.3,165.3006,165.3007,166.4838,right,0,1.1752,,166.4838,167.4845,2,1,33,0,1,total,1,images/Ex9.jpg,left,training,hard,3,,,,,
,,,,,5a31373183019b00012f6322,001,40,female,english,high school,2024-03-06_14h32.25.575,CRL1h,2023.2.3,Win32,60.24096386,65e67470ae2fbf2172c317b2,65e87e4ce20711f8bf42deb8,,,,,,,,,,,167.4848,1.3,168.7854,168.7854,169.5842,left,1,0.7878,,169.5842,170.584,2,2,34,9,1,total,1,images/Ex10.jpg,left,training,hard,3,,,,,
,,,,,5a31373183019b00012f6322,001,40,female,english,high school,2024-03-06_14h32.25.575,CRL1h,2023.2.3,Win32,60.24096386,65e67470ae2fbf2172c317b2,65e87e4ce20711f8bf42deb8,,,,,,,,,,,170.5844,0.7,171.2841,171.2842,172.3013,left,0,1.0094,,172.3013,173.3011,2,3,35,15,1,total,1,images/Ex16.jpg,right,training,hard,3,,,,,
,,,,,5a31373183019b00012f6322,001,40,female,english,high school,2024-03-06_14h32.25.575,CRL1h,2023.2.3,Win32,60.24096386,65e67470ae2fbf2172c317b2,65e87e4ce20711f8bf42deb8,,,,,,,,,,,173.3014,0.5,173.801,173.801,174.9346,right,0,1.1224,,174.9346,175.9345,2,4,36,10,1,total,1,images/Ex11.jpg,left,training,hard,3,,,,,
,,,,,5a31373183019b00012f6322,001,40,female,english,high school,2024-03-06_14h32.25.575,CRL1h,2023.2.3,Win32,60.24096386,65e67470ae2fbf2172c317b2,65e87e4ce20711f8bf42deb8,,,,,,,,,,,175.935,0.6,176.5347,176.5347,177.6181,right,1,1.0774,,177.6181,178.6186,2,5,37,7,1,total,1,images/Ex16.jpg,right,training,hard,3,,,,,
,,,,,5a31373183019b00012f6322,001,40,female,english,high school,2024-03-06_14h32.25.575,CRL1h,2023.2.3,Win32,60.24096386,65e67470ae2fbf2172c317b2,65e87e4ce20711f8bf42deb8,,,,,,,,,,,178.6189,0.5,179.1177,179.1177,179.9518,right,1,0.8308,,179.9518,180.9524,2,6,38,5,1,total,1,images/Ex14.jpg,right,training,hard,3,,,,,
,,,,,5a31373183019b00012f6322,001,40,female,english,high school,2024-03-06_14h32.25.575,CRL1h,2023.2.3,Win32,60.24096386,65e67470ae2fbf2172c317b2,65e87e4ce20711f8bf42deb8,,,,,,,,,,,180.9528,0.6,181.5518,181.5518,182.4357,left,1,0.8775,,182.4357,183.4343,2,7,39,2,1,total,1,images/Ex11.jpg,left,training,hard,3,,,,,
,,,,,5a31373183019b00012f6322,001,40,female,english,high school,2024-03-06_14h32.25.575,CRL1h,2023.2.3,Win32,60.24096386,65e67470ae2fbf2172c317b2,65e87e4ce20711f8bf42deb8,,,,,,,,,,,183.4346,1.2,184.6354,184.6354,185.6186,left,0,0.9804,,185.6186,186.6193,2,8,40,4,1,total,1,images/Ex13.jpg,right,training,hard,3,,,,,
,,,,,5a31373183019b00012f6322,001,40,female,english,high school,2024-03-06_14h32.25.575,CRL1h,2023.2.3,Win32,60.24096386,65e67470ae2fbf2172c317b2,65e87e4ce20711f8bf42deb8,,,,,,,,,,,186.6196,0.9,187.519,187.519,188.4689,right,1,0.9423,,188.4689,189.4684,2,9,41,13,1,total,1,images/Ex14.jpg,right,training,hard,3,,,,,
,,,,,5a31373183019b00012f6322,001,40,female,english,high school,2024-03-06_14h32.25.575,CRL1h,2023.2.3,Win32,60.24096386,65e67470ae2fbf2172c317b2,65e87e4ce20711f8bf42deb8,,,,,,,,,,,189.4687,1.1,190.5691,190.5691,191.619,left,1,1.0394,,191.6191,192.6187,2,10,42,3,1,total,1,images/Ex12.jpg,left,training,hard,3,,,,,
,,,,,5a31373183019b00012f6322,001,40,female,english,high school,2024-03-06_14h32.25.575,CRL1h,2023.2.3,Win32,60.24096386,65e67470ae2fbf2172c317b2,65e87e4ce20711f8bf42deb8,,,,,,,,,,,192.6191,1.3,193.9193,193.9193,195.6693,left,0,1.7393,,195.6693,196.6687,2,11,43,14,1,total,1,images/Ex15.jpg,right,training,hard,3,,,,,
,,,,,5a31373183019b00012f6322,001,40,female,english,high school,2024-03-06_14h32.25.575,CRL1h,2023.2.3,Win32,60.24096386,65e67470ae2fbf2172c317b2,65e87e4ce20711f8bf42deb8,,,,,,,,,,,196.6692,1.1,197.7688,197.7688,198.6186,right,0,0.8408,,198.6187,199.6193,2,12,44,1,1,total,1,images/Ex10.jpg,left,training,hard,3,,,,,
,,,,,5a31373183019b00012f6322,001,40,female,english,high school,2024-03-06_14h32.25.575,CRL1h,2023.2.3,Win32,60.24096386,65e67470ae2fbf2172c317b2,65e87e4ce20711f8bf42deb8,,,,,,,,,,,199.6197,0.7,200.3191,200.3191,201.5362,right,0,1.2084,,201.5362,202.536,2,13,45,8,1,total,1,images/Ex9.jpg,left,training,hard,3,,,,,
,,,,,5a31373183019b00012f6322,001,40,female,english,high school,2024-03-06_14h32.25.575,CRL1h,2023.2.3,Win32,60.24096386,65e67470ae2fbf2172c317b2,65e87e4ce20711f8bf42deb8,,,,,,,,,,,202.5363,1.4,203.9361,203.9361,204.6697,left,0,0.7219,,204.6697,205.6697,2,14,46,12,1,total,1,images/Ex13.jpg,right,training,hard,3,,,,,
,,,,,5a31373183019b00012f6322,001,40,female,english,high school,2024-03-06_14h32.25.575,CRL1h,2023.2.3,Win32,60.24096386,65e67470ae2fbf2172c317b2,65e87e4ce20711f8bf42deb8,,,,,,,,,,,205.67,0.7,206.3698,206.3698,207.9032,right,1,1.5233,,207.9032,208.9033,2,15,47,6,1,total,1,images/Ex15.jpg,right,training,hard,3,,,,,
,,,,,5a31373183019b00012f6322,001,40,female,english,high school,2024-03-06_14h32.25.575,CRL1h,2023.2.3,Win32,60.24096386,65e67470ae2fbf2172c317b2,65e87e4ce20711f8bf42deb8,,,,,,,,,,,208.9039,1.5,210.4034,210.4036,211.6532,left,1,1.2406,,211.6532,212.6536,3,0,48,9,1,total,1,images/Ex10.jpg,left,training,hard,3,,,,,
,,,,,5a31373183019b00012f6322,001,40,female,english,high school,2024-03-06_14h32.25.575,CRL1h,2023.2.3,Win32,60.24096386,65e67470ae2fbf2172c317b2,65e87e4ce20711f8bf42deb8,,,,,,,,,,,212.6539,1.2,213.8539,213.8539,215.0037,right,0,1.1429,,215.0037,216.0036,3,1,49,11,1,total,1,images/Ex12.jpg,left,training,hard,3,,,,,
,,,,,5a31373183019b00012f6322,001,40,female,english,high school,2024-03-06_14h32.25.575,CRL1h,2023.2.3,Win32,60.24096386,65e67470ae2fbf2172c317b2,65e87e4ce20711f8bf42deb8,,,,,,,,,,,216.004,0.6,216.6032,216.6032,217.7201,left,1,1.1073,,217.7201,218.7207,3,2,50,1,1,total,1,images/Ex10.jpg,left,training,hard,3,,,,,
,,,,,5a31373183019b00012f6322,001,40,female,english,high school,2024-03-06_14h32.25.575,CRL1h,2023.2.3,Win32,60.24096386,65e67470ae2fbf2172c317b2,65e87e4ce20711f8bf42deb8,,,,,,,,,,,218.7211,1.4,220.1205,220.1206,221.2042,right,0,1.0816,,221.2042,222.2044,3,3,51,2,1,total,1,images/Ex11.jpg,left,training,hard,3,,,,,
,,,,,5a31373183019b00012f6322,001,40,female,english,high school,2024-03-06_14h32.25.575,CRL1h,2023.2.3,Win32,60.24096386,65e67470ae2fbf2172c317b2,65e87e4ce20711f8bf42deb8,,,,,,,,,,,222.2049,0.9,223.1042,223.1042,224.154,right,1,1.045,,224.154,225.1539,3,4,52,15,1,total,1,images/Ex16.jpg,right,training,hard,3,,,,,
,,,,,5a31373183019b00012f6322,001,40,female,english,high school,2024-03-06_14h32.25.575,CRL1h,2023.2.3,Win32,60.24096386,65e67470ae2fbf2172c317b2,65e87e4ce20711f8bf42deb8,,,,,,,,,,,225.1543,0.6,225.754,225.7541,226.5544,left,1,0.7893,,226.5545,227.5547,3,5,53,8,1,total,1,images/Ex9.jpg,left,training,hard,3,,,,,
,,,,,5a31373183019b00012f6322,001,40,female,english,high school,2024-03-06_14h32.25.575,CRL1h,2023.2.3,Win32,60.24096386,65e67470ae2fbf2172c317b2,65e87e4ce20711f8bf42deb8,,,,,,,,,,,227.5551,1.3,228.8543,228.8544,230.2873,right,0,1.4282,,230.2873,231.2874,3,6,54,3,1,total,1,images/Ex12.jpg,left,training,hard,3,,,,,
,,,,,5a31373183019b00012f6322,001,40,female,english,high school,2024-03-06_14h32.25.575,CRL1h,2023.2.3,Win32,60.24096386,65e67470ae2fbf2172c317b2,65e87e4ce20711f8bf42deb8,,,,,,,,,,,231.2878,0.6,231.8878,231.8878,233.1379,left,1,1.2398,,233.1379,234.1383,3,7,55,0,1,total,1,images/Ex9.jpg,left,training,hard,3,,,,,
,,,,,5a31373183019b00012f6322,001,40,female,english,high school,2024-03-06_14h32.25.575,CRL1h,2023.2.3,Win32,60.24096386,65e67470ae2fbf2172c317b2,65e87e4ce20711f8bf42deb8,,,,,,,,,,,234.1386,0.6,234.7377,234.7378,235.6384,left,0,0.8921,,235.6384,236.6378,3,8,56,4,1,total,1,images/Ex13.jpg,right,training,hard,3,,,,,
,,,,,5a31373183019b00012f6322,001,40,female,english,high school,2024-03-06_14h32.25.575,CRL1h,2023.2.3,Win32,60.24096386,65e67470ae2fbf2172c317b2,65e87e4ce20711f8bf42deb8,,,,,,,,,,,236.6381,1,237.6381,237.6381,238.3045,right,1,0.6566,,238.3045,239.3048,3,9,57,12,1,total,1,images/Ex13.jpg,right,training,hard,3,,,,,
,,,,,5a31373183019b00012f6322,001,40,female,english,high school,2024-03-06_14h32.25.575,CRL1h,2023.2.3,Win32,60.24096386,65e67470ae2fbf2172c317b2,65e87e4ce20711f8bf42deb8,,,,,,,,,,,239.3051,0.8,240.105,240.105,241.1385,right,1,1.0228,,241.1386,242.1387,3,10,58,13,1,total,1,images/Ex14.jpg,right,training,hard,3,,,,,
,,,,,5a31373183019b00012f6322,001,40,female,english,high school,2024-03-06_14h32.25.575,CRL1h,2023.2.3,Win32,60.24096386,65e67470ae2fbf2172c317b2,65e87e4ce20711f8bf42deb8,,,,,,,,,,,242.1391,0.6,242.7387,242.7387,243.6545,right,1,0.903,,243.6545,244.6552,3,11,59,14,1,total,1,images/Ex15.jpg,right,training,hard,3,,,,,
,,,,,5a31373183019b00012f6322,001,40,female,english,high school,2024-03-06_14h32.25.575,CRL1h,2023.2.3,Win32,60.24096386,65e67470ae2fbf2172c317b2,65e87e4ce20711f8bf42deb8,,,,,,,,,,,244.6555,1.2,245.8546,245.8547,246.8717,left,0,1.0081,,246.8717,247.8712,3,12,60,5,1,total,1,images/Ex14.jpg,right,training,hard,3,,,,,
,,,,,5a31373183019b00012f6322,001,40,female,english,high school,2024-03-06_14h32.25.575,CRL1h,2023.2.3,Win32,60.24096386,65e67470ae2fbf2172c317b2,65e87e4ce20711f8bf42deb8,,,,,,,,,,,247.8716,0.9,248.7728,248.7728,249.8566,right,0,1.0804,,249.8566,250.8556,3,13,61,10,1,total,1,images/Ex11.jpg,left,training,hard,3,,,,,
,,,,,5a31373183019b00012f6322,001,40,female,english,high school,2024-03-06_14h32.25.575,CRL1h,2023.2.3,Win32,60.24096386,65e67470ae2fbf2172c317b2,65e87e4ce20711f8bf42deb8,,,,,,,,,,,250.8559,1,251.8556,251.8556,252.8224,right,1,0.9593,,252.8224,253.8218,3,14,62,7,1,total,1,images/Ex16.jpg,right,training,hard,3,,,,,
,,,,,5a31373183019b00012f6322,001,40,female,english,high school,2024-03-06_14h32.25.575,CRL1h,2023.2.3,Win32,60.24096386,65e67470ae2fbf2172c317b2,65e87e4ce20711f8bf42deb8,,,,,,,,,,,253.8222,1.2,255.0228,255.0228,255.9891,left,0,0.9551,,255.9891,256.9883,3,15,63,6,1,total,1,images/Ex15.jpg,right,training,hard,3,,,,,
,,,,,5a31373183019b00012f6322,001,40,female,english,high school,2024-03-06_14h32.25.575,CRL1h,2023.2.3,Win32,60.24096386,65e67470ae2fbf2172c317b2,65e87e4ce20711f8bf42deb8,,,,,,,,,,,256.9886,1.3,258.2886,258.2887,259.6561,right,1,1.3585,,259.6562,260.6556,4,0,64,12,1,total,1,images/Ex13.jpg,right,training,hard,3,,,,,
,,,,,5a31373183019b00012f6322,001,40,female,english,high school,2024-03-06_14h32.25.575,CRL1h,2023.2.3,Win32,60.24096386,65e67470ae2fbf2172c317b2,65e87e4ce20711f8bf42deb8,,,,,,,,,,,260.6561,0.6,261.2563,261.2563,261.8395,right,0,0.5773,,261.8396,262.8403,4,1,65,8,1,total,1,images/Ex9.jpg,left,training,hard,3,,,,,
,,,,,5a31373183019b00012f6322,001,40,female,english,high school,2024-03-06_14h32.25.575,CRL1h,2023.2.3,Win32,60.24096386,65e67470ae2fbf2172c317b2,65e87e4ce20711f8bf42deb8,,,,,,,,,,,262.8408,0.8,263.639,263.639,264.8899,right,1,1.2408,,264.8899,265.89,4,2,66,5,1,total,1,images/Ex14.jpg,right,training,hard,3,,,,,
,,,,,5a31373183019b00012f6322,001,40,female,english,high school,2024-03-06_14h32.25.575,CRL1h,2023.2.3,Win32,60.24096386,65e67470ae2fbf2172c317b2,65e87e4ce20711f8bf42deb8,,,,,,,,,,,265.8904,1.4,267.2902,267.2903,267.8401,right,1,0.5431,,267.8401,268.8399,4,3,67,13,1,total,1,images/Ex14.jpg,right,training,hard,3,,,,,
,,,,,5a31373183019b00012f6322,001,40,female,english,high school,2024-03-06_14h32.25.575,CRL1h,2023.2.3,Win32,60.24096386,65e67470ae2fbf2172c317b2,65e87e4ce20711f8bf42deb8,,,,,,,,,,,268.8401,1,269.8396,269.8397,270.6233,left,1,0.7742,,270.6233,271.6232,4,4,68,2,1,total,1,images/Ex11.jpg,left,training,hard,3,,,,,
,,,,,5a31373183019b00012f6322,001,40,female,english,high school,2024-03-06_14h32.25.575,CRL1h,2023.2.3,Win32,60.24096386,65e67470ae2fbf2172c317b2,65e87e4ce20711f8bf42deb8,,,,,,,,,,,271.6234,1.5,273.1235,273.1236,273.9233,left,0,0.791,,273.9234,274.9236,4,5,69,6,1,total,1,images/Ex15.jpg,right,training,hard,3,,,,,
,,,,,5a31373183019b00012f6322,001,40,female,english,high school,2024-03-06_14h32.25.575,CRL1h,2023.2.3,Win32,60.24096386,65e67470ae2fbf2172c317b2,65e87e4ce20711f8bf42deb8,,,,,,,,,,,274.9239,0.9,275.8237,275.8237,276.8065,right,0,0.9754,,276.8065,277.8069,4,6,70,11,1,total,1,images/Ex12.jpg,left,training,hard,3,,,,,
,,,,,5a31373183019b00012f6322,001,40,female,english,high school,2024-03-06_14h32.25.575,CRL1h,2023.2.3,Win32,60.24096386,65e67470ae2fbf2172c317b2,65e87e4ce20711f8bf42deb8,,,,,,,,,,,277.8072,0.9,278.7075,278.7075,279.3908,right,0,0.6717,,279.3909,280.3906,4,7,71,0,1,total,1,images/Ex9.jpg,left,training,hard,3,,,,,
,,,,,5a31373183019b00012f6322,001,40,female,english,high school,2024-03-06_14h32.25.575,CRL1h,2023.2.3,Win32,60.24096386,65e67470ae2fbf2172c317b2,65e87e4ce20711f8bf42deb8,,,,,,,,,,,280.3909,0.6,280.9907,280.9907,282.3586,left,1,1.3598,,282.3587,283.3572,4,8,72,10,1,total,1,images/Ex11.jpg,left,training,hard,3,,,,,
,,,,,5a31373183019b00012f6322,001,40,female,english,high school,2024-03-06_14h32.25.575,CRL1h,2023.2.3,Win32,60.24096386,65e67470ae2fbf2172c317b2,65e87e4ce20711f8bf42deb8,,,,,,,,,,,283.3577,1.4,284.7576,284.7576,286.0242,left,1,1.2572,,286.0242,287.024,4,9,73,3,1,total,1,images/Ex12.jpg,left,training,hard,3,,,,,
,,,,,5a31373183019b00012f6322,001,40,female,english,high school,2024-03-06_14h32.25.575,CRL1h,2023.2.3,Win32,60.24096386,65e67470ae2fbf2172c317b2,65e87e4ce20711f8bf42deb8,,,,,,,,,,,287.0243,0.6,287.6244,287.6244,288.7077,left,0,1.0817,,288.7077,289.7077,4,10,74,14,1,total,1,images/Ex15.jpg,right,training,hard,3,,,,,
,,,,,5a31373183019b00012f6322,001,40,female,english,high school,2024-03-06_14h32.25.575,CRL1h,2023.2.3,Win32,60.24096386,65e67470ae2fbf2172c317b2,65e87e4ce20711f8bf42deb8,,,,,,,,,,,289.708,0.8,290.5082,290.5082,291.741,right,1,1.2245,,291.741,292.7417,4,11,75,15,1,total,1,images/Ex16.jpg,right,training,hard,3,,,,,
,,,,,5a31373183019b00012f6322,001,40,female,english,high school,2024-03-06_14h32.25.575,CRL1h,2023.2.3,Win32,60.24096386,65e67470ae2fbf2172c317b2,65e87e4ce20711f8bf42deb8,,,,,,,,,,,292.742,0.8,293.5414,293.5415,294.308,left,0,0.7627,,294.308,295.3081,4,12,76,4,1,total,1,images/Ex13.jpg,right,training,hard,3,,,,,
,,,,,5a31373183019b00012f6322,001,40,female,english,high school,2024-03-06_14h32.25.575,CRL1h,2023.2.3,Win32,60.24096386,65e67470ae2fbf2172c317b2,65e87e4ce20711f8bf42deb8,,,,,,,,,,,295.3084,1.1,296.408,296.4081,297.2249,right,1,0.8092,,297.2249,298.2251,4,13,77,7,1,total,1,images/Ex16.jpg,right,training,hard,3,,,,,
,,,,,5a31373183019b00012f6322,001,40,female,english,high school,2024-03-06_14h32.25.575,CRL1h,2023.2.3,Win32,60.24096386,65e67470ae2fbf2172c317b2,65e87e4ce20711f8bf42deb8,,,,,,,,,,,298.2255,1.2,299.425,299.425,300.641,right,0,1.2132,,300.6411,301.6416,4,14,78,9,1,total,1,images/Ex10.jpg,left,training,hard,3,,,,,
,,,,,5a31373183019b00012f6322,001,40,female,english,high school,2024-03-06_14h32.25.575,CRL1h,2023.2.3,Win32,60.24096386,65e67470ae2fbf2172c317b2,65e87e4ce20711f8bf42deb8,,,,,,,,,,,301.642,1.1,302.7415,302.7415,303.2806,left,1,0.5381,,303.2806,304.2753,4,15,79,1,1,total,1,images/Ex10.jpg,left,training,hard,3,,,,,
,,,,,5a31373183019b00012f6322,001,40,female,english,high school,2024-03-06_14h32.25.575,CRL1h,2023.2.3,Win32,60.24096386,65e67470ae2fbf2172c317b2,65e87e4ce20711f8bf42deb8,,,,,,,,,,,304.2759,1.2,305.4754,305.4755,306.359,left,0,0.875,,306.359,307.3582,5,0,80,13,1,total,1,images/Ex14.jpg,right,training,hard,3,,,,,
,,,,,5a31373183019b00012f6322,001,40,female,english,high school,2024-03-06_14h32.25.575,CRL1h,2023.2.3,Win32,60.24096386,65e67470ae2fbf2172c317b2,65e87e4ce20711f8bf42deb8,,,,,,,,,,,307.3586,0.8,308.1588,308.1588,309.1922,right,0,1.0299,,309.1923,310.1924,5,1,81,0,1,total,1,images/Ex9.jpg,left,training,hard,3,,,,,
,,,,,5a31373183019b00012f6322,001,40,female,english,high school,2024-03-06_14h32.25.575,CRL1h,2023.2.3,Win32,60.24096386,65e67470ae2fbf2172c317b2,65e87e4ce20711f8bf42deb8,,,,,,,,,,,310.1928,0.6,310.7922,310.7922,311.726,left,1,0.9236,,311.726,312.7257,5,2,82,1,1,total,1,images/Ex10.jpg,left,training,hard,3,,,,,
,,,,,5a31373183019b00012f6322,001,40,female,english,high school,2024-03-06_14h32.25.575,CRL1h,2023.2.3,Win32,60.24096386,65e67470ae2fbf2172c317b2,65e87e4ce20711f8bf42deb8,,,,,,,,,,,312.7261,0.9,313.6256,313.6257,314.5438,left,1,0.9062,,314.5438,315.5428,5,3,83,2,1,total,1,images/Ex11.jpg,left,training,hard,3,,,,,
,,,,,5a31373183019b00012f6322,001,40,female,english,high school,2024-03-06_14h32.25.575,CRL1h,2023.2.3,Win32,60.24096386,65e67470ae2fbf2172c317b2,65e87e4ce20711f8bf42deb8,,,,,,,,,,,315.5433,0.8,316.3428,316.3428,317.4762,left,1,1.1207,,317.4762,318.4759,5,4,84,9,1,total,1,images/Ex10.jpg,left,training,hard,3,,,,,
,,,,,5a31373183019b00012f6322,001,40,female,english,high school,2024-03-06_14h32.25.575,CRL1h,2023.2.3,Win32,60.24096386,65e67470ae2fbf2172c317b2,65e87e4ce20711f8bf42deb8,,,,,,,,,,,318.4763,0.8,319.2763,319.2764,320.2097,right,1,0.9215,,320.2097,321.209,5,5,85,15,1,total,1,images/Ex16.jpg,right,training,hard,3,,,,,
,,,,,5a31373183019b00012f6322,001,40,female,english,high school,2024-03-06_14h32.25.575,CRL1h,2023.2.3,Win32,60.24096386,65e67470ae2fbf2172c317b2,65e87e4ce20711f8bf42deb8,,,,,,,,,,,321.2093,0.6,321.8098,321.8098,322.9433,left,1,1.1245,,322.9434,323.9432,5,6,86,11,1,total,1,images/Ex12.jpg,left,training,hard,3,,,,,
,,,,,5a31373183019b00012f6322,001,40,female,english,high school,2024-03-06_14h32.25.575,CRL1h,2023.2.3,Win32,60.24096386,65e67470ae2fbf2172c317b2,65e87e4ce20711f8bf42deb8,,,,,,,,,,,323.9439,0.5,324.443,324.443,325.6264,right,0,1.1758,,325.6265,326.6269,5,7,87,10,1,total,1,images/Ex11.jpg,left,training,hard,3,,,,,
,,,,,5a31373183019b00012f6322,001,40,female,english,high school,2024-03-06_14h32.25.575,CRL1h,2023.2.3,Win32,60.24096386,65e67470ae2fbf2172c317b2,65e87e4ce20711f8bf42deb8,,,,,,,,,,,326.6276,1.1,327.7264,327.7264,328.8933,left,0,1.1571,,328.8933,329.8931,5,8,88,4,1,total,1,images/Ex13.jpg,right,training,hard,3,,,,,
,,,,,5a31373183019b00012f6322,001,40,female,english,high school,2024-03-06_14h32.25.575,CRL1h,2023.2.3,Win32,60.24096386,65e67470ae2fbf2172c317b2,65e87e4ce20711f8bf42deb8,,,,,,,,,,,329.8935,0.5,330.3935,330.3936,331.7271,left,0,1.3248,,331.7271,332.727,5,9,89,5,1,total,1,images/Ex14.jpg,right,training,hard,3,,,,,
,,,,,5a31373183019b00012f6322,001,40,female,english,high school,2024-03-06_14h32.25.575,CRL1h,2023.2.3,Win32,60.24096386,65e67470ae2fbf2172c317b2,65e87e4ce20711f8bf42deb8,,,,,,,,,,,332.7274,1.2,333.9268,333.9269,335.2111,right,1,1.2725,,335.2113,336.2104,5,10,90,14,1,total,1,images/Ex15.jpg,right,training,hard,3,,,,,
,,,,,5a31373183019b00012f6322,001,40,female,english,high school,2024-03-06_14h32.25.575,CRL1h,2023.2.3,Win32,60.24096386,65e67470ae2fbf2172c317b2,65e87e4ce20711f8bf42deb8,,,,,,,,,,,336.2173,1.5,337.7118,337.7119,338.5606,right,1,0.841,,338.5606,339.5611,5,11,91,6,1,total,1,images/Ex15.jpg,right,training,hard,3,,,,,
,,,,,5a31373183019b00012f6322,001,40,female,english,high school,2024-03-06_14h32.25.575,CRL1h,2023.2.3,Win32,60.24096386,65e67470ae2fbf2172c317b2,65e87e4ce20711f8bf42deb8,,,,,,,,,,,339.5621,1,340.5605,340.5606,341.4105,left,0,0.8407,,341.4105,342.4107,5,12,92,12,1,total,1,images/Ex13.jpg,right,training,hard,3,,,,,
,,,,,5a31373183019b00012f6322,001,40,female,english,high school,2024-03-06_14h32.25.575,CRL1h,2023.2.3,Win32,60.24096386,65e67470ae2fbf2172c317b2,65e87e4ce20711f8bf42deb8,,,,,,,,,,,342.4111,1.4,343.8107,343.8108,344.8778,left,1,1.0562,,344.8779,345.8778,5,13,93,8,1,total,1,images/Ex9.jpg,left,training,hard,3,,,,,
,,,,,5a31373183019b00012f6322,001,40,female,english,high school,2024-03-06_14h32.25.575,CRL1h,2023.2.3,Win32,60.24096386,65e67470ae2fbf2172c317b2,65e87e4ce20711f8bf42deb8,,,,,,,,,,,345.8782,0.6,346.4782,346.4782,347.5777,right,1,1.096,,347.5778,348.5775,5,14,94,7,1,total,1,images/Ex16.jpg,right,training,hard,3,,,,,
,,,,,5a31373183019b00012f6322,001,40,female,english,high school,2024-03-06_14h32.25.575,CRL1h,2023.2.3,Win32,60.24096386,65e67470ae2fbf2172c317b2,65e87e4ce20711f8bf42deb8,,,,,,,,,,,348.5782,0.8,349.3782,349.3782,350.8792,left,1,1.4976,,350.8794,351.8784,5,15,95,3,1,total,1,images/Ex12.jpg,left,training,hard,3,,,,,
,,,,,5a31373183019b00012f6322,001,40,female,english,high school,2024-03-06_14h32.25.575,CRL1h,2023.2.3,Win32,60.24096386,65e67470ae2fbf2172c317b2,65e87e4ce20711f8bf42deb8,,,,,,,,,,,351.8792,1.2,353.0784,353.0784,354.1446,right,0,1.0548,,354.1447,355.145,6,0,96,0,1,total,1,images/Ex9.jpg,left,training,hard,3,,,,,
,,,,,5a31373183019b00012f6322,001,40,female,english,high school,2024-03-06_14h32.25.575,CRL1h,2023.2.3,Win32,60.24096386,65e67470ae2fbf2172c317b2,65e87e4ce20711f8bf42deb8,,,,,,,,,,,355.1454,1.1,356.2451,356.2451,357.2617,left,1,1.0111,,357.2618,358.2618,6,1,97,3,1,total,1,images/Ex12.jpg,left,training,hard,3,,,,,
,,,,,5a31373183019b00012f6322,001,40,female,english,high school,2024-03-06_14h32.25.575,CRL1h,2023.2.3,Win32,60.24096386,65e67470ae2fbf2172c317b2,65e87e4ce20711f8bf42deb8,,,,,,,,,,,358.2622,0.6,358.8613,358.8613,359.378,left,1,0.5149,,359.378,360.3783,6,2,98,11,1,total,1,images/Ex12.jpg,left,training,hard,3,,,,,
,,,,,5a31373183019b00012f6322,001,40,female,english,high school,2024-03-06_14h32.25.575,CRL1h,2023.2.3,Win32,60.24096386,65e67470ae2fbf2172c317b2,65e87e4ce20711f8bf42deb8,,,,,,,,,,,360.3787,1.4,361.7785,361.7786,362.6791,right,1,0.8897,,362.6791,363.6791,6,3,99,12,1,total,1,images/Ex13.jpg,right,training,hard,3,,,,,
,,,,,5a31373183019b00012f6322,001,40,female,english,high school,2024-03-06_14h32.25.575,CRL1h,2023.2.3,Win32,60.24096386,65e67470ae2fbf2172c317b2,65e87e4ce20711f8bf42deb8,,,,,,,,,,,363.6798,0.9,364.5785,364.5786,366.1456,right,1,1.556,,366.1458,367.1346,6,4,100,5,1,total,1,images/Ex14.jpg,right,training,hard,3,,,,,
,,,,,5a31373183019b00012f6322,001,40,female,english,high school,2024-03-06_14h32.25.575,CRL1h,2023.2.3,Win32,60.24096386,65e67470ae2fbf2172c317b2,65e87e4ce20711f8bf42deb8,,,,,,,,,,,367.1351,1.3,368.4289,368.4289,369.379,left,0,0.9435,,369.3791,370.3794,6,5,101,6,1,total,1,images/Ex15.jpg,right,training,hard,3,,,,,
,,,,,5a31373183019b00012f6322,001,40,female,english,high school,2024-03-06_14h32.25.575,CRL1h,2023.2.3,Win32,60.24096386,65e67470ae2fbf2172c317b2,65e87e4ce20711f8bf42deb8,,,,,,,,,,,370.3797,1.1,371.4793,371.4793,373.196,right,0,1.7062,,373.1961,374.1961,6,6,102,9,1,total,1,images/Ex10.jpg,left,training,hard,3,,,,,
,,,,,5a31373183019b00012f6322,001,40,female,english,high school,2024-03-06_14h32.25.575,CRL1h,2023.2.3,Win32,60.24096386,65e67470ae2fbf2172c317b2,65e87e4ce20711f8bf42deb8,,,,,,,,,,,374.1964,1,375.1964,375.1964,375.9797,left,0,0.7753,,375.9797,376.9795,6,7,103,4,1,total,1,images/Ex13.jpg,right,training,hard,3,,,,,
,,,,,5a31373183019b00012f6322,001,40,female,english,high school,2024-03-06_14h32.25.575,CRL1h,2023.2.3,Win32,60.24096386,65e67470ae2fbf2172c317b2,65e87e4ce20711f8bf42deb8,,,,,,,,,,,376.98,0.9,377.8791,377.8791,378.7964,right,0,0.9058,,378.7964,379.796,6,8,104,10,1,total,1,images/Ex11.jpg,left,training,hard,3,,,,,
,,,,,5a31373183019b00012f6322,001,40,female,english,high school,2024-03-06_14h32.25.575,CRL1h,2023.2.3,Win32,60.24096386,65e67470ae2fbf2172c317b2,65e87e4ce20711f8bf42deb8,,,,,,,,,,,379.7964,1.3,381.0967,381.0967,382.9133,right,1,1.806,,382.9135,383.9135,6,9,105,15,1,total,1,images/Ex16.jpg,right,training,hard,3,,,,,
,,,,,5a31373183019b00012f6322,001,40,female,english,high school,2024-03-06_14h32.25.575,CRL1h,2023.2.3,Win32,60.24096386,65e67470ae2fbf2172c317b2,65e87e4ce20711f8bf42deb8,,,,,,,,,,,383.9145,1.3,385.2141,385.2142,386.03,left,0,0.8058,,386.03,387.0296,6,10,106,14,1,total,1,images/Ex15.jpg,right,training,hard,3,,,,,
,,,,,5a31373183019b00012f6322,001,40,female,english,high school,2024-03-06_14h32.25.575,CRL1h,2023.2.3,Win32,60.24096386,65e67470ae2fbf2172c317b2,65e87e4ce20711f8bf42deb8,,,,,,,,,,,387.0301,1.2,388.2302,388.2302,389.0465,right,0,0.8103,,389.0465,390.0472,6,11,107,8,1,total,1,images/Ex9.jpg,left,training,hard,3,,,,,
,,,,,5a31373183019b00012f6322,001,40,female,english,high school,2024-03-06_14h32.25.575,CRL1h,2023.2.3,Win32,60.24096386,65e67470ae2fbf2172c317b2,65e87e4ce20711f8bf42deb8,,,,,,,,,,,390.0479,1.1,391.147,391.147,392.0642,left,1,0.9078,,392.0642,393.064,6,12,108,1,1,total,1,images/Ex10.jpg,left,training,hard,3,,,,,
,,,,,5a31373183019b00012f6322,001,40,female,english,high school,2024-03-06_14h32.25.575,CRL1h,2023.2.3,Win32,60.24096386,65e67470ae2fbf2172c317b2,65e87e4ce20711f8bf42deb8,,,,,,,,,,,393.0644,1.1,394.1639,394.1639,395.4148,left,0,1.2436,,395.4149,396.4142,6,13,109,13,1,total,1,images/Ex14.jpg,right,training,hard,3,,,,,
,,,,,5a31373183019b00012f6322,001,40,female,english,high school,2024-03-06_14h32.25.575,CRL1h,2023.2.3,Win32,60.24096386,65e67470ae2fbf2172c317b2,65e87e4ce20711f8bf42deb8,,,,,,,,,,,396.4225,0.7,397.1142,397.1142,398.0528,right,1,0.9372,,398.0529,399.047,6,14,110,7,1,total,1,images/Ex16.jpg,right,training,hard,3,,,,,
,,,,,5a31373183019b00012f6322,001,40,female,english,high school,2024-03-06_14h32.25.575,CRL1h,2023.2.3,Win32,60.24096386,65e67470ae2fbf2172c317b2,65e87e4ce20711f8bf42deb8,,,,,,,,,,,399.0474,1.4,400.4475,400.4475,401.2986,right,0,0.8491,,401.2986,402.2972,6,15,111,2,1,total,1,images/Ex11.jpg,left,training,hard,3,,,,,
,,,,,5a31373183019b00012f6322,001,40,female,english,high school,2024-03-06_14h32.25.575,CRL1h,2023.2.3,Win32,60.24096386,65e67470ae2fbf2172c317b2,65e87e4ce20711f8bf42deb8,,,,,,,,,,,402.2976,1.3,403.5972,403.5972,404.6478,left,1,1.0409,,404.6479,405.6483,7,0,112,3,1,total,1,images/Ex12.jpg,left,training,hard,3,,,,,
,,,,,5a31373183019b00012f6322,001,40,female,english,high school,2024-03-06_14h32.25.575,CRL1h,2023.2.3,Win32,60.24096386,65e67470ae2fbf2172c317b2,65e87e4ce20711f8bf42deb8,,,,,,,,,,,405.649,1.2,406.8526,406.8526,407.9313,right,1,1.0689,,407.9313,408.9312,7,1,113,12,1,total,1,images/Ex13.jpg,right,training,hard,3,,,,,
,,,,,5a31373183019b00012f6322,001,40,female,english,high school,2024-03-06_14h32.25.575,CRL1h,2023.2.3,Win32,60.24096386,65e67470ae2fbf2172c317b2,65e87e4ce20711f8bf42deb8,,,,,,,,,,,408.9315,0.9,409.8198,409.8199,410.6646,left,1,0.8397,,410.6646,411.6647,7,2,114,11,1,total,1,images/Ex12.jpg,left,training,hard,3,,,,,
,,,,,5a31373183019b00012f6322,001,40,female,english,high school,2024-03-06_14h32.25.575,CRL1h,2023.2.3,Win32,60.24096386,65e67470ae2fbf2172c317b2,65e87e4ce20711f8bf42deb8,,,,,,,,,,,411.6651,1.3,412.9647,412.9648,414.0321,right,1,1.0599,,414.0322,415.0331,7,3,115,6,1,total,1,images/Ex15.jpg,right,training,hard,3,,,,,
,,,,,5a31373183019b00012f6322,001,40,female,english,high school,2024-03-06_14h32.25.575,CRL1h,2023.2.3,Win32,60.24096386,65e67470ae2fbf2172c317b2,65e87e4ce20711f8bf42deb8,,,,,,,,,,,415.0337,0.8,415.8321,415.8322,416.7986,left,1,0.9618,,416.7986,417.7984,7,4,116,9,1,total,1,images/Ex10.jpg,left,training,hard,3,,,,,
,,,,,5a31373183019b00012f6322,001,40,female,english,high school,2024-03-06_14h32.25.575,CRL1h,2023.2.3,Win32,60.24096386,65e67470ae2fbf2172c317b2,65e87e4ce20711f8bf42deb8,,,,,,,,,,,417.799,1,418.7989,418.7989,419.8485,right,0,1.0403,,419.8485,420.8486,7,5,117,10,1,total,1,images/Ex11.jpg,left,training,hard,3,,,,,
,,,,,5a31373183019b00012f6322,001,40,female,english,high school,2024-03-06_14h32.25.575,CRL1h,2023.2.3,Win32,60.24096386,65e67470ae2fbf2172c317b2,65e87e4ce20711f8bf42deb8,,,,,,,,,,,420.8491,1.3,422.1488,422.1489,423.5158,left,0,1.3567,,423.5159,424.5147,7,6,118,13,1,total,1,images/Ex14.jpg,right,training,hard,3,,,,,
,,,,,5a31373183019b00012f6322,001,40,female,english,high school,2024-03-06_14h32.25.575,CRL1h,2023.2.3,Win32,60.24096386,65e67470ae2fbf2172c317b2,65e87e4ce20711f8bf42deb8,,,,,,,,,,,424.521,1.3,425.8153,425.8153,426.3988,right,1,0.5722,,426.3988,427.3988,7,7,119,5,1,total,1,images/Ex14.jpg,right,training,hard,3,,,,,
,,,,,5a31373183019b00012f6322,001,40,female,english,high school,2024-03-06_14h32.25.575,CRL1h,2023.2.3,Win32,60.24096386,65e67470ae2fbf2172c317b2,65e87e4ce20711f8bf42deb8,,,,,,,,,,,427.3992,0.6,427.999,427.999,428.7326,left,1,0.7225,,428.7327,429.732,7,8,120,1,1,total,1,images/Ex10.jpg,left,training,hard,3,,,,,
,,,,,5a31373183019b00012f6322,001,40,female,english,high school,2024-03-06_14h32.25.575,CRL1h,2023.2.3,Win32,60.24096386,65e67470ae2fbf2172c317b2,65e87e4ce20711f8bf42deb8,,,,,,,,,,,429.7325,0.7,430.4322,430.4322,431.1821,left,0,0.7485,,431.1822,432.1823,7,9,121,4,1,total,1,images/Ex13.jpg,right,training,hard,3,,,,,
,,,,,5a31373183019b00012f6322,001,40,female,english,high school,2024-03-06_14h32.25.575,CRL1h,2023.2.3,Win32,60.24096386,65e67470ae2fbf2172c317b2,65e87e4ce20711f8bf42deb8,,,,,,,,,,,432.1826,1.2,433.3706,433.3706,434.0489,right,1,0.6732,,434.049,435.0493,7,10,122,14,1,total,1,images/Ex15.jpg,right,training,hard,3,,,,,
,,,,,5a31373183019b00012f6322,001,40,female,english,high school,2024-03-06_14h32.25.575,CRL1h,2023.2.3,Win32,60.24096386,65e67470ae2fbf2172c317b2,65e87e4ce20711f8bf42deb8,,,,,,,,,,,435.0496,1.1,436.1492,436.1492,436.8992,left,1,0.7434,,436.8993,437.8993,7,11,123,2,1,total,1,images/Ex11.jpg,left,training,hard,3,,,,,
,,,,,5a31373183019b00012f6322,001,40,female,english,high school,2024-03-06_14h32.25.575,CRL1h,2023.2.3,Win32,60.24096386,65e67470ae2fbf2172c317b2,65e87e4ce20711f8bf42deb8,,,,,,,,,,,437.8997,1.3,439.199,439.199,440.3052,right,1,1.1052,,440.3053,441.3046,7,12,124,15,1,total,1,images/Ex16.jpg,right,training,hard,3,,,,,
,,,,,5a31373183019b00012f6322,001,40,female,english,high school,2024-03-06_14h32.25.575,CRL1h,2023.2.3,Win32,60.24096386,65e67470ae2fbf2172c317b2,65e87e4ce20711f8bf42deb8,,,,,,,,,,,441.3049,0.5,441.7991,441.7991,442.5167,left,1,0.7146,,442.5167,443.5213,7,13,125,8,1,total,1,images/Ex9.jpg,left,training,hard,3,,,,,
,,,,,5a31373183019b00012f6322,001,40,female,english,high school,2024-03-06_14h32.25.575,CRL1h,2023.2.3,Win32,60.24096386,65e67470ae2fbf2172c317b2,65e87e4ce20711f8bf42deb8,,,,,,,,,,,443.5216,1.4,444.9166,444.9166,445.6331,left,1,0.7119,,445.6331,446.6383,7,14,126,0,1,total,1,images/Ex9.jpg,left,training,hard,3,,,,,
,,,,,5a31373183019b00012f6322,001,40,female,english,high school,2024-03-06_14h32.25.575,CRL1h,2023.2.3,Win32,60.24096386,65e67470ae2fbf2172c317b2,65e87e4ce20711f8bf42deb8,,,,,,,,,,,446.6386,1,447.6333,447.6333,448.4162,right,1,0.779,,448.4162,449.4164,7,15,127,7,1,total,1,images/Ex16.jpg,right,training,hard,3,,,,,
,,,,,5a31373183019b00012f6322,001,40,female,english,high school,2024-03-06_14h32.25.575,CRL1h,2023.2.3,Win32,60.24096386,65e67470ae2fbf2172c317b2,65e87e4ce20711f8bf42deb8,,,,,,,,,,,449.4209,1.1,450.5162,450.5162,451.2666,left,0,0.7491,,451.2666,452.2668,0,0,0,8,1,total,2,images/Ex9.jpg,right,reversed,hard,3,,,,,
,,,,,5a31373183019b00012f6322,001,40,female,english,high school,2024-03-06_14h32.25.575,CRL1h,2023.2.3,Win32,60.24096386,65e67470ae2fbf2172c317b2,65e87e4ce20711f8bf42deb8,,,,,,,,,,,452.2672,1.2,453.467,453.4671,454.2002,right,0,0.7252,,454.2002,455.204,0,1,1,7,1,total,2,images/Ex16.jpg,left,reversed,hard,3,,,,,
,,,,,5a31373183019b00012f6322,001,40,female,english,high school,2024-03-06_14h32.25.575,CRL1h,2023.2.3,Win32,60.24096386,65e67470ae2fbf2172c317b2,65e87e4ce20711f8bf42deb8,,,,,,,,,,,455.2045,1.2,456.4054,456.4054,457.3171,left,0,0.9064,,457.3172,458.3175,0,2,2,0,1,total,2,images/Ex9.jpg,right,reversed,hard,3,,,,,
,,,,,5a31373183019b00012f6322,001,40,female,english,high school,2024-03-06_14h32.25.575,CRL1h,2023.2.3,Win32,60.24096386,65e67470ae2fbf2172c317b2,65e87e4ce20711f8bf42deb8,,,,,,,,,,,458.3185,1.1,459.4174,459.4174,460.3677,right,1,0.9393,,460.3678,461.3674,0,3,3,10,1,total,2,images/Ex11.jpg,right,reversed,hard,3,,,,,
,,,,,5a31373183019b00012f6322,001,40,female,english,high school,2024-03-06_14h32.25.575,CRL1h,2023.2.3,Win32,60.24096386,65e67470ae2fbf2172c317b2,65e87e4ce20711f8bf42deb8,,,,,,,,,,,461.3681,1,462.367,462.367,463.017,left,1,0.6412,,463.0171,464.0174,0,4,4,12,1,total,2,images/Ex13.jpg,left,reversed,hard,3,,,,,
,,,,,5a31373183019b00012f6322,001,40,female,english,high school,2024-03-06_14h32.25.575,CRL1h,2023.2.3,Win32,60.24096386,65e67470ae2fbf2172c317b2,65e87e4ce20711f8bf42deb8,,,,,,,,,,,464.0178,0.5,464.5177,464.5177,465.6506,right,0,1.1258,,465.6506,466.6511,0,5,5,5,1,total,2,images/Ex14.jpg,left,reversed,hard,3,,,,,
,,,,,5a31373183019b00012f6322,001,40,female,english,high school,2024-03-06_14h32.25.575,CRL1h,2023.2.3,Win32,60.24096386,65e67470ae2fbf2172c317b2,65e87e4ce20711f8bf42deb8,,,,,,,,,,,466.6571,1,467.6513,467.6513,468.9513,left,0,1.2939,,468.9513,469.9512,0,6,6,9,1,total,2,images/Ex10.jpg,right,reversed,hard,3,,,,,
,,,,,5a31373183019b00012f6322,001,40,female,english,high school,2024-03-06_14h32.25.575,CRL1h,2023.2.3,Win32,60.24096386,65e67470ae2fbf2172c317b2,65e87e4ce20711f8bf42deb8,,,,,,,,,,,469.9515,1.3,471.2564,471.2564,472.435,left,0,1.1716,,472.435,473.4343,0,7,7,11,1,total,2,images/Ex12.jpg,right,reversed,hard,3,,,,,
,,,,,5a31373183019b00012f6322,001,40,female,english,high school,2024-03-06_14h32.25.575,CRL1h,2023.2.3,Win32,60.24096386,65e67470ae2fbf2172c317b2,65e87e4ce20711f8bf42deb8,,,,,,,,,,,473.4348,1.4,474.8348,474.8348,475.7348,right,0,0.8905,,475.7349,476.7369,0,8,8,4,1,total,2,images/Ex13.jpg,left,reversed,hard,3,,,,,
,,,,,5a31373183019b00012f6322,001,40,female,english,high school,2024-03-06_14h32.25.575,CRL1h,2023.2.3,Win32,60.24096386,65e67470ae2fbf2172c317b2,65e87e4ce20711f8bf42deb8,,,,,,,,,,,476.7374,1.2,477.9346,477.9346,479.2188,left,0,1.2727,,479.2189,480.2182,0,9,9,1,1,total,2,images/Ex10.jpg,right,reversed,hard,3,,,,,
,,,,,5a31373183019b00012f6322,001,40,female,english,high school,2024-03-06_14h32.25.575,CRL1h,2023.2.3,Win32,60.24096386,65e67470ae2fbf2172c317b2,65e87e4ce20711f8bf42deb8,,,,,,,,,,,480.2186,1.2,481.4189,481.4189,482.4522,right,0,1.0292,,482.4523,483.4519,0,10,10,6,1,total,2,images/Ex15.jpg,left,reversed,hard,3,,,,,
,,,,,5a31373183019b00012f6322,001,40,female,english,high school,2024-03-06_14h32.25.575,CRL1h,2023.2.3,Win32,60.24096386,65e67470ae2fbf2172c317b2,65e87e4ce20711f8bf42deb8,,,,,,,,,,,483.4523,0.6,484.0525,484.0525,484.9358,left,1,0.8761,,484.9358,485.9356,0,11,11,14,1,total,2,images/Ex15.jpg,left,reversed,hard,3,,,,,
,,,,,5a31373183019b00012f6322,001,40,female,english,high school,2024-03-06_14h32.25.575,CRL1h,2023.2.3,Win32,60.24096386,65e67470ae2fbf2172c317b2,65e87e4ce20711f8bf42deb8,,,,,,,,,,,485.9361,1.5,487.4359,487.436,488.7365,right,0,1.2895,,488.7367,489.7358,0,12,12,13,1,total,2,images/Ex14.jpg,left,reversed,hard,3,,,,,
,,,,,5a31373183019b00012f6322,001,40,female,english,high school,2024-03-06_14h32.25.575,CRL1h,2023.2.3,Win32,60.24096386,65e67470ae2fbf2172c317b2,65e87e4ce20711f8bf42deb8,,,,,,,,,,,489.7362,1,490.736,490.736,491.6363,left,0,0.8949,,491.6364,492.6362,0,13,13,2,1,total,2,images/Ex11.jpg,right,reversed,hard,3,,,,,
,,,,,5a31373183019b00012f6322,001,40,female,english,high school,2024-03-06_14h32.25.575,CRL1h,2023.2.3,Win32,60.24096386,65e67470ae2fbf2172c317b2,65e87e4ce20711f8bf42deb8,,,,,,,,,,,492.6367,1.2,493.8364,493.8364,494.8528,right,1,1.0105,,494.8529,495.8532,0,14,14,3,1,total,2,images/Ex12.jpg,right,reversed,hard,3,,,,,
,,,,,5a31373183019b00012f6322,001,40,female,english,high school,2024-03-06_14h32.25.575,CRL1h,2023.2.3,Win32,60.24096386,65e67470ae2fbf2172c317b2,65e87e4ce20711f8bf42deb8,,,,,,,,,,,495.8536,1.4,497.2581,497.2581,498.6033,right,0,1.343,,498.6033,499.6028,0,15,15,15,1,total,2,images/Ex16.jpg,left,reversed,hard,3,,,,,
,,,,,5a31373183019b00012f6322,001,40,female,english,high school,2024-03-06_14h32.25.575,CRL1h,2023.2.3,Win32,60.24096386,65e67470ae2fbf2172c317b2,65e87e4ce20711f8bf42deb8,,,,,,,,,,,499.6032,0.9,500.5033,500.5033,502.0035,right,0,1.4909,,502.0035,503.0043,1,0,16,5,1,total,2,images/Ex14.jpg,left,reversed,hard,3,,,,,
,,,,,5a31373183019b00012f6322,001,40,female,english,high school,2024-03-06_14h32.25.575,CRL1h,2023.2.3,Win32,60.24096386,65e67470ae2fbf2172c317b2,65e87e4ce20711f8bf42deb8,,,,,,,,,,,503.0146,1.5,504.5038,504.5039,505.7708,left,0,1.2581,,505.7708,506.7704,1,1,17,1,1,total,2,images/Ex10.jpg,right,reversed,hard,3,,,,,
,,,,,5a31373183019b00012f6322,001,40,female,english,high school,2024-03-06_14h32.25.575,CRL1h,2023.2.3,Win32,60.24096386,65e67470ae2fbf2172c317b2,65e87e4ce20711f8bf42deb8,,,,,,,,,,,506.7777,0.8,507.5715,507.5716,508.5371,left,0,0.9545,,508.5372,509.542,1,2,18,11,1,total,2,images/Ex12.jpg,right,reversed,hard,3,,,,,
,,,,,5a31373183019b00012f6322,001,40,female,english,high school,2024-03-06_14h32.25.575,CRL1h,2023.2.3,Win32,60.24096386,65e67470ae2fbf2172c317b2,65e87e4ce20711f8bf42deb8,,,,,,,,,,,509.5424,0.7,510.2374,510.2374,511.1205,right,0,0.8733,,511.1206,512.1205,1,3,19,13,1,total,2,images/Ex14.jpg,left,reversed,hard,3,,,,,
,,,,,5a31373183019b00012f6322,001,40,female,english,high school,2024-03-06_14h32.25.575,CRL1h,2023.2.3,Win32,60.24096386,65e67470ae2fbf2172c317b2,65e87e4ce20711f8bf42deb8,,,,,,,,,,,512.1209,0.5,512.6207,512.6207,513.4876,right,0,0.8557,,513.4876,514.4872,1,4,20,12,1,total,2,images/Ex13.jpg,left,reversed,hard,3,,,,,
,,,,,5a31373183019b00012f6322,001,40,female,english,high school,2024-03-06_14h32.25.575,CRL1h,2023.2.3,Win32,60.24096386,65e67470ae2fbf2172c317b2,65e87e4ce20711f8bf42deb8,,,,,,,,,,,514.4877,0.8,515.2871,515.2871,515.7876,left,0,0.4896,,515.7876,516.7877,1,5,21,3,1,total,2,images/Ex12.jpg,right,reversed,hard,3,,,,,
,,,,,5a31373183019b00012f6322,001,40,female,english,high school,2024-03-06_14h32.25.575,CRL1h,2023.2.3,Win32,60.24096386,65e67470ae2fbf2172c317b2,65e87e4ce20711f8bf42deb8,,,,,,,,,,,516.7882,1.3,518.0878,518.0879,519.3044,right,0,1.2062,,519.3044,520.3047,1,6,22,4,1,total,2,images/Ex13.jpg,left,reversed,hard,3,,,,,
,,,,,5a31373183019b00012f6322,001,40,female,english,high school,2024-03-06_14h32.25.575,CRL1h,2023.2.3,Win32,60.24096386,65e67470ae2fbf2172c317b2,65e87e4ce20711f8bf42deb8,,,,,,,,,,,520.3053,0.9,521.2045,521.2046,522.1718,left,1,0.9567,,522.1718,523.1712,1,7,23,14,1,total,2,images/Ex15.jpg,left,reversed,hard,3,,,,,
,,,,,5a31373183019b00012f6322,001,40,female,english,high school,2024-03-06_14h32.25.575,CRL1h,2023.2.3,Win32,60.24096386,65e67470ae2fbf2172c317b2,65e87e4ce20711f8bf42deb8,,,,,,,,,,,523.1717,0.6,523.7707,523.7707,524.5213,right,1,0.7425,,524.5214,525.5215,1,8,24,8,1,total,2,images/Ex9.jpg,right,reversed,hard,3,,,,,
,,,,,5a31373183019b00012f6322,001,40,female,english,high school,2024-03-06_14h32.25.575,CRL1h,2023.2.3,Win32,60.24096386,65e67470ae2fbf2172c317b2,65e87e4ce20711f8bf42deb8,,,,,,,,,,,525.5219,1.1,526.621,526.621,527.9711,left,0,1.341,,527.9711,528.9724,1,9,25,9,1,total,2,images/Ex10.jpg,right,reversed,hard,3,,,,,
,,,,,5a31373183019b00012f6322,001,40,female,english,high school,2024-03-06_14h32.25.575,CRL1h,2023.2.3,Win32,60.24096386,65e67470ae2fbf2172c317b2,65e87e4ce20711f8bf42deb8,,,,,,,,,,,528.9812,0.5,529.4713,529.4713,530.7549,left,0,1.2741,,530.7549,531.7549,1,10,26,0,1,total,2,images/Ex9.jpg,right,reversed,hard,3,,,,,
,,,,,5a31373183019b00012f6322,001,40,female,english,high school,2024-03-06_14h32.25.575,CRL1h,2023.2.3,Win32,60.24096386,65e67470ae2fbf2172c317b2,65e87e4ce20711f8bf42deb8,,,,,,,,,,,531.7552,1.1,532.8553,532.8553,533.8216,left,1,0.9563,,533.8218,534.8219,1,11,27,15,1,total,2,images/Ex16.jpg,left,reversed,hard,3,,,,,
,,,,,5a31373183019b00012f6322,001,40,female,english,high school,2024-03-06_14h32.25.575,CRL1h,2023.2.3,Win32,60.24096386,65e67470ae2fbf2172c317b2,65e87e4ce20711f8bf42deb8,,,,,,,,,,,534.8223,1.4,536.222,536.2221,537.1549,right,1,0.9257,,537.1549,538.155,1,12,28,2,1,total,2,images/Ex11.jpg,right,reversed,hard,3,,,,,
,,,,,5a31373183019b00012f6322,001,40,female,english,high school,2024-03-06_14h32.25.575,CRL1h,2023.2.3,Win32,60.24096386,65e67470ae2fbf2172c317b2,65e87e4ce20711f8bf42deb8,,,,,,,,,,,538.1554,0.7,538.8552,538.8553,539.3718,right,1,0.5071,,539.3718,540.3721,1,13,29,10,1,total,2,images/Ex11.jpg,right,reversed,hard,3,,,,,
,,,,,5a31373183019b00012f6322,001,40,female,english,high school,2024-03-06_14h32.25.575,CRL1h,2023.2.3,Win32,60.24096386,65e67470ae2fbf2172c317b2,65e87e4ce20711f8bf42deb8,,,,,,,,,,,540.3726,1,541.3727,541.3728,542.2884,left,1,0.9147,,542.2884,543.2885,1,14,30,7,1,total,2,images/Ex16.jpg,left,reversed,hard,3,,,,,
,,,,,5a31373183019b00012f6322,001,40,female,english,high school,2024-03-06_14h32.25.575,CRL1h,2023.2.3,Win32,60.24096386,65e67470ae2fbf2172c317b2,65e87e4ce20711f8bf42deb8,,,,,,,,,,,543.2888,1.3,544.5889,544.5889,545.5056,left,1,0.9054,,545.5056,546.5056,1,15,31,6,1,total,2,images/Ex15.jpg,left,reversed,hard,3,,,,,
,,,,,5a31373183019b00012f6322,001,40,female,english,high school,2024-03-06_14h32.25.575,CRL1h,2023.2.3,Win32,60.24096386,65e67470ae2fbf2172c317b2,65e87e4ce20711f8bf42deb8,,,,,,,,,,,546.5061,0.9,547.4058,547.4058,547.939,left,1,0.5236,,547.9391,548.9395,2,0,32,14,1,total,2,images/Ex15.jpg,left,reversed,hard,3,,,,,
,,,,,5a31373183019b00012f6322,001,40,female,english,high school,2024-03-06_14h32.25.575,CRL1h,2023.2.3,Win32,60.24096386,65e67470ae2fbf2172c317b2,65e87e4ce20711f8bf42deb8,,,,,,,,,,,548.9398,1,549.9392,549.9393,551.4562,left,0,1.5124,,551.4562,552.4564,2,1,33,9,1,total,2,images/Ex10.jpg,right,reversed,hard,3,,,,,
,,,,,5a31373183019b00012f6322,001,40,female,english,high school,2024-03-06_14h32.25.575,CRL1h,2023.2.3,Win32,60.24096386,65e67470ae2fbf2172c317b2,65e87e4ce20711f8bf42deb8,,,,,,,,,,,552.4567,1.1,553.5552,553.5553,555.0065,right,0,1.4398,,555.0066,556.0069,2,2,34,12,1,total,2,images/Ex13.jpg,left,reversed,hard,3,,,,,
,,,,,5a31373183019b00012f6322,001,40,female,english,high school,2024-03-06_14h32.25.575,CRL1h,2023.2.3,Win32,60.24096386,65e67470ae2fbf2172c317b2,65e87e4ce20711f8bf42deb8,,,,,,,,,,,556.0072,0.8,556.8064,556.8064,557.5233,left,0,0.7078,,557.5233,558.5233,2,3,35,0,1,total,2,images/Ex9.jpg,right,reversed,hard,3,,,,,
,,,,,5a31373183019b00012f6322,001,40,female,english,high school,2024-03-06_14h32.25.575,CRL1h,2023.2.3,Win32,60.24096386,65e67470ae2fbf2172c317b2,65e87e4ce20711f8bf42deb8,,,,,,,,,,,558.5237,1.5,560.0234,560.0235,561.2399,right,1,1.2111,,561.24,562.2404,2,4,36,8,1,total,2,images/Ex9.jpg,right,reversed,hard,3,,,,,
,,,,,5a31373183019b00012f6322,001,40,female,english,high school,2024-03-06_14h32.25.575,CRL1h,2023.2.3,Win32,60.24096386,65e67470ae2fbf2172c317b2,65e87e4ce20711f8bf42deb8,,,,,,,,,,,562.2406,1.1,563.3391,563.3391,564.5573,right,0,1.2075,,564.5573,565.5568,2,5,37,4,1,total,2,images/Ex13.jpg,left,reversed,hard,3,,,,,
,,,,,5a31373183019b00012f6322,001,40,female,english,high school,2024-03-06_14h32.25.575,CRL1h,2023.2.3,Win32,60.24096386,65e67470ae2fbf2172c317b2,65e87e4ce20711f8bf42deb8,,,,,,,,,,,565.5572,1,566.5567,566.5568,567.6569,left,0,1.0889,,567.6569,568.6568,2,6,38,2,1,total,2,images/Ex11.jpg,right,reversed,hard,3,,,,,
,,,,,5a31373183019b00012f6322,001,40,female,english,high school,2024-03-06_14h32.25.575,CRL1h,2023.2.3,Win32,60.24096386,65e67470ae2fbf2172c317b2,65e87e4ce20711f8bf42deb8,,,,,,,,,,,568.6572,0.9,569.5573,569.5574,570.5082,left,0,0.9417,,570.5083,571.5079,2,7,39,11,1,total,2,images/Ex12.jpg,right,reversed,hard,3,,,,,
,,,,,5a31373183019b00012f6322,001,40,female,english,high school,2024-03-06_14h32.25.575,CRL1h,2023.2.3,Win32,60.24096386,65e67470ae2fbf2172c317b2,65e87e4ce20711f8bf42deb8,,,,,,,,,,,571.5082,1.2,572.7074,572.7075,573.6574,right,0,0.9476,,573.6574,574.6571,2,8,40,6,1,total,2,images/Ex15.jpg,left,reversed,hard,3,,,,,
,,,,,5a31373183019b00012f6322,001,40,female,english,high school,2024-03-06_14h32.25.575,CRL1h,2023.2.3,Win32,60.24096386,65e67470ae2fbf2172c317b2,65e87e4ce20711f8bf42deb8,,,,,,,,,,,574.6575,1.3,575.9575,575.9575,576.7908,left,1,0.8226,,576.7909,577.7909,2,9,41,7,1,total,2,images/Ex16.jpg,left,reversed,hard,3,,,,,
,,,,,5a31373183019b00012f6322,001,40,female,english,high school,2024-03-06_14h32.25.575,CRL1h,2023.2.3,Win32,60.24096386,65e67470ae2fbf2172c317b2,65e87e4ce20711f8bf42deb8,,,,,,,,,,,577.7913,0.7,578.4914,578.4914,579.4238,right,1,0.9248,,579.4238,580.4243,2,10,42,3,1,total,2,images/Ex12.jpg,right,reversed,hard,3,,,,,
,,,,,5a31373183019b00012f6322,001,40,female,english,high school,2024-03-06_14h32.25.575,CRL1h,2023.2.3,Win32,60.24096386,65e67470ae2fbf2172c317b2,65e87e4ce20711f8bf42deb8,,,,,,,,,,,580.4246,0.9,581.3236,581.3237,582.0911,left,1,0.7574,,582.0911,583.0916,2,11,43,15,1,total,2,images/Ex16.jpg,left,reversed,hard,3,,,,,
,,,,,5a31373183019b00012f6322,001,40,female,english,high school,2024-03-06_14h32.25.575,CRL1h,2023.2.3,Win32,60.24096386,65e67470ae2fbf2172c317b2,65e87e4ce20711f8bf42deb8,,,,,,,,,,,583.092,1.1,584.1919,584.192,585.2575,right,0,1.054,,585.2575,586.2579,2,12,44,13,1,total,2,images/Ex14.jpg,left,reversed,hard,3,,,,,
,,,,,5a31373183019b00012f6322,001,40,female,english,high school,2024-03-06_14h32.25.575,CRL1h,2023.2.3,Win32,60.24096386,65e67470ae2fbf2172c317b2,65e87e4ce20711f8bf42deb8,,,,,,,,,,,586.2582,1.2,587.4583,587.4584,588.0243,left,1,0.5653,,588.0243,589.0249,2,13,45,5,1,total,2,images/Ex14.jpg,left,reversed,hard,3,,,,,
,,,,,5a31373183019b00012f6322,001,40,female,english,high school,2024-03-06_14h32.25.575,CRL1h,2023.2.3,Win32,60.24096386,65e67470ae2fbf2172c317b2,65e87e4ce20711f8bf42deb8,,,,,,,,,,,589.0253,0.7,589.7251,589.7251,590.4919,left,0,0.7548,,590.492,591.4918,2,14,46,10,1,total,2,images/Ex11.jpg,right,reversed,hard,3,,,,,
,,,,,5a31373183019b00012f6322,001,40,female,english,high school,2024-03-06_14h32.25.575,CRL1h,2023.2.3,Win32,60.24096386,65e67470ae2fbf2172c317b2,65e87e4ce20711f8bf42deb8,,,,,,,,,,,591.4921,1.3,592.7929,592.7929,593.9088,right,1,1.1056,,593.9088,594.9088,2,15,47,1,1,total,2,images/Ex10.jpg,right,reversed,hard,3,,,,,
,,,,,5a31373183019b00012f6322,001,40,female,english,high school,2024-03-06_14h32.25.575,CRL1h,2023.2.3,Win32,60.24096386,65e67470ae2fbf2172c317b2,65e87e4ce20711f8bf42deb8,,,,,,,,,,,594.9092,0.9,595.8086,595.8087,596.9918,right,1,1.1733,,596.9919,597.9914,3,0,48,0,1,total,2,images/Ex9.jpg,right,reversed,hard,3,,,,,
,,,,,5a31373183019b00012f6322,001,40,female,english,high school,2024-03-06_14h32.25.575,CRL1h,2023.2.3,Win32,60.24096386,65e67470ae2fbf2172c317b2,65e87e4ce20711f8bf42deb8,,,,,,,,,,,597.9916,1.5,599.4923,599.4923,600.4923,left,0,0.9928,,600.4924,601.4924,3,1,49,10,1,total,2,images/Ex11.jpg,right,reversed,hard,3,,,,,
,,,,,5a31373183019b00012f6322,001,40,female,english,high school,2024-03-06_14h32.25.575,CRL1h,2023.2.3,Win32,60.24096386,65e67470ae2fbf2172c317b2,65e87e4ce20711f8bf42deb8,,,,,,,,,,,601.4929,0.5,601.9929,601.9929,603.0424,left,1,1.047,,603.0424,604.0431,3,2,50,14,1,total,2,images/Ex15.jpg,left,reversed,hard,3,,,,,
,,,,,5a31373183019b00012f6322,001,40,female,english,high school,2024-03-06_14h32.25.575,CRL1h,2023.2.3,Win32,60.24096386,65e67470ae2fbf2172c317b2,65e87e4ce20711f8bf42deb8,,,,,,,,,,,604.0434,0.9,604.943,604.943,605.4761,left,1,0.5266,,605.4761,606.4761,3,3,51,6,1,total,2,images/Ex15.jpg,left,reversed,hard,3,,,,,
,,,,,5a31373183019b00012f6322,001,40,female,english,high school,2024-03-06_14h32.25.575,CRL1h,2023.2.3,Win32,60.24096386,65e67470ae2fbf2172c317b2,65e87e4ce20711f8bf42deb8,,,,,,,,,,,606.4767,1.4,607.876,607.876,608.943,right,1,1.0567,,608.943,609.9429,3,4,52,1,1,total,2,images/Ex10.jpg,right,reversed,hard,3,,,,,
,,,,,5a31373183019b00012f6322,001,40,female,english,high school,2024-03-06_14h32.25.575,CRL1h,2023.2.3,Win32,60.24096386,65e67470ae2fbf2172c317b2,65e87e4ce20711f8bf42deb8,,,,,,,,,,,609.9435,0.8,610.743,610.7431,611.7099,right,1,0.9639,,611.7099,612.7094,3,5,53,2,1,total,2,images/Ex11.jpg,right,reversed,hard,3,,,,,
,,,,,5a31373183019b00012f6322,001,40,female,english,high school,2024-03-06_14h32.25.575,CRL1h,2023.2.3,Win32,60.24096386,65e67470ae2fbf2172c317b2,65e87e4ce20711f8bf42deb8,,,,,,,,,,,612.7098,0.8,613.5093,613.5094,614.3596,left,1,0.8402,,614.3596,615.36,3,6,54,15,1,total,2,images/Ex16.jpg,left,reversed,hard,3,,,,,
,,,,,5a31373183019b00012f6322,001,40,female,english,high school,2024-03-06_14h32.25.575,CRL1h,2023.2.3,Win32,60.24096386,65e67470ae2fbf2172c317b2,65e87e4ce20711f8bf42deb8,,,,,,,,,,,615.3604,1,616.3599,616.3599,617.3427,right,0,0.9745,,617.3427,618.3435,3,7,55,5,1,total,2,images/Ex14.jpg,left,reversed,hard,3,,,,,
,,,,,5a31373183019b00012f6322,001,40,female,english,high school,2024-03-06_14h32.25.575,CRL1h,2023.2.3,Win32,60.24096386,65e67470ae2fbf2172c317b2,65e87e4ce20711f8bf42deb8,,,,,,,,,,,618.344,1.3,619.6434,619.6434,621.1599,right,1,1.5057,,621.1599,622.1603,3,8,56,3,1,total,2,images/Ex12.jpg,right,reversed,hard,3,,,,,
,,,,,5a31373183019b00012f6322,001,40,female,english,high school,2024-03-06_14h32.25.575,CRL1h,2023.2.3,Win32,60.24096386,65e67470ae2fbf2172c317b2,65e87e4ce20711f8bf42deb8,,,,,,,,,,,622.1607,1,623.1602,623.1602,623.8943,left,0,0.722,,623.8944,624.8936,3,9,57,8,1,total,2,images/Ex9.jpg,right,reversed,hard,3,,,,,
,,,,,5a31373183019b00012f6322,001,40,female,english,high school,2024-03-06_14h32.25.575,CRL1h,2023.2.3,Win32,60.24096386,65e67470ae2fbf2172c317b2,65e87e4ce20711f8bf42deb8,,,,,,,,,,,624.8939,0.6,625.4941,625.4941,626.2441,right,1,0.7458,,626.2441,627.2436,3,10,58,11,1,total,2,images/Ex12.jpg,right,reversed,hard,3,,,,,
,,,,,5a31373183019b00012f6322,001,40,female,english,high school,2024-03-06_14h32.25.575,CRL1h,2023.2.3,Win32,60.24096386,65e67470ae2fbf2172c317b2,65e87e4ce20711f8bf42deb8,,,,,,,,,,,627.244,1.1,628.344,628.3441,629.2765,left,0,0.9298,,629.2765,630.2774,3,11,59,9,1,total,2,images/Ex10.jpg,right,reversed,hard,3,,,,,
,,,,,5a31373183019b00012f6322,001,40,female,english,high school,2024-03-06_14h32.25.575,CRL1h,2023.2.3,Win32,60.24096386,65e67470ae2fbf2172c317b2,65e87e4ce20711f8bf42deb8,,,,,,,,,,,630.2777,1,631.2768,631.2768,632.1438,left,1,0.86,,632.1439,633.1445,3,12,60,4,1,total,2,images/Ex13.jpg,left,reversed,hard,3,,,,,
,,,,,5a31373183019b00012f6322,001,40,female,english,high school,2024-03-06_14h32.25.575,CRL1h,2023.2.3,Win32,60.24096386,65e67470ae2fbf2172c317b2,65e87e4ce20711f8bf42deb8,,,,,,,,,,,633.1449,0.6,633.7441,633.7441,634.5109,left,1,0.7558,,634.5109,635.5108,3,13,61,7,1,total,2,images/Ex16.jpg,left,reversed,hard,3,,,,,
,,,,,5a31373183019b00012f6322,001,40,female,english,high school,2024-03-06_14h32.25.575,CRL1h,2023.2.3,Win32,60.24096386,65e67470ae2fbf2172c317b2,65e87e4ce20711f8bf42deb8,,,,,,,,,,,635.5111,0.7,636.2108,636.2108,637.1272,right,0,0.913,,637.1272,638.1279,3,14,62,13,1,total,2,images/Ex14.jpg,left,reversed,hard,3,,,,,
,,,,,5a31373183019b00012f6322,001,40,female,english,high school,2024-03-06_14h32.25.575,CRL1h,2023.2.3,Win32,60.24096386,65e67470ae2fbf2172c317b2,65e87e4ce20711f8bf42deb8,,,,,,,,,,,638.1281,1.4,639.5271,639.5272,640.1277,left,1,0.5967,,640.1277,641.1275,3,15,63,12,1,total,2,images/Ex13.jpg,left,reversed,hard,3,,,,,
,,,,,5a31373183019b00012f6322,001,40,female,english,high school,2024-03-06_14h32.25.575,CRL1h,2023.2.3,Win32,60.24096386,65e67470ae2fbf2172c317b2,65e87e4ce20711f8bf42deb8,,,,,,641.1283,646.3784,space,5.2408,,646.3877,1.4,647.7785,647.7786,649.1446,left,1,1.3585,,649.1447,650.1446,0,0,0,11,1,partial,1,images/Ex4.jpg,left,training,hard,3,,,,,
,,,,,5a31373183019b00012f6322,001,40,female,english,high school,2024-03-06_14h32.25.575,CRL1h,2023.2.3,Win32,60.24096386,65e67470ae2fbf2172c317b2,65e87e4ce20711f8bf42deb8,,,,,,,,,,,650.145,1.2,651.3451,651.3452,652.4954,right,1,1.1433,,652.4954,653.4953,0,1,1,14,1,partial,1,images/Ex7.jpg,right,training,hard,3,,,,,
,,,,,5a31373183019b00012f6322,001,40,female,english,high school,2024-03-06_14h32.25.575,CRL1h,2023.2.3,Win32,60.24096386,65e67470ae2fbf2172c317b2,65e87e4ce20711f8bf42deb8,,,,,,,,,,,653.4957,1.3,654.7957,654.7958,655.6794,right,1,0.8768,,655.6794,656.6791,0,2,2,13,1,partial,1,images/Ex6.jpg,right,training,hard,3,,,,,
,,,,,5a31373183019b00012f6322,001,40,female,english,high school,2024-03-06_14h32.25.575,CRL1h,2023.2.3,Win32,60.24096386,65e67470ae2fbf2172c317b2,65e87e4ce20711f8bf42deb8,,,,,,,,,,,656.6795,0.6,657.2783,657.2783,658.3125,left,1,1.0286,,658.3125,659.3121,0,3,3,3,1,partial,1,images/Ex4.jpg,left,training,hard,3,,,,,
,,,,,5a31373183019b00012f6322,001,40,female,english,high school,2024-03-06_14h32.25.575,CRL1h,2023.2.3,Win32,60.24096386,65e67470ae2fbf2172c317b2,65e87e4ce20711f8bf42deb8,,,,,,,,,,,659.3123,0.8,660.1122,660.1122,660.9122,right,0,0.7923,,660.9122,661.9126,0,4,4,9,1,partial,1,images/Ex2.jpg,left,training,hard,3,,,,,
,,,,,5a31373183019b00012f6322,001,40,female,english,high school,2024-03-06_14h32.25.575,CRL1h,2023.2.3,Win32,60.24096386,65e67470ae2fbf2172c317b2,65e87e4ce20711f8bf42deb8,,,,,,,,,,,661.9129,1.1,663.0122,663.0123,664.0791,right,1,1.0548,,664.0791,665.0788,0,5,5,5,1,partial,1,images/Ex6.jpg,right,training,hard,3,,,,,
,,,,,5a31373183019b00012f6322,001,40,female,english,high school,2024-03-06_14h32.25.575,CRL1h,2023.2.3,Win32,60.24096386,65e67470ae2fbf2172c317b2,65e87e4ce20711f8bf42deb8,,,,,,,,,,,665.079,1.4,666.4793,666.4793,667.2126,left,0,0.7247,,667.2126,668.213,0,6,6,4,1,partial,1,images/Ex5.jpg,right,training,hard,3,,,,,
,,,,,5a31373183019b00012f6322,001,40,female,english,high school,2024-03-06_14h32.25.575,CRL1h,2023.2.3,Win32,60.24096386,65e67470ae2fbf2172c317b2,65e87e4ce20711f8bf42deb8,,,,,,,,,,,668.2135,1.2,669.4134,669.4134,670.3468,left,1,0.9228,,670.3469,671.3462,0,7,7,0,1,partial,1,images/Ex1.jpg,left,training,hard,3,,,,,
,,,,,5a31373183019b00012f6322,001,40,female,english,high school,2024-03-06_14h32.25.575,CRL1h,2023.2.3,Win32,60.24096386,65e67470ae2fbf2172c317b2,65e87e4ce20711f8bf42deb8,,,,,,,,,,,671.3465,1.1,672.4465,672.4465,673.1795,right,1,0.7214,,673.1796,674.1799,0,8,8,7,1,partial,1,images/Ex8.jpg,right,training,hard,3,,,,,
,,,,,5a31373183019b00012f6322,001,40,female,english,high school,2024-03-06_14h32.25.575,CRL1h,2023.2.3,Win32,60.24096386,65e67470ae2fbf2172c317b2,65e87e4ce20711f8bf42deb8,,,,,,,,,,,674.1803,1,675.1789,675.179,676.2299,right,0,1.0407,,676.23,677.2296,0,9,9,8,1,partial,1,images/Ex1.jpg,left,training,hard,3,,,,,
,,,,,5a31373183019b00012f6322,001,40,female,english,high school,2024-03-06_14h32.25.575,CRL1h,2023.2.3,Win32,60.24096386,65e67470ae2fbf2172c317b2,65e87e4ce20711f8bf42deb8,,,,,,,,,,,677.23,1.3,678.5303,678.5304,679.2292,left,0,0.6855,,679.2292,680.2303,0,10,10,6,1,partial,1,images/Ex7.jpg,right,training,hard,3,,,,,
,,,,,5a31373183019b00012f6322,001,40,female,english,high school,2024-03-06_14h32.25.575,CRL1h,2023.2.3,Win32,60.24096386,65e67470ae2fbf2172c317b2,65e87e4ce20711f8bf42deb8,,,,,,,,,,,680.2307,0.8,681.0297,681.0297,681.947,left,1,0.9137,,681.947,682.9469,0,11,11,1,1,partial,1,images/Ex2.jpg,left,training,hard,3,,,,,
,,,,,5a31373183019b00012f6322,001,40,female,english,high school,2024-03-06_14h32.25.575,CRL1h,2023.2.3,Win32,60.24096386,65e67470ae2fbf2172c317b2,65e87e4ce20711f8bf42deb8,,,,,,,,,,,682.9472,1.4,684.3472,684.3472,684.9306,right,1,0.5725,,684.9306,685.9308,0,12,12,12,1,partial,1,images/Ex5.jpg,right,training,hard,3,,,,,
,,,,,5a31373183019b00012f6322,001,40,female,english,high school,2024-03-06_14h32.25.575,CRL1h,2023.2.3,Win32,60.24096386,65e67470ae2fbf2172c317b2,65e87e4ce20711f8bf42deb8,,,,,,,,,,,685.9311,0.9,686.8306,686.8306,687.764,left,1,0.9306,,687.7641,688.764,0,13,13,10,1,partial,1,images/Ex3.jpg,left,training,hard,3,,,,,
,,,,,5a31373183019b00012f6322,001,40,female,english,high school,2024-03-06_14h32.25.575,CRL1h,2023.2.3,Win32,60.24096386,65e67470ae2fbf2172c317b2,65e87e4ce20711f8bf42deb8,,,,,,,,,,,688.7644,0.8,689.564,689.5641,690.0812,left,1,0.5084,,690.0813,691.0807,0,14,14,2,1,partial,1,images/Ex3.jpg,left,training,hard,3,,,,,
,,,,,5a31373183019b00012f6322,001,40,female,english,high school,2024-03-06_14h32.25.575,CRL1h,2023.2.3,Win32,60.24096386,65e67470ae2fbf2172c317b2,65e87e4ce20711f8bf42deb8,,,,,,,,,,,691.0811,1,692.0803,692.0803,692.7472,right,1,0.6548,,692.7473,693.7475,0,15,15,15,1,partial,1,images/Ex8.jpg,right,training,hard,3,,,,,
,,,,,5a31373183019b00012f6322,001,40,female,english,high school,2024-03-06_14h32.25.575,CRL1h,2023.2.3,Win32,60.24096386,65e67470ae2fbf2172c317b2,65e87e4ce20711f8bf42deb8,,,,,,,,,,,693.7478,0.7,694.4477,694.4477,695.2808,left,0,0.8226,,695.2809,696.2814,1,0,16,13,1,partial,1,images/Ex6.jpg,right,training,hard,3,,,,,
,,,,,5a31373183019b00012f6322,001,40,female,english,high school,2024-03-06_14h32.25.575,CRL1h,2023.2.3,Win32,60.24096386,65e67470ae2fbf2172c317b2,65e87e4ce20711f8bf42deb8,,,,,,,,,,,696.2817,1,697.2808,697.2809,697.931,right,1,0.6408,,697.9311,698.9314,1,1,17,15,1,partial,1,images/Ex8.jpg,right,training,hard,3,,,,,
,,,,,5a31373183019b00012f6322,001,40,female,english,high school,2024-03-06_14h32.25.575,CRL1h,2023.2.3,Win32,60.24096386,65e67470ae2fbf2172c317b2,65e87e4ce20711f8bf42deb8,,,,,,,,,,,698.9318,1,699.9314,699.9314,700.5981,left,1,0.6603,,700.5981,701.5983,1,2,18,10,1,partial,1,images/Ex3.jpg,left,training,hard,3,,,,,
,,,,,5a31373183019b00012f6322,001,40,female,english,high school,2024-03-06_14h32.25.575,CRL1h,2023.2.3,Win32,60.24096386,65e67470ae2fbf2172c317b2,65e87e4ce20711f8bf42deb8,,,,,,,,,,,701.5984,1.2,702.7981,702.7981,703.5986,left,1,0.7909,,703.5986,704.5988,1,3,19,3,1,partial,1,images/Ex4.jpg,left,training,hard,3,,,,,
,,,,,5a31373183019b00012f6322,001,40,female,english,high school,2024-03-06_14h32.25.575,CRL1h,2023.2.3,Win32,60.24096386,65e67470ae2fbf2172c317b2,65e87e4ce20711f8bf42deb8,,,,,,,,,,,704.5992,0.5,705.0983,705.0983,705.7814,right,0,0.6749,,705.7814,706.7816,1,4,20,0,1,partial,1,images/Ex1.jpg,left,training,hard,3,,,,,
,,,,,5a31373183019b00012f6322,001,40,female,english,high school,2024-03-06_14h32.25.575,CRL1h,2023.2.3,Win32,60.24096386,65e67470ae2fbf2172c317b2,65e87e4ce20711f8bf42deb8,,,,,,,,,,,706.7822,0.7,707.4821,707.4821,708.0479,left,1,0.5608,,708.0479,709.0488,1,5,21,11,1,partial,1,images/Ex4.jpg,left,training,hard,3,,,,,
,,,,,5a31373183019b00012f6322,001,40,female,english,high school,2024-03-06_14h32.25.575,CRL1h,2023.2.3,Win32,60.24096386,65e67470ae2fbf2172c317b2,65e87e4ce20711f8bf42deb8,,,,,,,,,,,709.0492,1,710.0485,710.0485,710.7152,left,1,0.6605,,710.7153,711.7155,1,6,22,8,1,partial,1,images/Ex1.jpg,left,training,hard,3,,,,,
,,,,,5a31373183019b00012f6322,001,40,female,english,high school,2024-03-06_14h32.25.575,CRL1h,2023.2.3,Win32,60.24096386,65e67470ae2fbf2172c317b2,65e87e4ce20711f8bf42deb8,,,,,,,,,,,711.7159,0.7,712.4152,712.4153,712.9988,right,0,0.5718,,712.9989,713.9983,1,7,23,9,1,partial,1,images/Ex2.jpg,left,training,hard,3,,,,,
,,,,,5a31373183019b00012f6322,001,40,female,english,high school,2024-03-06_14h32.25.575,CRL1h,2023.2.3,Win32,60.24096386,65e67470ae2fbf2172c317b2,65e87e4ce20711f8bf42deb8,,,,,,,,,,,713.9985,1.1,715.0991,715.0991,715.7824,right,1,0.6731,,715.7824,716.7821,1,8,24,7,1,partial,1,images/Ex8.jpg,right,training,hard,3,,,,,
,,,,,5a31373183019b00012f6322,001,40,female,english,high school,2024-03-06_14h32.25.575,CRL1h,2023.2.3,Win32,60.24096386,65e67470ae2fbf2172c317b2,65e87e4ce20711f8bf42deb8,,,,,,,,,,,716.7825,0.9,717.6825,717.6825,718.3323,left,0,0.6387,,718.3323,719.3325,1,9,25,14,1,partial,1,images/Ex7.jpg,right,training,hard,3,,,,,
,,,,,5a31373183019b00012f6322,001,40,female,english,high school,2024-03-06_14h32.25.575,CRL1h,2023.2.3,Win32,60.24096386,65e67470ae2fbf2172c317b2,65e87e4ce20711f8bf42deb8,,,,,,,,,,,719.3328,0.5,719.8323,719.8324,720.5991,left,0,0.7586,,720.5992,721.5994,1,10,26,6,1,partial,1,images/Ex7.jpg,right,training,hard,3,,,,,
,,,,,5a31373183019b00012f6322,001,40,female,english,high school,2024-03-06_14h32.25.575,CRL1h,2023.2.3,Win32,60.24096386,65e67470ae2fbf2172c317b2,65e87e4ce20711f8bf42deb8,,,,,,,,,,,721.5998,1.1,722.6989,722.6989,723.7485,left,1,1.0478,,723.7486,724.7497,1,11,27,2,1,partial,1,images/Ex3.jpg,left,training,hard,3,,,,,
,,,,,5a31373183019b00012f6322,001,40,female,english,high school,2024-03-06_14h32.25.575,CRL1h,2023.2.3,Win32,60.24096386,65e67470ae2fbf2172c317b2,65e87e4ce20711f8bf42deb8,,,,,,,,,,,724.7499,0.6,725.3495,725.3495,725.9161,right,1,0.5589,,725.9161,726.9168,1,12,28,12,1,partial,1,images/Ex5.jpg,right,training,hard,3,,,,,
,,,,,5a31373183019b00012f6322,001,40,female,english,high school,2024-03-06_14h32.25.575,CRL1h,2023.2.3,Win32,60.24096386,65e67470ae2fbf2172c317b2,65e87e4ce20711f8bf42deb8,,,,,,,,,,,726.9171,0.9,727.8163,727.8163,729.0163,right,0,1.198,,729.0164,730.0168,1,13,29,1,1,partial,1,images/Ex2.jpg,left,training,hard,3,,,,,
,,,,,5a31373183019b00012f6322,001,40,female,english,high school,2024-03-06_14h32.25.575,CRL1h,2023.2.3,Win32,60.24096386,65e67470ae2fbf2172c317b2,65e87e4ce20711f8bf42deb8,,,,,,,,,,,730.0172,0.9,730.9167,730.9167,731.5664,left,0,0.6459,,731.5665,732.5658,1,14,30,5,1,partial,1,images/Ex6.jpg,right,training,hard,3,,,,,
,,,,,5a31373183019b00012f6322,001,40,female,english,high school,2024-03-06_14h32.25.575,CRL1h,2023.2.3,Win32,60.24096386,65e67470ae2fbf2172c317b2,65e87e4ce20711f8bf42deb8,,,,,,,,,,,732.566,0.6,733.1666,733.1666,734.3337,left,0,1.1587,,734.3337,735.3337,1,15,31,4,1,partial,1,images/Ex5.jpg,right,training,hard,3,,,,,
,,,,,5a31373183019b00012f6322,001,40,female,english,high school,2024-03-06_14h32.25.575,CRL1h,2023.2.3,Win32,60.24096386,65e67470ae2fbf2172c317b2,65e87e4ce20711f8bf42deb8,,,,,,,,,,,735.3398,0.7,736.0335,736.0335,737.7002,right,0,1.6587,,737.7003,738.7004,2,0,32,0,1,partial,1,images/Ex1.jpg,left,training,hard,3,,,,,
,,,,,5a31373183019b00012f6322,001,40,female,english,high school,2024-03-06_14h32.25.575,CRL1h,2023.2.3,Win32,60.24096386,65e67470ae2fbf2172c317b2,65e87e4ce20711f8bf42deb8,,,,,,,,,,,738.7007,1.3,740.0004,740.0005,740.6839,left,1,0.6749,,740.684,741.6839,2,1,33,9,1,partial,1,images/Ex2.jpg,left,training,hard,3,,,,,
,,,,,5a31373183019b00012f6322,001,40,female,english,high school,2024-03-06_14h32.25.575,CRL1h,2023.2.3,Win32,60.24096386,65e67470ae2fbf2172c317b2,65e87e4ce20711f8bf42deb8,,,,,,,,,,,741.6843,1.4,743.084,743.084,743.8836,right,0,0.7975,,743.8837,744.8837,2,2,34,2,1,partial,1,images/Ex3.jpg,left,training,hard,3,,,,,
,,,,,5a31373183019b00012f6322,001,40,female,english,high school,2024-03-06_14h32.25.575,CRL1h,2023.2.3,Win32,60.24096386,65e67470ae2fbf2172c317b2,65e87e4ce20711f8bf42deb8,,,,,,,,,,,744.8841,1,745.8841,745.8841,746.5675,left,1,0.6788,,746.5675,747.5673,2,3,35,11,1,partial,1,images/Ex4.jpg,left,training,hard,3,,,,,
,,,,,5a31373183019b00012f6322,001,40,female,english,high school,2024-03-06_14h32.25.575,CRL1h,2023.2.3,Win32,60.24096386,65e67470ae2fbf2172c317b2,65e87e4ce20711f8bf42deb8,,,,,,,,,,,747.5678,1,748.567,748.567,749.3012,left,1,0.7256,,749.3012,750.3008,2,4,36,10,1,partial,1,images/Ex3.jpg,left,training,hard,3,,,,,
,,,,,5a31373183019b00012f6322,001,40,female,english,high school,2024-03-06_14h32.25.575,CRL1h,2023.2.3,Win32,60.24096386,65e67470ae2fbf2172c317b2,65e87e4ce20711f8bf42deb8,,,,,,,,,,,750.3012,1.2,751.5008,751.5008,752.7674,left,0,1.2629,,752.7674,753.7676,2,5,37,6,1,partial,1,images/Ex7.jpg,right,training,hard,3,,,,,
,,,,,5a31373183019b00012f6322,001,40,female,english,high school,2024-03-06_14h32.25.575,CRL1h,2023.2.3,Win32,60.24096386,65e67470ae2fbf2172c317b2,65e87e4ce20711f8bf42deb8,,,,,,,,,,,753.7679,0.9,754.6676,754.6676,755.7015,right,1,1.0228,,755.7015,756.7013,2,6,38,14,1,partial,1,images/Ex7.jpg,right,training,hard,3,,,,,
,,,,,5a31373183019b00012f6322,001,40,female,english,high school,2024-03-06_14h32.25.575,CRL1h,2023.2.3,Win32,60.24096386,65e67470ae2fbf2172c317b2,65e87e4ce20711f8bf42deb8,,,,,,,,,,,756.7016,0.6,757.3013,757.3013,758.0017,left,1,0.6895,,758.0018,759.0022,2,7,39,3,1,partial,1,images/Ex4.jpg,left,training,hard,3,,,,,
,,,,,5a31373183019b00012f6322,001,40,female,english,high school,2024-03-06_14h32.25.575,CRL1h,2023.2.3,Win32,60.24096386,65e67470ae2fbf2172c317b2,65e87e4ce20711f8bf42deb8,,,,,,,,,,,759.0025,1.4,760.401,760.401,761.1346,right,0,0.7234,,761.1346,762.1354,2,8,40,8,1,partial,1,images/Ex1.jpg,left,training,hard,3,,,,,
,,,,,5a31373183019b00012f6322,001,40,female,english,high school,2024-03-06_14h32.25.575,CRL1h,2023.2.3,Win32,60.24096386,65e67470ae2fbf2172c317b2,65e87e4ce20711f8bf42deb8,,,,,,,,,,,762.1358,0.6,762.735,762.735,763.5513,left,0,0.8078,,763.5513,764.5519,2,9,41,12,1,partial,1,images/Ex5.jpg,right,training,hard,3,,,,,
,,,,,5a31373183019b00012f6322,001,40,female,english,high school,2024-03-06_14h32.25.575,CRL1h,2023.2.3,Win32,60.24096386,65e67470ae2fbf2172c317b2,65e87e4ce20711f8bf42deb8,,,,,,,,,,,764.5522,1.2,765.7516,765.7517,766.585,left,0,0.8256,,766.5851,767.585,2,10,42,5,1,partial,1,images/Ex6.jpg,right,training,hard,3,,,,,
,,,,,5a31373183019b00012f6322,001,40,female,english,high school,2024-03-06_14h32.25.575,CRL1h,2023.2.3,Win32,60.24096386,65e67470ae2fbf2172c317b2,65e87e4ce20711f8bf42deb8,,,,,,,,,,,767.5854,1.1,768.6853,768.6853,769.3182,right,1,0.6234,,769.3182,770.3194,2,11,43,4,1,partial,1,images/Ex5.jpg,right,training,hard,3,,,,,
,,,,,5a31373183019b00012f6322,001,40,female,english,high school,2024-03-06_14h32.25.575,CRL1h,2023.2.3,Win32,60.24096386,65e67470ae2fbf2172c317b2,65e87e4ce20711f8bf42deb8,,,,,,,,,,,770.3198,1.5,771.8186,771.8186,772.8857,right,1,1.0596,,772.8857,773.8855,2,12,44,13,1,partial,1,images/Ex6.jpg,right,training,hard,3,,,,,
,,,,,5a31373183019b00012f6322,001,40,female,english,high school,2024-03-06_14h32.25.575,CRL1h,2023.2.3,Win32,60.24096386,65e67470ae2fbf2172c317b2,65e87e4ce20711f8bf42deb8,,,,,,,,,,,773.8859,1.5,775.3849,775.385,776.1192,left,1,0.7245,,776.1194,777.1195,2,13,45,1,1,partial,1,images/Ex2.jpg,left,training,hard,3,,,,,
,,,,,5a31373183019b00012f6322,001,40,female,english,high school,2024-03-06_14h32.25.575,CRL1h,2023.2.3,Win32,60.24096386,65e67470ae2fbf2172c317b2,65e87e4ce20711f8bf42deb8,,,,,,,,,,,777.1198,1,778.1193,778.1193,778.8195,right,1,0.6933,,778.8195,779.8197,2,14,46,15,1,partial,1,images/Ex8.jpg,right,training,hard,3,,,,,
,,,,,5a31373183019b00012f6322,001,40,female,english,high school,2024-03-06_14h32.25.575,CRL1h,2023.2.3,Win32,60.24096386,65e67470ae2fbf2172c317b2,65e87e4ce20711f8bf42deb8,,,,,,,,,,,779.8202,1.4,781.2192,781.2192,781.886,left,0,0.6557,,781.886,782.8864,2,15,47,7,1,partial,1,images/Ex8.jpg,right,training,hard,3,,,,,
,,,,,5a31373183019b00012f6322,001,40,female,english,high school,2024-03-06_14h32.25.575,CRL1h,2023.2.3,Win32,60.24096386,65e67470ae2fbf2172c317b2,65e87e4ce20711f8bf42deb8,,,,,,,,,,,782.8866,0.9,783.7863,783.7863,784.4191,left,0,0.6275,,784.4191,785.4189,3,0,48,15,1,partial,1,images/Ex8.jpg,right,training,hard,3,,,,,
,,,,,5a31373183019b00012f6322,001,40,female,english,high school,2024-03-06_14h32.25.575,CRL1h,2023.2.3,Win32,60.24096386,65e67470ae2fbf2172c317b2,65e87e4ce20711f8bf42deb8,,,,,,,,,,,785.4192,1.4,786.8198,786.8199,787.753,right,1,0.9251,,787.753,788.7531,3,1,49,7,1,partial,1,images/Ex8.jpg,right,training,hard,3,,,,,
,,,,,5a31373183019b00012f6322,001,40,female,english,high school,2024-03-06_14h32.25.575,CRL1h,2023.2.3,Win32,60.24096386,65e67470ae2fbf2172c317b2,65e87e4ce20711f8bf42deb8,,,,,,,,,,,788.7537,0.6,789.3523,789.3523,790.4197,left,1,1.0609,,790.4198,791.4201,3,2,50,9,1,partial,1,images/Ex2.jpg,left,training,hard,3,,,,,
,,,,,5a31373183019b00012f6322,001,40,female,english,high school,2024-03-06_14h32.25.575,CRL1h,2023.2.3,Win32,60.24096386,65e67470ae2fbf2172c317b2,65e87e4ce20711f8bf42deb8,,,,,,,,,,,791.4282,0.6,792.0196,792.0197,792.8201,right,1,0.7897,,792.8201,793.8198,3,3,51,4,1,partial,1,images/Ex5.jpg,right,training,hard,3,,,,,
,,,,,5a31373183019b00012f6322,001,40,female,english,high school,2024-03-06_14h32.25.575,CRL1h,2023.2.3,Win32,60.24096386,65e67470ae2fbf2172c317b2,65e87e4ce20711f8bf42deb8,,,,,,,,,,,793.8202,1.5,795.3198,795.3198,796.07,left,1,0.7381,,796.0701,797.0703,3,4,52,1,1,partial,1,images/Ex2.jpg,left,training,hard,3,,,,,
,,,,,5a31373183019b00012f6322,001,40,female,english,high school,2024-03-06_14h32.25.575,CRL1h,2023.2.3,Win32,60.24096386,65e67470ae2fbf2172c317b2,65e87e4ce20711f8bf42deb8,,,,,,,,,,,797.0707,0.9,797.9704,797.9705,798.6869,left,1,0.7058,,798.6869,799.6867,3,5,53,11,1,partial,1,images/Ex4.jpg,left,training,hard,3,,,,,
,,,,,5a31373183019b00012f6322,001,40,female,english,high school,2024-03-06_14h32.25.575,CRL1h,2023.2.3,Win32,60.24096386,65e67470ae2fbf2172c317b2,65e87e4ce20711f8bf42deb8,,,,,,,,,,,799.6869,0.6,800.287,800.2871,801.087,right,1,0.797,,801.087,802.0875,3,6,54,6,1,partial,1,images/Ex7.jpg,right,training,hard,3,,,,,
,,,,,5a31373183019b00012f6322,001,40,female,english,high school,2024-03-06_14h32.25.575,CRL1h,2023.2.3,Win32,60.24096386,65e67470ae2fbf2172c317b2,65e87e4ce20711f8bf42deb8,,,,,,,,,,,802.0878,1.2,803.2869,803.2869,804.0213,right,1,0.7238,,804.0214,805.0208,3,7,55,14,1,partial,1,images/Ex7.jpg,right,training,hard,3,,,,,
,,,,,5a31373183019b00012f6322,001,40,female,english,high school,2024-03-06_14h32.25.575,CRL1h,2023.2.3,Win32,60.24096386,65e67470ae2fbf2172c317b2,65e87e4ce20711f8bf42deb8,,,,,,,,,,,805.021,0.9,805.9206,805.9207,806.7209,left,1,0.7945,,806.7209,807.721,3,8,56,0,1,partial,1,images/Ex1.jpg,left,training,hard,3,,,,,
,,,,,5a31373183019b00012f6322,001,40,female,english,high school,2024-03-06_14h32.25.575,CRL1h,2023.2.3,Win32,60.24096386,65e67470ae2fbf2172c317b2,65e87e4ce20711f8bf42deb8,,,,,,,,,,,807.7215,0.8,808.521,808.521,809.0542,left,1,0.5253,,809.0543,810.0543,3,9,57,8,1,partial,1,images/Ex1.jpg,left,training,hard,3,,,,,
,,,,,5a31373183019b00012f6322,001,40,female,english,high school,2024-03-06_14h32.25.575,CRL1h,2023.2.3,Win32,60.24096386,65e67470ae2fbf2172c317b2,65e87e4ce20711f8bf42deb8,,,,,,,,,,,810.0546,1,811.0537,811.0537,812.038,right,1,0.981,,812.038,813.0372,3,10,58,13,1,partial,1,images/Ex6.jpg,right,training,hard,3,,,,,
,,,,,5a31373183019b00012f6322,001,40,female,english,high school,2024-03-06_14h32.25.575,CRL1h,2023.2.3,Win32,60.24096386,65e67470ae2fbf2172c317b2,65e87e4ce20711f8bf42deb8,,,,,,,,,,,813.0376,0.6,813.6378,813.6378,814.7547,right,1,1.1059,,814.7547,815.7542,3,11,59,12,1,partial,1,images/Ex5.jpg,right,training,hard,3,,,,,
,,,,,5a31373183019b00012f6322,001,40,female,english,high school,2024-03-06_14h32.25.575,CRL1h,2023.2.3,Win32,60.24096386,65e67470ae2fbf2172c317b2,65e87e4ce20711f8bf42deb8,,,,,,,,,,,815.7546,0.7,816.4546,816.4546,817.6382,left,0,1.1771,,817.6382,818.638,3,12,60,5,1,partial,1,images/Ex6.jpg,right,training,hard,3,,,,,
,,,,,5a31373183019b00012f6322,001,40,female,english,high school,2024-03-06_14h32.25.575,CRL1h,2023.2.3,Win32,60.24096386,65e67470ae2fbf2172c317b2,65e87e4ce20711f8bf42deb8,,,,,,,,,,,818.6384,0.8,819.4378,819.4378,820.3549,left,1,0.9077,,820.355,821.3542,3,13,61,2,1,partial,1,images/Ex3.jpg,left,training,hard,3,,,,,
,,,,,5a31373183019b00012f6322,001,40,female,english,high school,2024-03-06_14h32.25.575,CRL1h,2023.2.3,Win32,60.24096386,65e67470ae2fbf2172c317b2,65e87e4ce20711f8bf42deb8,,,,,,,,,,,821.3545,1.1,822.4548,822.4548,823.0213,left,1,0.5621,,823.0214,824.021,3,14,62,10,1,partial,1,images/Ex3.jpg,left,training,hard,3,,,,,
,,,,,5a31373183019b00012f6322,001,40,female,english,high school,2024-03-06_14h32.25.575,CRL1h,2023.2.3,Win32,60.24096386,65e67470ae2fbf2172c317b2,65e87e4ce20711f8bf42deb8,,,,,,,,,,,824.0214,1.3,825.3214,825.3214,825.8387,left,1,0.5065,,825.8388,826.8381,3,15,63,3,1,partial,1,images/Ex4.jpg,left,training,hard,3,,,,,
,,,,,5a31373183019b00012f6322,001,40,female,english,high school,2024-03-06_14h32.25.575,CRL1h,2023.2.3,Win32,60.24096386,65e67470ae2fbf2172c317b2,65e87e4ce20711f8bf42deb8,,,,,,,,,,,826.8385,1,827.8388,827.8389,828.4556,right,1,0.6061,,828.4556,829.4551,4,0,64,7,1,partial,1,images/Ex8.jpg,right,training,hard,3,,,,,
,,,,,5a31373183019b00012f6322,001,40,female,english,high school,2024-03-06_14h32.25.575,CRL1h,2023.2.3,Win32,60.24096386,65e67470ae2fbf2172c317b2,65e87e4ce20711f8bf42deb8,,,,,,,,,,,829.4556,0.8,830.2555,830.2556,831.1728,right,1,0.9072,,831.1728,832.1718,4,1,65,12,1,partial,1,images/Ex5.jpg,right,training,hard,3,,,,,
,,,,,5a31373183019b00012f6322,001,40,female,english,high school,2024-03-06_14h32.25.575,CRL1h,2023.2.3,Win32,60.24096386,65e67470ae2fbf2172c317b2,65e87e4ce20711f8bf42deb8,,,,,,,,,,,832.1722,1,833.1725,833.1725,833.7389,left,1,0.5567,,833.7389,834.7391,4,2,66,3,1,partial,1,images/Ex4.jpg,left,training,hard,3,,,,,
,,,,,5a31373183019b00012f6322,001,40,female,english,high school,2024-03-06_14h32.25.575,CRL1h,2023.2.3,Win32,60.24096386,65e67470ae2fbf2172c317b2,65e87e4ce20711f8bf42deb8,,,,,,,,,,,834.7395,0.9,835.6393,835.6393,836.4221,right,0,0.7755,,836.4222,837.4219,4,3,67,9,1,partial,1,images/Ex2.jpg,left,training,hard,3,,,,,
,,,,,5a31373183019b00012f6322,001,40,female,english,high school,2024-03-06_14h32.25.575,CRL1h,2023.2.3,Win32,60.24096386,65e67470ae2fbf2172c317b2,65e87e4ce20711f8bf42deb8,,,,,,,,,,,837.4222,0.5,837.9224,837.9224,838.9894,left,0,1.0613,,838.9894,839.9895,4,4,68,13,1,partial,1,images/Ex6.jpg,right,training,hard,3,,,,,
,,,,,5a31373183019b00012f6322,001,40,female,english,high school,2024-03-06_14h32.25.575,CRL1h,2023.2.3,Win32,60.24096386,65e67470ae2fbf2172c317b2,65e87e4ce20711f8bf42deb8,,,,,,,,,,,839.9898,1,840.9892,840.9892,841.7562,right,0,0.7567,,841.7562,842.7562,4,5,69,2,1,partial,1,images/Ex3.jpg,left,training,hard,3,,,,,
,,,,,5a31373183019b00012f6322,001,40,female,english,high school,2024-03-06_14h32.25.575,CRL1h,2023.2.3,Win32,60.24096386,65e67470ae2fbf2172c317b2,65e87e4ce20711f8bf42deb8,,,,,,,,,,,842.7567,1.2,843.9557,843.9557,845.0061,left,1,1.0406,,845.0061,846.0058,4,6,70,8,1,partial,1,images/Ex1.jpg,left,training,hard,3,,,,,
,,,,,5a31373183019b00012f6322,001,40,female,english,high school,2024-03-06_14h32.25.575,CRL1h,2023.2.3,Win32,60.24096386,65e67470ae2fbf2172c317b2,65e87e4ce20711f8bf42deb8,,,,,,,,,,,846.0061,0.9,846.9057,846.9057,847.5222,left,1,0.6035,,847.5222,848.5231,4,7,71,1,1,partial,1,images/Ex2.jpg,left,training,hard,3,,,,,
,,,,,5a31373183019b00012f6322,001,40,female,english,high school,2024-03-06_14h32.25.575,CRL1h,2023.2.3,Win32,60.24096386,65e67470ae2fbf2172c317b2,65e87e4ce20711f8bf42deb8,,,,,,,,,,,848.5234,1,849.5236,849.5236,850.0897,left,0,0.5588,,850.0898,851.0902,4,8,72,5,1,partial,1,images/Ex6.jpg,right,training,hard,3,,,,,
,,,,,5a31373183019b00012f6322,001,40,female,english,high school,2024-03-06_14h32.25.575,CRL1h,2023.2.3,Win32,60.24096386,65e67470ae2fbf2172c317b2,65e87e4ce20711f8bf42deb8,,,,,,,,,,,851.0906,1.5,852.5901,852.5901,853.2735,left,1,0.6733,,853.2736,854.2734,4,9,73,11,1,partial,1,images/Ex4.jpg,left,training,hard,3,,,,,
,,,,,5a31373183019b00012f6322,001,40,female,english,high school,2024-03-06_14h32.25.575,CRL1h,2023.2.3,Win32,60.24096386,65e67470ae2fbf2172c317b2,65e87e4ce20711f8bf42deb8,,,,,,,,,,,854.2737,0.8,855.0739,855.074,855.8066,left,0,0.7313,,855.8066,856.807,4,10,74,6,1,partial,1,images/Ex7.jpg,right,training,hard,3,,,,,
,,,,,5a31373183019b00012f6322,001,40,female,english,high school,2024-03-06_14h32.25.575,CRL1h,2023.2.3,Win32,60.24096386,65e67470ae2fbf2172c317b2,65e87e4ce20711f8bf42deb8,,,,,,,,,,,856.8074,1.2,858.0073,858.0074,858.4074,right,1,0.3894,,858.4074,859.407,4,11,75,4,1,partial,1,images/Ex5.jpg,right,training,hard,3,,,,,
,,,,,5a31373183019b00012f6322,001,40,female,english,high school,2024-03-06_14h32.25.575,CRL1h,2023.2.3,Win32,60.24096386,65e67470ae2fbf2172c317b2,65e87e4ce20711f8bf42deb8,,,,,,,,,,,859.4074,1.4,860.8075,860.8075,861.6073,left,1,0.7889,,861.6073,862.6076,4,12,76,0,1,partial,1,images/Ex1.jpg,left,training,hard,3,,,,,
,,,,,5a31373183019b00012f6322,001,40,female,english,high school,2024-03-06_14h32.25.575,CRL1h,2023.2.3,Win32,60.24096386,65e67470ae2fbf2172c317b2,65e87e4ce20711f8bf42deb8,,,,,,,,,,,862.608,1.5,864.1069,864.1069,864.6741,right,1,0.5559,,864.6742,865.6742,4,13,77,15,1,partial,1,images/Ex8.jpg,right,training,hard,3,,,,,
,,,,,5a31373183019b00012f6322,001,40,female,english,high school,2024-03-06_14h32.25.575,CRL1h,2023.2.3,Win32,60.24096386,65e67470ae2fbf2172c317b2,65e87e4ce20711f8bf42deb8,,,,,,,,,,,865.6744,1.3,866.9742,866.9742,868.0073,right,0,1.0241,,868.0074,869.0078,4,14,78,10,1,partial,1,images/Ex3.jpg,left,training,hard,3,,,,,
,,,,,5a31373183019b00012f6322,001,40,female,english,high school,2024-03-06_14h32.25.575,CRL1h,2023.2.3,Win32,60.24096386,65e67470ae2fbf2172c317b2,65e87e4ce20711f8bf42deb8,,,,,,,,,,,869.0081,1.2,870.2078,870.2078,870.9241,left,0,0.7138,,870.9242,871.9239,4,15,79,14,1,partial,1,images/Ex7.jpg,right,training,hard,3,,,,,
,,,,,5a31373183019b00012f6322,001,40,female,english,high school,2024-03-06_14h32.25.575,CRL1h,2023.2.3,Win32,60.24096386,65e67470ae2fbf2172c317b2,65e87e4ce20711f8bf42deb8,,,,,,,,,,,871.9242,1.5,873.4244,873.4245,874.4417,right,1,1.0071,,874.4417,875.4415,5,0,80,6,1,partial,1,images/Ex7.jpg,right,training,hard,3,,,,,
,,,,,5a31373183019b00012f6322,001,40,female,english,high school,2024-03-06_14h32.25.575,CRL1h,2023.2.3,Win32,60.24096386,65e67470ae2fbf2172c317b2,65e87e4ce20711f8bf42deb8,,,,,,,,,,,875.4418,0.5,875.9417,875.9417,876.4246,right,0,0.4715,,876.4246,877.4246,5,1,81,0,1,partial,1,images/Ex1.jpg,left,training,hard,3,,,,,
,,,,,5a31373183019b00012f6322,001,40,female,english,high school,2024-03-06_14h32.25.575,CRL1h,2023.2.3,Win32,60.24096386,65e67470ae2fbf2172c317b2,65e87e4ce20711f8bf42deb8,,,,,,,,,,,877.4249,0.8,878.2252,878.2253,879.058,left,0,0.8289,,879.058,880.0585,5,2,82,4,1,partial,1,images/Ex5.jpg,right,training,hard,3,,,,,
,,,,,5a31373183019b00012f6322,001,40,female,english,high school,2024-03-06_14h32.25.575,CRL1h,2023.2.3,Win32,60.24096386,65e67470ae2fbf2172c317b2,65e87e4ce20711f8bf42deb8,,,,,,,,,,,880.0589,1,881.0581,881.0581,882.2083,right,0,1.1438,,882.2083,883.2083,5,3,83,8,1,partial,1,images/Ex1.jpg,left,training,hard,3,,,,,
,,,,,5a31373183019b00012f6322,001,40,female,english,high school,2024-03-06_14h32.25.575,CRL1h,2023.2.3,Win32,60.24096386,65e67470ae2fbf2172c317b2,65e87e4ce20711f8bf42deb8,,,,,,,,,,,883.2087,1.2,884.4087,884.4088,885.1582,left,0,0.7427,,885.1582,886.1588,5,4,84,14,1,partial,1,images/Ex7.jpg,right,training,hard,3,,,,,
,,,,,5a31373183019b00012f6322,001,40,female,english,high school,2024-03-06_14h32.25.575,CRL1h,2023.2.3,Win32,60.24096386,65e67470ae2fbf2172c317b2,65e87e4ce20711f8bf42deb8,,,,,,,,,,,886.1592,0.7,886.8592,886.8592,887.5254,right,0,0.6578,,887.5255,888.5254,5,5,85,9,1,partial,1,images/Ex2.jpg,left,training,hard,3,,,,,
,,,,,5a31373183019b00012f6322,001,40,female,english,high school,2024-03-06_14h32.25.575,CRL1h,2023.2.3,Win32,60.24096386,65e67470ae2fbf2172c317b2,65e87e4ce20711f8bf42deb8,,,,,,,,,,,888.5257,0.9,889.4253,889.4253,890.1589,left,0,0.7284,,890.159,891.159,5,6,86,5,1,partial,1,images/Ex6.jpg,right,training,hard,3,,,,,
,,,,,5a31373183019b00012f6322,001,40,female,english,high school,2024-03-06_14h32.25.575,CRL1h,2023.2.3,Win32,60.24096386,65e67470ae2fbf2172c317b2,65e87e4ce20711f8bf42deb8,,,,,,,,,,,891.1594,0.6,891.7591,891.7592,892.6425,right,0,0.8762,,892.6425,893.6424,5,7,87,1,1,partial,1,images/Ex2.jpg,left,training,hard,3,,,,,
,,,,,5a31373183019b00012f6322,001,40,female,english,high school,2024-03-06_14h32.25.575,CRL1h,2023.2.3,Win32,60.24096386,65e67470ae2fbf2172c317b2,65e87e4ce20711f8bf42deb8,,,,,,,,,,,893.6428,0.6,894.2429,894.2429,894.9425,left,0,0.6928,,894.9427,895.9427,5,8,88,12,1,partial,1,images/Ex5.jpg,right,training,hard,3,,,,,
,,,,,5a31373183019b00012f6322,001,40,female,english,high school,2024-03-06_14h32.25.575,CRL1h,2023.2.3,Win32,60.24096386,65e67470ae2fbf2172c317b2,65e87e4ce20711f8bf42deb8,,,,,,,,,,,895.9432,0.8,896.7424,896.7424,897.4755,left,1,0.7245,,897.4755,898.4763,5,9,89,3,1,partial,1,images/Ex4.jpg,left,training,hard,3,,,,,
,,,,,5a31373183019b00012f6322,001,40,female,english,high school,2024-03-06_14h32.25.575,CRL1h,2023.2.3,Win32,60.24096386,65e67470ae2fbf2172c317b2,65e87e4ce20711f8bf42deb8,,,,,,,,,,,898.4766,0.8,899.276,899.2761,900.0093,right,1,0.7224,,900.0093,901.0097,5,10,90,15,1,partial,1,images/Ex8.jpg,right,training,hard,3,,,,,
,,,,,5a31373183019b00012f6322,001,40,female,english,high school,2024-03-06_14h32.25.575,CRL1h,2023.2.3,Win32,60.24096386,65e67470ae2fbf2172c317b2,65e87e4ce20711f8bf42deb8,,,,,,,,,,,901.0101,1.2,902.2092,902.2092,903.3269,right,1,1.1134,,903.327,904.3268,5,11,91,13,1,partial,1,images/Ex6.jpg,right,training,hard,3,,,,,
,,,,,5a31373183019b00012f6322,001,40,female,english,high school,2024-03-06_14h32.25.575,CRL1h,2023.2.3,Win32,60.24096386,65e67470ae2fbf2172c317b2,65e87e4ce20711f8bf42deb8,,,,,,,,,,,904.3275,0.6,904.9264,904.9264,905.5098,left,1,0.5735,,905.5098,906.5098,5,12,92,11,1,partial,1,images/Ex4.jpg,left,training,hard,3,,,,,
,,,,,5a31373183019b00012f6322,001,40,female,english,high school,2024-03-06_14h32.25.575,CRL1h,2023.2.3,Win32,60.24096386,65e67470ae2fbf2172c317b2,65e87e4ce20711f8bf42deb8,,,,,,,,,,,906.5101,0.6,907.1099,907.1099,907.7766,right,1,0.659,,907.7766,908.7765,5,13,93,7,1,partial,1,images/Ex8.jpg,right,training,hard,3,,,,,
,,,,,5a31373183019b00012f6322,001,40,female,english,high school,2024-03-06_14h32.25.575,CRL1h,2023.2.3,Win32,60.24096386,65e67470ae2fbf2172c317b2,65e87e4ce20711f8bf42deb8,,,,,,,,,,,908.7769,1.1,909.8771,909.8771,911.0102,right,0,1.1211,,911.0102,912.0101,5,14,94,10,1,partial,1,images/Ex3.jpg,left,training,hard,3,,,,,
,,,,,5a31373183019b00012f6322,001,40,female,english,high school,2024-03-06_14h32.25.575,CRL1h,2023.2.3,Win32,60.24096386,65e67470ae2fbf2172c317b2,65e87e4ce20711f8bf42deb8,,,,,,,,,,,912.0107,1.4,913.4103,913.4103,913.9439,left,1,0.5241,,913.9439,914.9436,5,15,95,2,1,partial,1,images/Ex3.jpg,left,training,hard,3,,,,,
,,,,,5a31373183019b00012f6322,001,40,female,english,high school,2024-03-06_14h32.25.575,CRL1h,2023.2.3,Win32,60.24096386,65e67470ae2fbf2172c317b2,65e87e4ce20711f8bf42deb8,,,,,,,,,,,914.9441,0.9,915.844,915.844,916.5274,left,1,0.6758,,916.5274,917.5267,6,0,96,8,1,partial,1,images/Ex1.jpg,left,training,hard,3,,,,,
,,,,,5a31373183019b00012f6322,001,40,female,english,high school,2024-03-06_14h32.25.575,CRL1h,2023.2.3,Win32,60.24096386,65e67470ae2fbf2172c317b2,65e87e4ce20711f8bf42deb8,,,,,,,,,,,917.5271,1,918.5274,918.5274,919.1607,left,1,0.6297,,919.1607,920.1655,6,1,97,10,1,partial,1,images/Ex3.jpg,left,training,hard,3,,,,,
,,,,,5a31373183019b00012f6322,001,40,female,english,high school,2024-03-06_14h32.25.575,CRL1h,2023.2.3,Win32,60.24096386,65e67470ae2fbf2172c317b2,65e87e4ce20711f8bf42deb8,,,,,,,,,,,920.1658,1.1,921.2605,921.2605,921.8774,right,1,0.6092,,921.8774,922.8775,6,2,98,12,1,partial,1,images/Ex5.jpg,right,training,hard,3,,,,,
,,,,,5a31373183019b00012f6322,001,40,female,english,high school,2024-03-06_14h32.25.575,CRL1h,2023.2.3,Win32,60.24096386,65e67470ae2fbf2172c317b2,65e87e4ce20711f8bf42deb8,,,,,,,,,,,922.8783,0.5,923.3771,923.3771,924.0444,right,1,0.6586,,924.0445,925.0445,6,3,99,14,1,partial,1,images/Ex7.jpg,right,training,hard,3,,,,,
,,,,,5a31373183019b00012f6322,001,40,female,english,high school,2024-03-06_14h32.25.575,CRL1h,2023.2.3,Win32,60.24096386,65e67470ae2fbf2172c317b2,65e87e4ce20711f8bf42deb8,,,,,,,,,,,925.045,1.5,926.5443,926.5443,927.2616,right,0,0.7093,,927.2617,928.2611,6,4,100,9,1,partial,1,images/Ex2.jpg,left,training,hard,3,,,,,
,,,,,5a31373183019b00012f6322,001,40,female,english,high school,2024-03-06_14h32.25.575,CRL1h,2023.2.3,Win32,60.24096386,65e67470ae2fbf2172c317b2,65e87e4ce20711f8bf42deb8,,,,,,,,,,,928.2614,1,929.2601,929.2601,930.183,right,1,0.922,,930.183,931.1779,6,5,101,4,1,partial,1,images/Ex5.jpg,right,training,hard,3,,,,,
,,,,,5a31373183019b00012f6322,001,40,female,english,high school,2024-03-06_14h32.25.575,CRL1h,2023.2.3,Win32,60.24096386,65e67470ae2fbf2172c317b2,65e87e4ce20711f8bf42deb8,,,,,,,,,,,931.1783,0.9,932.0776,932.0776,932.7612,left,0,0.6744,,932.7612,933.7619,6,6,102,15,1,partial,1,images/Ex8.jpg,right,training,hard,3,,,,,
,,,,,5a31373183019b00012f6322,001,40,female,english,high school,2024-03-06_14h32.25.575,CRL1h,2023.2.3,Win32,60.24096386,65e67470ae2fbf2172c317b2,65e87e4ce20711f8bf42deb8,,,,,,,,,,,933.7629,0.9,934.6614,934.6614,935.3447,right,1,0.6813,,935.3448,936.3447,6,7,103,5,1,partial,1,images/Ex6.jpg,right,training,hard,3,,,,,
,,,,,5a31373183019b00012f6322,001,40,female,english,high school,2024-03-06_14h32.25.575,CRL1h,2023.2.3,Win32,60.24096386,65e67470ae2fbf2172c317b2,65e87e4ce20711f8bf42deb8,,,,,,,,,,,936.3451,0.9,937.2449,937.2449,937.945,left,1,0.6886,,937.945,938.945,6,8,104,11,1,partial,1,images/Ex4.jpg,left,training,hard,3,,,,,
,,,,,5a31373183019b00012f6322,001,40,female,english,high school,2024-03-06_14h32.25.575,CRL1h,2023.2.3,Win32,60.24096386,65e67470ae2fbf2172c317b2,65e87e4ce20711f8bf42deb8,,,,,,,,,,,938.9453,0.5,939.4448,939.4449,940.0791,left,1,0.6238,,940.0792,941.0788,6,9,105,0,1,partial,1,images/Ex1.jpg,left,training,hard,3,,,,,
,,,,,5a31373183019b00012f6322,001,40,female,english,high school,2024-03-06_14h32.25.575,CRL1h,2023.2.3,Win32,60.24096386,65e67470ae2fbf2172c317b2,65e87e4ce20711f8bf42deb8,,,,,,,,,,,941.0797,0.7,941.7788,941.7788,942.3783,right,1,0.5894,,942.3783,943.379,6,10,106,6,1,partial,1,images/Ex7.jpg,right,training,hard,3,,,,,
,,,,,5a31373183019b00012f6322,001,40,female,english,high school,2024-03-06_14h32.25.575,CRL1h,2023.2.3,Win32,60.24096386,65e67470ae2fbf2172c317b2,65e87e4ce20711f8bf42deb8,,,,,,,,,,,943.3799,0.9,944.2786,944.2787,944.9122,left,1,0.6258,,944.9122,945.9119,6,11,107,2,1,partial,1,images/Ex3.jpg,left,training,hard,3,,,,,
,,,,,5a31373183019b00012f6322,001,40,female,english,high school,2024-03-06_14h32.25.575,CRL1h,2023.2.3,Win32,60.24096386,65e67470ae2fbf2172c317b2,65e87e4ce20711f8bf42deb8,,,,,,,,,,,945.9124,1.4,947.3118,947.3118,948.2126,right,1,0.8973,,948.2126,949.2128,6,12,108,13,1,partial,1,images/Ex6.jpg,right,training,hard,3,,,,,
,,,,,5a31373183019b00012f6322,001,40,female,english,high school,2024-03-06_14h32.25.575,CRL1h,2023.2.3,Win32,60.24096386,65e67470ae2fbf2172c317b2,65e87e4ce20711f8bf42deb8,,,,,,,,,,,949.2137,1.1,950.3124,950.3124,951.1293,right,0,0.8089,,951.1293,952.1293,6,13,109,1,1,partial,1,images/Ex2.jpg,left,training,hard,3,,,,,
,,,,,5a31373183019b00012f6322,001,40,female,english,high school,2024-03-06_14h32.25.575,CRL1h,2023.2.3,Win32,60.24096386,65e67470ae2fbf2172c317b2,65e87e4ce20711f8bf42deb8,,,,,,,,,,,952.1295,1.3,953.429,953.429,954.0459,left,1,0.6063,,954.0459,955.046,6,14,110,3,1,partial,1,images/Ex4.jpg,left,training,hard,3,,,,,
,,,,,5a31373183019b00012f6322,001,40,female,english,high school,2024-03-06_14h32.25.575,CRL1h,2023.2.3,Win32,60.24096386,65e67470ae2fbf2172c317b2,65e87e4ce20711f8bf42deb8,,,,,,,,,,,955.0463,1.5,956.5458,956.5459,957.6293,left,0,1.0746,,957.6293,958.6294,6,15,111,7,1,partial,1,images/Ex8.jpg,right,training,hard,3,,,,,
,,,,,5a31373183019b00012f6322,001,40,female,english,high school,2024-03-06_14h32.25.575,CRL1h,2023.2.3,Win32,60.24096386,65e67470ae2fbf2172c317b2,65e87e4ce20711f8bf42deb8,,,,,,,,,,,958.6297,0.7,959.3287,959.3287,959.9296,right,1,0.5907,,959.9297,960.93,7,0,112,6,1,partial,1,images/Ex7.jpg,right,training,hard,3,,,,,
,,,,,5a31373183019b00012f6322,001,40,female,english,high school,2024-03-06_14h32.25.575,CRL1h,2023.2.3,Win32,60.24096386,65e67470ae2fbf2172c317b2,65e87e4ce20711f8bf42deb8,,,,,,,,,,,960.9304,1.2,962.1298,962.1298,962.73,right,0,0.5898,,962.73,963.7298,7,1,113,1,1,partial,1,images/Ex2.jpg,left,training,hard,3,,,,,
,,,,,5a31373183019b00012f6322,001,40,female,english,high school,2024-03-06_14h32.25.575,CRL1h,2023.2.3,Win32,60.24096386,65e67470ae2fbf2172c317b2,65e87e4ce20711f8bf42deb8,,,,,,,,,,,963.7302,1.2,964.93,964.93,965.7463,left,0,0.8049,,965.7463,966.7458,7,2,114,12,1,partial,1,images/Ex5.jpg,right,training,hard,3,,,,,
,,,,,5a31373183019b00012f6322,001,40,female,english,high school,2024-03-06_14h32.25.575,CRL1h,2023.2.3,Win32,60.24096386,65e67470ae2fbf2172c317b2,65e87e4ce20711f8bf42deb8,,,,,,,,,,,966.7462,1.3,968.0462,968.0463,968.9297,right,1,0.8735,,968.9297,969.9305,7,3,115,5,1,partial,1,images/Ex6.jpg,right,training,hard,3,,,,,
,,,,,5a31373183019b00012f6322,001,40,female,english,high school,2024-03-06_14h32.25.575,CRL1h,2023.2.3,Win32,60.24096386,65e67470ae2fbf2172c317b2,65e87e4ce20711f8bf42deb8,,,,,,,,,,,969.931,0.6,970.5299,970.5299,971.1135,left,1,0.5773,,971.1135,972.1135,7,4,116,9,1,partial,1,images/Ex2.jpg,left,training,hard,3,,,,,
,,,,,5a31373183019b00012f6322,001,40,female,english,high school,2024-03-06_14h32.25.575,CRL1h,2023.2.3,Win32,60.24096386,65e67470ae2fbf2172c317b2,65e87e4ce20711f8bf42deb8,,,,,,,,,,,972.1138,1.5,973.6138,973.6138,974.2473,left,1,0.6219,,974.2474,975.2474,7,5,117,0,1,partial,1,images/Ex1.jpg,left,training,hard,3,,,,,
,,,,,5a31373183019b00012f6322,001,40,female,english,high school,2024-03-06_14h32.25.575,CRL1h,2023.2.3,Win32,60.24096386,65e67470ae2fbf2172c317b2,65e87e4ce20711f8bf42deb8,,,,,,,,,,,975.2477,0.7,975.9473,975.9474,976.4135,left,1,0.4653,,976.4135,977.4139,7,6,118,8,1,partial,1,images/Ex1.jpg,left,training,hard,3,,,,,
,,,,,5a31373183019b00012f6322,001,40,female,english,high school,2024-03-06_14h32.25.575,CRL1h,2023.2.3,Win32,60.24096386,65e67470ae2fbf2172c317b2,65e87e4ce20711f8bf42deb8,,,,,,,,,,,977.4142,1,978.4141,978.4142,978.9805,right,1,0.5555,,978.9806,979.9814,7,7,119,15,1,partial,1,images/Ex8.jpg,right,training,hard,3,,,,,
