infCons.started,infCons.stopped,resp_consent.keys,resp_consent.rt,resp_consent.duration,participant,session,Age?,Gender?,Nationality?,Highest Educational Degree?,date,expName,psychopyVersion,OS,frameRate,STUDY_ID,SESSION_ID,instructions.started,instructions.stopped,resp_instructions.keys,resp_instructions.rt,resp_instructions.duration,nextTask.started,nextTask.stopped,ready_task.keys,ready_task.rt,ready_task.duration,fixation.started,ITI,fixation.stopped,stim.started,stim.stopped,response.keys,response.corr,response.rt,response.duration,feedback.started,feedback.stopped,trials.thisRepN,trials.thisTrialN,trials.thisN,trials.thisIndex,trials.ran,task,phase,Exemplars,r_correct,condition,difficulty,set,end.started,end.stopped,resp_end.keys,resp_end.rt,resp_end.duration
0,3.479,space,3.432,,5b98c8c1db823b0001ef5842,001,44,Male,British,Degree,2024-03-06_14h28.34.622,CRL1h,2023.2.3,MacIntel,118.4834123,65e67470ae2fbf2172c317b2,65e87d7097d094c63d95800e,,,,,,,,,,,,,,,,,,,,,,,,,,,,,,,,,,,,,,
,,,,,5b98c8c1db823b0001ef5842,001,44,Male,British,Degree,2024-03-06_14h28.34.622,CRL1h,2023.2.3,MacIntel,118.4834123,65e67470ae2fbf2172c317b2,65e87d7097d094c63d95800e,3.479,9.718,space,6.228,,,,,,,,,,,,,,,,,,,,,,,,,,,,,,,,,,
,,,,,5b98c8c1db823b0001ef5842,001,44,Male,British,Degree,2024-03-06_14h28.34.622,CRL1h,2023.2.3,MacIntel,118.4834123,65e67470ae2fbf2172c317b2,65e87d7097d094c63d95800e,,,,,,9.72,11.811,space,2.078,,11.816,0.8,12.617,12.617,40.892,left,1,28.264,,40.892,41.892,0,0,0,2,1,partial,1,images/Ex3.jpg,left,training,hard,3,,,,,
,,,,,5b98c8c1db823b0001ef5842,001,44,Male,British,Degree,2024-03-06_14h28.34.622,CRL1h,2023.2.3,MacIntel,118.4834123,65e67470ae2fbf2172c317b2,65e87d7097d094c63d95800e,,,,,,,,,,,41.894,1.2,43.092,43.092,44.022,right,0,0.925,,44.022,45.022,0,1,1,3,1,partial,1,images/Ex4.jpg,left,training,hard,3,,,,,
,,,,,5b98c8c1db823b0001ef5842,001,44,Male,British,Degree,2024-03-06_14h28.34.622,CRL1h,2023.2.3,MacIntel,118.4834123,65e67470ae2fbf2172c317b2,65e87d7097d094c63d95800e,,,,,,,,,,,45.024,0.8,45.821,45.821,47.929,right,1,2.104,,47.929,48.924,0,2,2,7,1,partial,1,images/Ex8.jpg,right,training,hard,3,,,,,
,,,,,5b98c8c1db823b0001ef5842,001,44,Male,British,Degree,2024-03-06_14h28.34.622,CRL1h,2023.2.3,MacIntel,118.4834123,65e67470ae2fbf2172c317b2,65e87d7097d094c63d95800e,,,,,,,,,,,48.924,1,49.924,49.924,50.642,left,0,0.713,,50.643,51.638,0,3,3,4,1,partial,1,images/Ex5.jpg,right,training,hard,3,,,,,
,,,,,5b98c8c1db823b0001ef5842,001,44,Male,British,Degree,2024-03-06_14h28.34.622,CRL1h,2023.2.3,MacIntel,118.4834123,65e67470ae2fbf2172c317b2,65e87d7097d094c63d95800e,,,,,,,,,,,51.639,1.4,53.038,53.038,53.926,right,1,0.882,,53.926,54.922,0,4,4,14,1,partial,1,images/Ex7.jpg,right,training,hard,3,,,,,
,,,,,5b98c8c1db823b0001ef5842,001,44,Male,British,Degree,2024-03-06_14h28.34.622,CRL1h,2023.2.3,MacIntel,118.4834123,65e67470ae2fbf2172c317b2,65e87d7097d094c63d95800e,,,,,,,,,,,54.922,0.8,55.722,55.722,56.558,right,0,0.828,,56.558,57.559,0,5,5,0,1,partial,1,images/Ex1.jpg,left,training,hard,3,,,,,
,,,,,5b98c8c1db823b0001ef5842,001,44,Male,British,Degree,2024-03-06_14h28.34.622,CRL1h,2023.2.3,MacIntel,118.4834123,65e67470ae2fbf2172c317b2,65e87d7097d094c63d95800e,,,,,,,,,,,57.561,1.4,58.967,58.967,59.482,right,1,0.512,,59.482,60.483,0,6,6,6,1,partial,1,images/Ex7.jpg,right,training,hard,3,,,,,
,,,,,5b98c8c1db823b0001ef5842,001,44,Male,British,Degree,2024-03-06_14h28.34.622,CRL1h,2023.2.3,MacIntel,118.4834123,65e67470ae2fbf2172c317b2,65e87d7097d094c63d95800e,,,,,,,,,,,60.484,1.2,61.68,61.68,62.246,left,0,0.565,,62.246,63.246,0,7,7,12,1,partial,1,images/Ex5.jpg,right,training,hard,3,,,,,
,,,,,5b98c8c1db823b0001ef5842,001,44,Male,British,Degree,2024-03-06_14h28.34.622,CRL1h,2023.2.3,MacIntel,118.4834123,65e67470ae2fbf2172c317b2,65e87d7097d094c63d95800e,,,,,,,,,,,63.247,0.7,63.946,63.946,65.439,left,1,1.483,,65.439,66.434,0,8,8,8,1,partial,1,images/Ex1.jpg,left,training,hard,3,,,,,
,,,,,5b98c8c1db823b0001ef5842,001,44,Male,British,Degree,2024-03-06_14h28.34.622,CRL1h,2023.2.3,MacIntel,118.4834123,65e67470ae2fbf2172c317b2,65e87d7097d094c63d95800e,,,,,,,,,,,66.434,1.3,67.729,67.729,68.576,left,1,0.84,,68.576,69.576,0,9,9,9,1,partial,1,images/Ex2.jpg,left,training,hard,3,,,,,
,,,,,5b98c8c1db823b0001ef5842,001,44,Male,British,Degree,2024-03-06_14h28.34.622,CRL1h,2023.2.3,MacIntel,118.4834123,65e67470ae2fbf2172c317b2,65e87d7097d094c63d95800e,,,,,,,,,,,69.577,1.3,70.871,70.871,71.434,right,1,0.555,,71.434,72.433,0,10,10,5,1,partial,1,images/Ex6.jpg,right,training,hard,3,,,,,
,,,,,5b98c8c1db823b0001ef5842,001,44,Male,British,Degree,2024-03-06_14h28.34.622,CRL1h,2023.2.3,MacIntel,118.4834123,65e67470ae2fbf2172c317b2,65e87d7097d094c63d95800e,,,,,,,,,,,72.433,1.1,73.534,73.534,73.929,left,0,0.393,,73.929,74.93,0,11,11,15,1,partial,1,images/Ex8.jpg,right,training,hard,3,,,,,
,,,,,5b98c8c1db823b0001ef5842,001,44,Male,British,Degree,2024-03-06_14h28.34.622,CRL1h,2023.2.3,MacIntel,118.4834123,65e67470ae2fbf2172c317b2,65e87d7097d094c63d95800e,,,,,,,,,,,74.93,0.6,75.526,75.526,76.396,left,1,0.868,,76.396,77.393,0,12,12,10,1,partial,1,images/Ex3.jpg,left,training,hard,3,,,,,
,,,,,5b98c8c1db823b0001ef5842,001,44,Male,British,Degree,2024-03-06_14h28.34.622,CRL1h,2023.2.3,MacIntel,118.4834123,65e67470ae2fbf2172c317b2,65e87d7097d094c63d95800e,,,,,,,,,,,77.393,1.3,78.693,78.693,81.457,right,0,2.746,,81.517,82.463,0,13,13,1,1,partial,1,images/Ex2.jpg,left,training,hard,3,,,,,
,,,,,5b98c8c1db823b0001ef5842,001,44,Male,British,Degree,2024-03-06_14h28.34.622,CRL1h,2023.2.3,MacIntel,118.4834123,65e67470ae2fbf2172c317b2,65e87d7097d094c63d95800e,,,,,,,,,,,82.463,1.2,83.659,83.659,84.865,right,0,1.198,,84.865,85.867,0,14,14,11,1,partial,1,images/Ex4.jpg,left,training,hard,3,,,,,
,,,,,5b98c8c1db823b0001ef5842,001,44,Male,British,Degree,2024-03-06_14h28.34.622,CRL1h,2023.2.3,MacIntel,118.4834123,65e67470ae2fbf2172c317b2,65e87d7097d094c63d95800e,,,,,,,,,,,85.867,1,86.865,86.866,87.729,right,1,0.846,,87.729,88.73,0,15,15,13,1,partial,1,images/Ex6.jpg,right,training,hard,3,,,,,
,,,,,5b98c8c1db823b0001ef5842,001,44,Male,British,Degree,2024-03-06_14h28.34.622,CRL1h,2023.2.3,MacIntel,118.4834123,65e67470ae2fbf2172c317b2,65e87d7097d094c63d95800e,,,,,,,,,,,88.73,1,89.729,89.729,90.876,right,0,1.139,,90.876,91.871,1,0,16,1,1,partial,1,images/Ex2.jpg,left,training,hard,3,,,,,
,,,,,5b98c8c1db823b0001ef5842,001,44,Male,British,Degree,2024-03-06_14h28.34.622,CRL1h,2023.2.3,MacIntel,118.4834123,65e67470ae2fbf2172c317b2,65e87d7097d094c63d95800e,,,,,,,,,,,91.873,0.8,92.672,92.672,93.459,left,0,0.777,,93.459,94.459,1,1,17,6,1,partial,1,images/Ex7.jpg,right,training,hard,3,,,,,
,,,,,5b98c8c1db823b0001ef5842,001,44,Male,British,Degree,2024-03-06_14h28.34.622,CRL1h,2023.2.3,MacIntel,118.4834123,65e67470ae2fbf2172c317b2,65e87d7097d094c63d95800e,,,,,,,,,,,94.46,0.7,95.159,95.159,95.892,right,0,0.725,,95.892,96.888,1,2,18,0,1,partial,1,images/Ex1.jpg,left,training,hard,3,,,,,
,,,,,5b98c8c1db823b0001ef5842,001,44,Male,British,Degree,2024-03-06_14h28.34.622,CRL1h,2023.2.3,MacIntel,118.4834123,65e67470ae2fbf2172c317b2,65e87d7097d094c63d95800e,,,,,,,,,,,96.89,0.6,97.492,97.492,98.819,right,0,1.321,,98.819,99.815,1,3,19,11,1,partial,1,images/Ex4.jpg,left,training,hard,3,,,,,
,,,,,5b98c8c1db823b0001ef5842,001,44,Male,British,Degree,2024-03-06_14h28.34.622,CRL1h,2023.2.3,MacIntel,118.4834123,65e67470ae2fbf2172c317b2,65e87d7097d094c63d95800e,,,,,,,,,,,99.815,1.4,101.213,101.213,102.884,right,1,1.668,,102.884,103.88,1,4,20,14,1,partial,1,images/Ex7.jpg,right,training,hard,3,,,,,
,,,,,5b98c8c1db823b0001ef5842,001,44,Male,British,Degree,2024-03-06_14h28.34.622,CRL1h,2023.2.3,MacIntel,118.4834123,65e67470ae2fbf2172c317b2,65e87d7097d094c63d95800e,,,,,,,,,,,103.88,0.8,104.672,104.672,105.273,right,1,0.599,,105.273,106.272,1,5,21,5,1,partial,1,images/Ex6.jpg,right,training,hard,3,,,,,
,,,,,5b98c8c1db823b0001ef5842,001,44,Male,British,Degree,2024-03-06_14h28.34.622,CRL1h,2023.2.3,MacIntel,118.4834123,65e67470ae2fbf2172c317b2,65e87d7097d094c63d95800e,,,,,,,,,,,106.273,0.9,107.172,107.172,107.655,right,1,0.48,,107.655,108.646,1,6,22,13,1,partial,1,images/Ex6.jpg,right,training,hard,3,,,,,
,,,,,5b98c8c1db823b0001ef5842,001,44,Male,British,Degree,2024-03-06_14h28.34.622,CRL1h,2023.2.3,MacIntel,118.4834123,65e67470ae2fbf2172c317b2,65e87d7097d094c63d95800e,,,,,,,,,,,108.648,0.6,109.245,109.245,110.717,right,1,1.468,,110.717,111.718,1,7,23,7,1,partial,1,images/Ex8.jpg,right,training,hard,3,,,,,
,,,,,5b98c8c1db823b0001ef5842,001,44,Male,British,Degree,2024-03-06_14h28.34.622,CRL1h,2023.2.3,MacIntel,118.4834123,65e67470ae2fbf2172c317b2,65e87d7097d094c63d95800e,,,,,,,,,,,111.719,0.7,112.413,112.413,113.155,right,0,0.74,,113.155,114.155,1,8,24,10,1,partial,1,images/Ex3.jpg,left,training,hard,3,,,,,
,,,,,5b98c8c1db823b0001ef5842,001,44,Male,British,Degree,2024-03-06_14h28.34.622,CRL1h,2023.2.3,MacIntel,118.4834123,65e67470ae2fbf2172c317b2,65e87d7097d094c63d95800e,,,,,,,,,,,114.156,1.2,115.352,115.352,119.204,left,1,3.847,,119.204,120.204,1,9,25,9,1,partial,1,images/Ex2.jpg,left,training,hard,3,,,,,
,,,,,5b98c8c1db823b0001ef5842,001,44,Male,British,Degree,2024-03-06_14h28.34.622,CRL1h,2023.2.3,MacIntel,118.4834123,65e67470ae2fbf2172c317b2,65e87d7097d094c63d95800e,,,,,,,,,,,120.208,1.1,121.313,121.313,121.563,left,0,0.247,,121.563,122.56,1,10,26,15,1,partial,1,images/Ex8.jpg,right,training,hard,3,,,,,
,,,,,5b98c8c1db823b0001ef5842,001,44,Male,British,Degree,2024-03-06_14h28.34.622,CRL1h,2023.2.3,MacIntel,118.4834123,65e67470ae2fbf2172c317b2,65e87d7097d094c63d95800e,,,,,,,,,,,122.561,0.8,123.355,123.355,123.684,right,1,0.322,,123.684,124.68,1,11,27,4,1,partial,1,images/Ex5.jpg,right,training,hard,3,,,,,
,,,,,5b98c8c1db823b0001ef5842,001,44,Male,British,Degree,2024-03-06_14h28.34.622,CRL1h,2023.2.3,MacIntel,118.4834123,65e67470ae2fbf2172c317b2,65e87d7097d094c63d95800e,,,,,,,,,,,124.682,0.6,125.284,125.284,126.376,right,1,1.09,,126.376,127.376,1,12,28,12,1,partial,1,images/Ex5.jpg,right,training,hard,3,,,,,
,,,,,5b98c8c1db823b0001ef5842,001,44,Male,British,Degree,2024-03-06_14h28.34.622,CRL1h,2023.2.3,MacIntel,118.4834123,65e67470ae2fbf2172c317b2,65e87d7097d094c63d95800e,,,,,,,,,,,127.378,1.2,128.582,128.583,128.707,right,0,0.121,,128.707,129.702,1,13,29,2,1,partial,1,images/Ex3.jpg,left,training,hard,3,,,,,
,,,,,5b98c8c1db823b0001ef5842,001,44,Male,British,Degree,2024-03-06_14h28.34.622,CRL1h,2023.2.3,MacIntel,118.4834123,65e67470ae2fbf2172c317b2,65e87d7097d094c63d95800e,,,,,,,,,,,129.703,0.5,130.206,130.206,130.501,left,1,0.287,,130.501,131.501,1,14,30,8,1,partial,1,images/Ex1.jpg,left,training,hard,3,,,,,
,,,,,5b98c8c1db823b0001ef5842,001,44,Male,British,Degree,2024-03-06_14h28.34.622,CRL1h,2023.2.3,MacIntel,118.4834123,65e67470ae2fbf2172c317b2,65e87d7097d094c63d95800e,,,,,,,,,,,131.502,0.5,131.997,131.997,132.475,left,1,0.472,,132.475,133.476,1,15,31,3,1,partial,1,images/Ex4.jpg,left,training,hard,3,,,,,
,,,,,5b98c8c1db823b0001ef5842,001,44,Male,British,Degree,2024-03-06_14h28.34.622,CRL1h,2023.2.3,MacIntel,118.4834123,65e67470ae2fbf2172c317b2,65e87d7097d094c63d95800e,,,,,,,,,,,133.477,0.9,134.376,134.376,134.855,left,1,0.473,,134.855,135.851,2,0,32,10,1,partial,1,images/Ex3.jpg,left,training,hard,3,,,,,
,,,,,5b98c8c1db823b0001ef5842,001,44,Male,British,Degree,2024-03-06_14h28.34.622,CRL1h,2023.2.3,MacIntel,118.4834123,65e67470ae2fbf2172c317b2,65e87d7097d094c63d95800e,,,,,,,,,,,135.852,1.1,136.954,136.954,137.401,right,1,0.444,,137.401,138.401,2,1,33,7,1,partial,1,images/Ex8.jpg,right,training,hard,3,,,,,
,,,,,5b98c8c1db823b0001ef5842,001,44,Male,British,Degree,2024-03-06_14h28.34.622,CRL1h,2023.2.3,MacIntel,118.4834123,65e67470ae2fbf2172c317b2,65e87d7097d094c63d95800e,,,,,,,,,,,138.401,0.9,139.301,139.301,139.926,right,0,0.62,,139.926,140.926,2,2,34,8,1,partial,1,images/Ex1.jpg,left,training,hard,3,,,,,
,,,,,5b98c8c1db823b0001ef5842,001,44,Male,British,Degree,2024-03-06_14h28.34.622,CRL1h,2023.2.3,MacIntel,118.4834123,65e67470ae2fbf2172c317b2,65e87d7097d094c63d95800e,,,,,,,,,,,140.927,1.5,142.422,142.422,144.451,right,1,2.023,,144.451,145.451,2,3,35,15,1,partial,1,images/Ex8.jpg,right,training,hard,3,,,,,
,,,,,5b98c8c1db823b0001ef5842,001,44,Male,British,Degree,2024-03-06_14h28.34.622,CRL1h,2023.2.3,MacIntel,118.4834123,65e67470ae2fbf2172c317b2,65e87d7097d094c63d95800e,,,,,,,,,,,145.452,1.4,146.847,146.847,147.055,right,1,0.202,,147.055,148.055,2,4,36,5,1,partial,1,images/Ex6.jpg,right,training,hard,3,,,,,
,,,,,5b98c8c1db823b0001ef5842,001,44,Male,British,Degree,2024-03-06_14h28.34.622,CRL1h,2023.2.3,MacIntel,118.4834123,65e67470ae2fbf2172c317b2,65e87d7097d094c63d95800e,,,,,,,,,,,148.056,0.9,148.955,148.955,150.322,left,0,1.362,,150.323,151.318,2,5,37,14,1,partial,1,images/Ex7.jpg,right,training,hard,3,,,,,
,,,,,5b98c8c1db823b0001ef5842,001,44,Male,British,Degree,2024-03-06_14h28.34.622,CRL1h,2023.2.3,MacIntel,118.4834123,65e67470ae2fbf2172c317b2,65e87d7097d094c63d95800e,,,,,,,,,,,151.321,0.8,152.122,152.122,152.493,left,1,0.367,,152.493,153.488,2,6,38,9,1,partial,1,images/Ex2.jpg,left,training,hard,3,,,,,
,,,,,5b98c8c1db823b0001ef5842,001,44,Male,British,Degree,2024-03-06_14h28.34.622,CRL1h,2023.2.3,MacIntel,118.4834123,65e67470ae2fbf2172c317b2,65e87d7097d094c63d95800e,,,,,,,,,,,153.489,1.4,154.885,154.885,155.643,left,1,0.749,,155.643,156.644,2,7,39,3,1,partial,1,images/Ex4.jpg,left,training,hard,3,,,,,
,,,,,5b98c8c1db823b0001ef5842,001,44,Male,British,Degree,2024-03-06_14h28.34.622,CRL1h,2023.2.3,MacIntel,118.4834123,65e67470ae2fbf2172c317b2,65e87d7097d094c63d95800e,,,,,,,,,,,156.645,0.8,157.447,157.447,159.488,left,0,2.038,,159.488,160.485,2,8,40,4,1,partial,1,images/Ex5.jpg,right,training,hard,3,,,,,
,,,,,5b98c8c1db823b0001ef5842,001,44,Male,British,Degree,2024-03-06_14h28.34.622,CRL1h,2023.2.3,MacIntel,118.4834123,65e67470ae2fbf2172c317b2,65e87d7097d094c63d95800e,,,,,,,,,,,160.485,0.6,161.085,161.085,162.118,right,0,1.029,,162.118,163.118,2,9,41,11,1,partial,1,images/Ex4.jpg,left,training,hard,3,,,,,
,,,,,5b98c8c1db823b0001ef5842,001,44,Male,British,Degree,2024-03-06_14h28.34.622,CRL1h,2023.2.3,MacIntel,118.4834123,65e67470ae2fbf2172c317b2,65e87d7097d094c63d95800e,,,,,,,,,,,163.119,1.1,164.221,164.221,165.106,right,1,0.879,,165.106,166.105,2,10,42,12,1,partial,1,images/Ex5.jpg,right,training,hard,3,,,,,
,,,,,5b98c8c1db823b0001ef5842,001,44,Male,British,Degree,2024-03-06_14h28.34.622,CRL1h,2023.2.3,MacIntel,118.4834123,65e67470ae2fbf2172c317b2,65e87d7097d094c63d95800e,,,,,,,,,,,166.106,1.3,167.402,167.402,167.76,left,0,0.351,,167.76,168.755,2,11,43,6,1,partial,1,images/Ex7.jpg,right,training,hard,3,,,,,
,,,,,5b98c8c1db823b0001ef5842,001,44,Male,British,Degree,2024-03-06_14h28.34.622,CRL1h,2023.2.3,MacIntel,118.4834123,65e67470ae2fbf2172c317b2,65e87d7097d094c63d95800e,,,,,,,,,,,168.757,1.2,169.951,169.951,170.414,left,1,0.459,,170.414,171.41,2,12,44,2,1,partial,1,images/Ex3.jpg,left,training,hard,3,,,,,
,,,,,5b98c8c1db823b0001ef5842,001,44,Male,British,Degree,2024-03-06_14h28.34.622,CRL1h,2023.2.3,MacIntel,118.4834123,65e67470ae2fbf2172c317b2,65e87d7097d094c63d95800e,,,,,,,,,,,171.41,1.1,172.51,172.51,172.864,right,0,0.354,,172.865,173.865,2,13,45,0,1,partial,1,images/Ex1.jpg,left,training,hard,3,,,,,
,,,,,5b98c8c1db823b0001ef5842,001,44,Male,British,Degree,2024-03-06_14h28.34.622,CRL1h,2023.2.3,MacIntel,118.4834123,65e67470ae2fbf2172c317b2,65e87d7097d094c63d95800e,,,,,,,,,,,173.866,1,174.863,174.863,175.543,left,0,0.673,,175.543,176.54,2,14,46,13,1,partial,1,images/Ex6.jpg,right,training,hard,3,,,,,
,,,,,5b98c8c1db823b0001ef5842,001,44,Male,British,Degree,2024-03-06_14h28.34.622,CRL1h,2023.2.3,MacIntel,118.4834123,65e67470ae2fbf2172c317b2,65e87d7097d094c63d95800e,,,,,,,,,,,176.541,0.8,177.337,177.337,177.478,left,1,0.14,,177.478,178.477,2,15,47,1,1,partial,1,images/Ex2.jpg,left,training,hard,3,,,,,
,,,,,5b98c8c1db823b0001ef5842,001,44,Male,British,Degree,2024-03-06_14h28.34.622,CRL1h,2023.2.3,MacIntel,118.4834123,65e67470ae2fbf2172c317b2,65e87d7097d094c63d95800e,,,,,,,,,,,178.477,0.9,179.377,179.378,179.412,left,1,0.032,,179.412,180.41,3,0,48,0,1,partial,1,images/Ex1.jpg,left,training,hard,3,,,,,
,,,,,5b98c8c1db823b0001ef5842,001,44,Male,British,Degree,2024-03-06_14h28.34.622,CRL1h,2023.2.3,MacIntel,118.4834123,65e67470ae2fbf2172c317b2,65e87d7097d094c63d95800e,,,,,,,,,,,180.412,1,181.409,181.409,181.634,left,1,0.223,,181.634,182.634,3,1,49,11,1,partial,1,images/Ex4.jpg,left,training,hard,3,,,,,
,,,,,5b98c8c1db823b0001ef5842,001,44,Male,British,Degree,2024-03-06_14h28.34.622,CRL1h,2023.2.3,MacIntel,118.4834123,65e67470ae2fbf2172c317b2,65e87d7097d094c63d95800e,,,,,,,,,,,182.635,1,183.631,183.633,184.589,right,0,0.95,,184.589,185.585,3,2,50,3,1,partial,1,images/Ex4.jpg,left,training,hard,3,,,,,
,,,,,5b98c8c1db823b0001ef5842,001,44,Male,British,Degree,2024-03-06_14h28.34.622,CRL1h,2023.2.3,MacIntel,118.4834123,65e67470ae2fbf2172c317b2,65e87d7097d094c63d95800e,,,,,,,,,,,185.585,1.3,186.884,186.884,187.993,right,0,1.106,,187.993,188.993,3,3,51,10,1,partial,1,images/Ex3.jpg,left,training,hard,3,,,,,
,,,,,5b98c8c1db823b0001ef5842,001,44,Male,British,Degree,2024-03-06_14h28.34.622,CRL1h,2023.2.3,MacIntel,118.4834123,65e67470ae2fbf2172c317b2,65e87d7097d094c63d95800e,,,,,,,,,,,188.995,1,189.989,189.989,190.642,left,0,0.647,,190.643,191.644,3,4,52,5,1,partial,1,images/Ex6.jpg,right,training,hard,3,,,,,
,,,,,5b98c8c1db823b0001ef5842,001,44,Male,British,Degree,2024-03-06_14h28.34.622,CRL1h,2023.2.3,MacIntel,118.4834123,65e67470ae2fbf2172c317b2,65e87d7097d094c63d95800e,,,,,,,,,,,191.645,0.8,192.452,192.452,193.604,left,1,1.151,,193.604,194.604,3,5,53,8,1,partial,1,images/Ex1.jpg,left,training,hard,3,,,,,
,,,,,5b98c8c1db823b0001ef5842,001,44,Male,British,Degree,2024-03-06_14h28.34.622,CRL1h,2023.2.3,MacIntel,118.4834123,65e67470ae2fbf2172c317b2,65e87d7097d094c63d95800e,,,,,,,,,,,194.605,0.6,195.205,195.205,196.556,right,0,1.344,,196.556,197.556,3,6,54,9,1,partial,1,images/Ex2.jpg,left,training,hard,3,,,,,
,,,,,5b98c8c1db823b0001ef5842,001,44,Male,British,Degree,2024-03-06_14h28.34.622,CRL1h,2023.2.3,MacIntel,118.4834123,65e67470ae2fbf2172c317b2,65e87d7097d094c63d95800e,,,,,,,,,,,197.556,1.2,198.755,198.755,199.164,right,1,0.405,,199.164,200.164,3,7,55,14,1,partial,1,images/Ex7.jpg,right,training,hard,3,,,,,
,,,,,5b98c8c1db823b0001ef5842,001,44,Male,British,Degree,2024-03-06_14h28.34.622,CRL1h,2023.2.3,MacIntel,118.4834123,65e67470ae2fbf2172c317b2,65e87d7097d094c63d95800e,,,,,,,,,,,200.165,0.6,200.764,200.764,201.357,right,1,0.577,,201.357,202.355,3,8,56,6,1,partial,1,images/Ex7.jpg,right,training,hard,3,,,,,
,,,,,5b98c8c1db823b0001ef5842,001,44,Male,British,Degree,2024-03-06_14h28.34.622,CRL1h,2023.2.3,MacIntel,118.4834123,65e67470ae2fbf2172c317b2,65e87d7097d094c63d95800e,,,,,,,,,,,202.357,1,203.356,203.356,203.736,left,0,0.373,,203.736,204.73,3,9,57,12,1,partial,1,images/Ex5.jpg,right,training,hard,3,,,,,
,,,,,5b98c8c1db823b0001ef5842,001,44,Male,British,Degree,2024-03-06_14h28.34.622,CRL1h,2023.2.3,MacIntel,118.4834123,65e67470ae2fbf2172c317b2,65e87d7097d094c63d95800e,,,,,,,,,,,204.73,0.5,205.23,205.23,205.605,left,1,0.371,,205.605,206.605,3,10,58,2,1,partial,1,images/Ex3.jpg,left,training,hard,3,,,,,
,,,,,5b98c8c1db823b0001ef5842,001,44,Male,British,Degree,2024-03-06_14h28.34.622,CRL1h,2023.2.3,MacIntel,118.4834123,65e67470ae2fbf2172c317b2,65e87d7097d094c63d95800e,,,,,,,,,,,206.606,0.7,207.306,207.306,207.471,left,0,0.159,,207.472,208.473,3,11,59,13,1,partial,1,images/Ex6.jpg,right,training,hard,3,,,,,
,,,,,5b98c8c1db823b0001ef5842,001,44,Male,British,Degree,2024-03-06_14h28.34.622,CRL1h,2023.2.3,MacIntel,118.4834123,65e67470ae2fbf2172c317b2,65e87d7097d094c63d95800e,,,,,,,,,,,208.474,1.3,209.772,209.772,210.443,left,0,0.663,,210.443,211.439,3,12,60,15,1,partial,1,images/Ex8.jpg,right,training,hard,3,,,,,
,,,,,5b98c8c1db823b0001ef5842,001,44,Male,British,Degree,2024-03-06_14h28.34.622,CRL1h,2023.2.3,MacIntel,118.4834123,65e67470ae2fbf2172c317b2,65e87d7097d094c63d95800e,,,,,,,,,,,211.44,0.9,212.334,212.334,213.122,left,0,0.782,,213.123,214.122,3,13,61,7,1,partial,1,images/Ex8.jpg,right,training,hard,3,,,,,
,,,,,5b98c8c1db823b0001ef5842,001,44,Male,British,Degree,2024-03-06_14h28.34.622,CRL1h,2023.2.3,MacIntel,118.4834123,65e67470ae2fbf2172c317b2,65e87d7097d094c63d95800e,,,,,,,,,,,214.122,0.9,215.019,215.019,215.552,right,0,0.531,,215.552,216.549,3,14,62,1,1,partial,1,images/Ex2.jpg,left,training,hard,3,,,,,
,,,,,5b98c8c1db823b0001ef5842,001,44,Male,British,Degree,2024-03-06_14h28.34.622,CRL1h,2023.2.3,MacIntel,118.4834123,65e67470ae2fbf2172c317b2,65e87d7097d094c63d95800e,,,,,,,,,,,216.551,1,217.55,217.55,217.864,right,1,0.313,,217.864,218.86,3,15,63,4,1,partial,1,images/Ex5.jpg,right,training,hard,3,,,,,
,,,,,5b98c8c1db823b0001ef5842,001,44,Male,British,Degree,2024-03-06_14h28.34.622,CRL1h,2023.2.3,MacIntel,118.4834123,65e67470ae2fbf2172c317b2,65e87d7097d094c63d95800e,,,,,,,,,,,218.861,0.6,219.46,219.46,219.935,right,0,0.473,,219.936,220.934,4,0,64,2,1,partial,1,images/Ex3.jpg,left,training,hard,3,,,,,
,,,,,5b98c8c1db823b0001ef5842,001,44,Male,British,Degree,2024-03-06_14h28.34.622,CRL1h,2023.2.3,MacIntel,118.4834123,65e67470ae2fbf2172c317b2,65e87d7097d094c63d95800e,,,,,,,,,,,220.934,0.8,221.734,221.734,222.256,right,0,0.516,,222.256,223.252,4,1,65,8,1,partial,1,images/Ex1.jpg,left,training,hard,3,,,,,
,,,,,5b98c8c1db823b0001ef5842,001,44,Male,British,Degree,2024-03-06_14h28.34.622,CRL1h,2023.2.3,MacIntel,118.4834123,65e67470ae2fbf2172c317b2,65e87d7097d094c63d95800e,,,,,,,,,,,223.253,1.4,224.651,224.651,224.752,right,1,0.094,,224.752,225.747,4,2,66,6,1,partial,1,images/Ex7.jpg,right,training,hard,3,,,,,
,,,,,5b98c8c1db823b0001ef5842,001,44,Male,British,Degree,2024-03-06_14h28.34.622,CRL1h,2023.2.3,MacIntel,118.4834123,65e67470ae2fbf2172c317b2,65e87d7097d094c63d95800e,,,,,,,,,,,225.747,0.7,226.448,226.448,227.269,left,0,0.819,,227.269,228.267,4,3,67,15,1,partial,1,images/Ex8.jpg,right,training,hard,3,,,,,
,,,,,5b98c8c1db823b0001ef5842,001,44,Male,British,Degree,2024-03-06_14h28.34.622,CRL1h,2023.2.3,MacIntel,118.4834123,65e67470ae2fbf2172c317b2,65e87d7097d094c63d95800e,,,,,,,,,,,228.268,1.3,229.564,229.564,230.31,left,0,0.738,,230.31,231.306,4,4,68,7,1,partial,1,images/Ex8.jpg,right,training,hard,3,,,,,
,,,,,5b98c8c1db823b0001ef5842,001,44,Male,British,Degree,2024-03-06_14h28.34.622,CRL1h,2023.2.3,MacIntel,118.4834123,65e67470ae2fbf2172c317b2,65e87d7097d094c63d95800e,,,,,,,,,,,231.307,1.4,232.706,232.706,233.144,left,0,0.43,,233.144,234.14,4,5,69,14,1,partial,1,images/Ex7.jpg,right,training,hard,3,,,,,
,,,,,5b98c8c1db823b0001ef5842,001,44,Male,British,Degree,2024-03-06_14h28.34.622,CRL1h,2023.2.3,MacIntel,118.4834123,65e67470ae2fbf2172c317b2,65e87d7097d094c63d95800e,,,,,,,,,,,234.141,0.5,234.64,234.64,234.851,left,0,0.209,,234.851,235.845,4,6,70,4,1,partial,1,images/Ex5.jpg,right,training,hard,3,,,,,
,,,,,5b98c8c1db823b0001ef5842,001,44,Male,British,Degree,2024-03-06_14h28.34.622,CRL1h,2023.2.3,MacIntel,118.4834123,65e67470ae2fbf2172c317b2,65e87d7097d094c63d95800e,,,,,,,,,,,235.847,1,236.843,236.843,237.136,right,1,0.289,,237.136,238.13,4,7,71,12,1,partial,1,images/Ex5.jpg,right,training,hard,3,,,,,
,,,,,5b98c8c1db823b0001ef5842,001,44,Male,British,Degree,2024-03-06_14h28.34.622,CRL1h,2023.2.3,MacIntel,118.4834123,65e67470ae2fbf2172c317b2,65e87d7097d094c63d95800e,,,,,,,,,,,238.131,1.1,239.227,239.227,239.306,right,0,0.075,,239.306,240.306,4,8,72,1,1,partial,1,images/Ex2.jpg,left,training,hard,3,,,,,
,,,,,5b98c8c1db823b0001ef5842,001,44,Male,British,Degree,2024-03-06_14h28.34.622,CRL1h,2023.2.3,MacIntel,118.4834123,65e67470ae2fbf2172c317b2,65e87d7097d094c63d95800e,,,,,,,,,,,240.307,1.2,241.502,241.502,241.808,left,0,0.294,,241.808,242.807,4,9,73,5,1,partial,1,images/Ex6.jpg,right,training,hard,3,,,,,
,,,,,5b98c8c1db823b0001ef5842,001,44,Male,British,Degree,2024-03-06_14h28.34.622,CRL1h,2023.2.3,MacIntel,118.4834123,65e67470ae2fbf2172c317b2,65e87d7097d094c63d95800e,,,,,,,,,,,242.807,0.7,243.502,243.502,243.902,left,1,0.397,,243.902,244.897,4,10,74,10,1,partial,1,images/Ex3.jpg,left,training,hard,3,,,,,
,,,,,5b98c8c1db823b0001ef5842,001,44,Male,British,Degree,2024-03-06_14h28.34.622,CRL1h,2023.2.3,MacIntel,118.4834123,65e67470ae2fbf2172c317b2,65e87d7097d094c63d95800e,,,,,,,,,,,244.898,0.5,245.394,245.394,245.944,right,0,0.546,,245.944,246.945,4,11,75,3,1,partial,1,images/Ex4.jpg,left,training,hard,3,,,,,
,,,,,5b98c8c1db823b0001ef5842,001,44,Male,British,Degree,2024-03-06_14h28.34.622,CRL1h,2023.2.3,MacIntel,118.4834123,65e67470ae2fbf2172c317b2,65e87d7097d094c63d95800e,,,,,,,,,,,246.948,0.7,247.642,247.642,248.06,left,0,0.411,,248.061,249.064,4,12,76,13,1,partial,1,images/Ex6.jpg,right,training,hard,3,,,,,
,,,,,5b98c8c1db823b0001ef5842,001,44,Male,British,Degree,2024-03-06_14h28.34.622,CRL1h,2023.2.3,MacIntel,118.4834123,65e67470ae2fbf2172c317b2,65e87d7097d094c63d95800e,,,,,,,,,,,249.066,1.4,250.465,250.465,250.851,left,1,0.38,,250.851,251.852,4,13,77,0,1,partial,1,images/Ex1.jpg,left,training,hard,3,,,,,
,,,,,5b98c8c1db823b0001ef5842,001,44,Male,British,Degree,2024-03-06_14h28.34.622,CRL1h,2023.2.3,MacIntel,118.4834123,65e67470ae2fbf2172c317b2,65e87d7097d094c63d95800e,,,,,,,,,,,251.853,1,252.854,252.854,253.501,right,0,0.646,,253.501,254.499,4,14,78,11,1,partial,1,images/Ex4.jpg,left,training,hard,3,,,,,
,,,,,5b98c8c1db823b0001ef5842,001,44,Male,British,Degree,2024-03-06_14h28.34.622,CRL1h,2023.2.3,MacIntel,118.4834123,65e67470ae2fbf2172c317b2,65e87d7097d094c63d95800e,,,,,,,,,,,254.5,0.5,254.998,254.998,255.822,right,0,0.819,,255.822,256.818,4,15,79,9,1,partial,1,images/Ex2.jpg,left,training,hard,3,,,,,
,,,,,5b98c8c1db823b0001ef5842,001,44,Male,British,Degree,2024-03-06_14h28.34.622,CRL1h,2023.2.3,MacIntel,118.4834123,65e67470ae2fbf2172c317b2,65e87d7097d094c63d95800e,,,,,,,,,,,256.82,0.8,257.623,257.623,257.784,right,1,0.158,,257.784,258.781,5,0,80,12,1,partial,1,images/Ex5.jpg,right,training,hard,3,,,,,
,,,,,5b98c8c1db823b0001ef5842,001,44,Male,British,Degree,2024-03-06_14h28.34.622,CRL1h,2023.2.3,MacIntel,118.4834123,65e67470ae2fbf2172c317b2,65e87d7097d094c63d95800e,,,,,,,,,,,258.782,0.8,259.579,259.579,260.119,left,1,0.536,,260.119,261.115,5,1,81,2,1,partial,1,images/Ex3.jpg,left,training,hard,3,,,,,
,,,,,5b98c8c1db823b0001ef5842,001,44,Male,British,Degree,2024-03-06_14h28.34.622,CRL1h,2023.2.3,MacIntel,118.4834123,65e67470ae2fbf2172c317b2,65e87d7097d094c63d95800e,,,,,,,,,,,261.116,0.6,261.714,261.714,262.695,left,0,0.98,,262.695,263.693,5,2,82,7,1,partial,1,images/Ex8.jpg,right,training,hard,3,,,,,
,,,,,5b98c8c1db823b0001ef5842,001,44,Male,British,Degree,2024-03-06_14h28.34.622,CRL1h,2023.2.3,MacIntel,118.4834123,65e67470ae2fbf2172c317b2,65e87d7097d094c63d95800e,,,,,,,,,,,263.695,1.4,265.095,265.095,265.439,right,0,0.342,,265.439,266.44,5,3,83,10,1,partial,1,images/Ex3.jpg,left,training,hard,3,,,,,
,,,,,5b98c8c1db823b0001ef5842,001,44,Male,British,Degree,2024-03-06_14h28.34.622,CRL1h,2023.2.3,MacIntel,118.4834123,65e67470ae2fbf2172c317b2,65e87d7097d094c63d95800e,,,,,,,,,,,266.44,0.9,267.34,267.34,268.523,right,0,1.175,,268.523,269.523,5,4,84,8,1,partial,1,images/Ex1.jpg,left,training,hard,3,,,,,
,,,,,5b98c8c1db823b0001ef5842,001,44,Male,British,Degree,2024-03-06_14h28.34.622,CRL1h,2023.2.3,MacIntel,118.4834123,65e67470ae2fbf2172c317b2,65e87d7097d094c63d95800e,,,,,,,,,,,269.525,0.8,270.323,270.323,270.811,left,0,0.482,,270.811,271.811,5,5,85,4,1,partial,1,images/Ex5.jpg,right,training,hard,3,,,,,
,,,,,5b98c8c1db823b0001ef5842,001,44,Male,British,Degree,2024-03-06_14h28.34.622,CRL1h,2023.2.3,MacIntel,118.4834123,65e67470ae2fbf2172c317b2,65e87d7097d094c63d95800e,,,,,,,,,,,271.812,1.4,273.212,273.212,273.955,left,1,0.74,,273.955,274.955,5,6,86,11,1,partial,1,images/Ex4.jpg,left,training,hard,3,,,,,
,,,,,5b98c8c1db823b0001ef5842,001,44,Male,British,Degree,2024-03-06_14h28.34.622,CRL1h,2023.2.3,MacIntel,118.4834123,65e67470ae2fbf2172c317b2,65e87d7097d094c63d95800e,,,,,,,,,,,274.956,0.7,275.653,275.653,276.619,left,1,0.959,,276.619,277.619,5,7,87,9,1,partial,1,images/Ex2.jpg,left,training,hard,3,,,,,
,,,,,5b98c8c1db823b0001ef5842,001,44,Male,British,Degree,2024-03-06_14h28.34.622,CRL1h,2023.2.3,MacIntel,118.4834123,65e67470ae2fbf2172c317b2,65e87d7097d094c63d95800e,,,,,,,,,,,277.619,1,278.615,278.615,279.178,left,1,0.56,,279.178,280.178,5,8,88,1,1,partial,1,images/Ex2.jpg,left,training,hard,3,,,,,
,,,,,5b98c8c1db823b0001ef5842,001,44,Male,British,Degree,2024-03-06_14h28.34.622,CRL1h,2023.2.3,MacIntel,118.4834123,65e67470ae2fbf2172c317b2,65e87d7097d094c63d95800e,,,,,,,,,,,280.181,1.3,281.478,281.478,281.882,left,0,0.397,,281.882,282.877,5,9,89,14,1,partial,1,images/Ex7.jpg,right,training,hard,3,,,,,
,,,,,5b98c8c1db823b0001ef5842,001,44,Male,British,Degree,2024-03-06_14h28.34.622,CRL1h,2023.2.3,MacIntel,118.4834123,65e67470ae2fbf2172c317b2,65e87d7097d094c63d95800e,,,,,,,,,,,282.877,0.9,283.774,283.774,283.856,right,1,0.077,,283.856,284.852,5,10,90,5,1,partial,1,images/Ex6.jpg,right,training,hard,3,,,,,
,,,,,5b98c8c1db823b0001ef5842,001,44,Male,British,Degree,2024-03-06_14h28.34.622,CRL1h,2023.2.3,MacIntel,118.4834123,65e67470ae2fbf2172c317b2,65e87d7097d094c63d95800e,,,,,,,,,,,284.853,0.6,285.448,285.448,286.307,right,0,0.857,,286.307,287.302,5,11,91,0,1,partial,1,images/Ex1.jpg,left,training,hard,3,,,,,
,,,,,5b98c8c1db823b0001ef5842,001,44,Male,British,Degree,2024-03-06_14h28.34.622,CRL1h,2023.2.3,MacIntel,118.4834123,65e67470ae2fbf2172c317b2,65e87d7097d094c63d95800e,,,,,,,,,,,287.303,0.5,287.804,287.804,288.336,left,0,0.526,,288.336,289.335,5,12,92,13,1,partial,1,images/Ex6.jpg,right,training,hard,3,,,,,
,,,,,5b98c8c1db823b0001ef5842,001,44,Male,British,Degree,2024-03-06_14h28.34.622,CRL1h,2023.2.3,MacIntel,118.4834123,65e67470ae2fbf2172c317b2,65e87d7097d094c63d95800e,,,,,,,,,,,289.336,1.4,290.731,290.731,291.061,left,0,0.324,,291.061,292.056,5,13,93,15,1,partial,1,images/Ex8.jpg,right,training,hard,3,,,,,
,,,,,5b98c8c1db823b0001ef5842,001,44,Male,British,Degree,2024-03-06_14h28.34.622,CRL1h,2023.2.3,MacIntel,118.4834123,65e67470ae2fbf2172c317b2,65e87d7097d094c63d95800e,,,,,,,,,,,292.057,1,293.055,293.055,293.557,left,1,0.486,,293.557,294.548,5,14,94,3,1,partial,1,images/Ex4.jpg,left,training,hard,3,,,,,
,,,,,5b98c8c1db823b0001ef5842,001,44,Male,British,Degree,2024-03-06_14h28.34.622,CRL1h,2023.2.3,MacIntel,118.4834123,65e67470ae2fbf2172c317b2,65e87d7097d094c63d95800e,,,,,,,,,,,294.549,1.2,295.748,295.748,296.706,left,0,0.956,,296.707,297.704,5,15,95,6,1,partial,1,images/Ex7.jpg,right,training,hard,3,,,,,
,,,,,5b98c8c1db823b0001ef5842,001,44,Male,British,Degree,2024-03-06_14h28.34.622,CRL1h,2023.2.3,MacIntel,118.4834123,65e67470ae2fbf2172c317b2,65e87d7097d094c63d95800e,,,,,,,,,,,297.705,0.8,298.507,298.507,299.59,left,1,1.078,,299.59,300.586,6,0,96,3,1,partial,1,images/Ex4.jpg,left,training,hard,3,,,,,
,,,,,5b98c8c1db823b0001ef5842,001,44,Male,British,Degree,2024-03-06_14h28.34.622,CRL1h,2023.2.3,MacIntel,118.4834123,65e67470ae2fbf2172c317b2,65e87d7097d094c63d95800e,,,,,,,,,,,300.586,0.8,301.385,301.385,302.626,left,1,1.233,,302.626,303.623,6,1,97,11,1,partial,1,images/Ex4.jpg,left,training,hard,3,,,,,
,,,,,5b98c8c1db823b0001ef5842,001,44,Male,British,Degree,2024-03-06_14h28.34.622,CRL1h,2023.2.3,MacIntel,118.4834123,65e67470ae2fbf2172c317b2,65e87d7097d094c63d95800e,,,,,,,,,,,303.624,1.5,305.119,305.119,305.753,right,0,0.625,,305.753,306.752,6,2,98,2,1,partial,1,images/Ex3.jpg,left,training,hard,3,,,,,
,,,,,5b98c8c1db823b0001ef5842,001,44,Male,British,Degree,2024-03-06_14h28.34.622,CRL1h,2023.2.3,MacIntel,118.4834123,65e67470ae2fbf2172c317b2,65e87d7097d094c63d95800e,,,,,,,,,,,306.752,0.8,307.548,307.548,307.773,left,1,0.221,,307.773,308.773,6,3,99,8,1,partial,1,images/Ex1.jpg,left,training,hard,3,,,,,
,,,,,5b98c8c1db823b0001ef5842,001,44,Male,British,Degree,2024-03-06_14h28.34.622,CRL1h,2023.2.3,MacIntel,118.4834123,65e67470ae2fbf2172c317b2,65e87d7097d094c63d95800e,,,,,,,,,,,308.777,1.2,309.978,309.978,311.561,left,0,1.582,,311.561,312.56,6,4,100,14,1,partial,1,images/Ex7.jpg,right,training,hard,3,,,,,
,,,,,5b98c8c1db823b0001ef5842,001,44,Male,British,Degree,2024-03-06_14h28.34.622,CRL1h,2023.2.3,MacIntel,118.4834123,65e67470ae2fbf2172c317b2,65e87d7097d094c63d95800e,,,,,,,,,,,312.562,1.1,313.657,313.659,315.073,left,0,1.407,,315.073,316.07,6,5,101,4,1,partial,1,images/Ex5.jpg,right,training,hard,3,,,,,
,,,,,5b98c8c1db823b0001ef5842,001,44,Male,British,Degree,2024-03-06_14h28.34.622,CRL1h,2023.2.3,MacIntel,118.4834123,65e67470ae2fbf2172c317b2,65e87d7097d094c63d95800e,,,,,,,,,,,316.072,0.6,316.669,316.669,316.845,right,1,0.169,,316.845,317.84,6,6,102,5,1,partial,1,images/Ex6.jpg,right,training,hard,3,,,,,
,,,,,5b98c8c1db823b0001ef5842,001,44,Male,British,Degree,2024-03-06_14h28.34.622,CRL1h,2023.2.3,MacIntel,118.4834123,65e67470ae2fbf2172c317b2,65e87d7097d094c63d95800e,,,,,,,,,,,317.841,1.1,318.94,318.94,319.774,right,1,0.831,,319.774,320.762,6,7,103,13,1,partial,1,images/Ex6.jpg,right,training,hard,3,,,,,
,,,,,5b98c8c1db823b0001ef5842,001,44,Male,British,Degree,2024-03-06_14h28.34.622,CRL1h,2023.2.3,MacIntel,118.4834123,65e67470ae2fbf2172c317b2,65e87d7097d094c63d95800e,,,,,,,,,,,320.763,0.5,321.286,321.286,321.943,right,0,0.654,,321.943,322.945,6,8,104,10,1,partial,1,images/Ex3.jpg,left,training,hard,3,,,,,
,,,,,5b98c8c1db823b0001ef5842,001,44,Male,British,Degree,2024-03-06_14h28.34.622,CRL1h,2023.2.3,MacIntel,118.4834123,65e67470ae2fbf2172c317b2,65e87d7097d094c63d95800e,,,,,,,,,,,322.945,0.7,323.64,323.64,324.407,right,0,0.76,,324.407,325.402,6,9,105,1,1,partial,1,images/Ex2.jpg,left,training,hard,3,,,,,
,,,,,5b98c8c1db823b0001ef5842,001,44,Male,British,Degree,2024-03-06_14h28.34.622,CRL1h,2023.2.3,MacIntel,118.4834123,65e67470ae2fbf2172c317b2,65e87d7097d094c63d95800e,,,,,,,,,,,325.405,1.5,326.902,326.902,327.036,left,1,0.128,,327.036,328.031,6,10,106,0,1,partial,1,images/Ex1.jpg,left,training,hard,3,,,,,
,,,,,5b98c8c1db823b0001ef5842,001,44,Male,British,Degree,2024-03-06_14h28.34.622,CRL1h,2023.2.3,MacIntel,118.4834123,65e67470ae2fbf2172c317b2,65e87d7097d094c63d95800e,,,,,,,,,,,328.032,1.4,329.431,329.431,329.736,left,0,0.299,,329.736,330.733,6,11,107,7,1,partial,1,images/Ex8.jpg,right,training,hard,3,,,,,
,,,,,5b98c8c1db823b0001ef5842,001,44,Male,British,Degree,2024-03-06_14h28.34.622,CRL1h,2023.2.3,MacIntel,118.4834123,65e67470ae2fbf2172c317b2,65e87d7097d094c63d95800e,,,,,,,,,,,330.734,0.8,331.531,331.531,332.186,left,0,0.654,,332.186,333.182,6,12,108,12,1,partial,1,images/Ex5.jpg,right,training,hard,3,,,,,
,,,,,5b98c8c1db823b0001ef5842,001,44,Male,British,Degree,2024-03-06_14h28.34.622,CRL1h,2023.2.3,MacIntel,118.4834123,65e67470ae2fbf2172c317b2,65e87d7097d094c63d95800e,,,,,,,,,,,333.183,1.2,334.381,334.381,334.936,right,1,0.55,,334.936,335.932,6,13,109,15,1,partial,1,images/Ex8.jpg,right,training,hard,3,,,,,
,,,,,5b98c8c1db823b0001ef5842,001,44,Male,British,Degree,2024-03-06_14h28.34.622,CRL1h,2023.2.3,MacIntel,118.4834123,65e67470ae2fbf2172c317b2,65e87d7097d094c63d95800e,,,,,,,,,,,335.933,1.4,337.331,337.331,337.507,right,0,0.17,,337.507,338.507,6,14,110,9,1,partial,1,images/Ex2.jpg,left,training,hard,3,,,,,
,,,,,5b98c8c1db823b0001ef5842,001,44,Male,British,Degree,2024-03-06_14h28.34.622,CRL1h,2023.2.3,MacIntel,118.4834123,65e67470ae2fbf2172c317b2,65e87d7097d094c63d95800e,,,,,,,,,,,338.508,0.9,339.407,339.407,339.949,right,1,0.54,,339.949,340.948,6,15,111,6,1,partial,1,images/Ex7.jpg,right,training,hard,3,,,,,
,,,,,5b98c8c1db823b0001ef5842,001,44,Male,British,Degree,2024-03-06_14h28.34.622,CRL1h,2023.2.3,MacIntel,118.4834123,65e67470ae2fbf2172c317b2,65e87d7097d094c63d95800e,,,,,,,,,,,340.949,1.3,342.247,342.247,342.56,right,1,0.309,,342.56,343.558,7,0,112,15,1,partial,1,images/Ex8.jpg,right,training,hard,3,,,,,
,,,,,5b98c8c1db823b0001ef5842,001,44,Male,British,Degree,2024-03-06_14h28.34.622,CRL1h,2023.2.3,MacIntel,118.4834123,65e67470ae2fbf2172c317b2,65e87d7097d094c63d95800e,,,,,,,,,,,343.561,0.6,344.164,344.165,344.631,right,0,0.458,,344.631,345.627,7,1,113,1,1,partial,1,images/Ex2.jpg,left,training,hard,3,,,,,
,,,,,5b98c8c1db823b0001ef5842,001,44,Male,British,Degree,2024-03-06_14h28.34.622,CRL1h,2023.2.3,MacIntel,118.4834123,65e67470ae2fbf2172c317b2,65e87d7097d094c63d95800e,,,,,,,,,,,345.629,1.3,346.927,346.927,347.14,left,0,0.206,,347.14,348.14,7,2,114,14,1,partial,1,images/Ex7.jpg,right,training,hard,3,,,,,
,,,,,5b98c8c1db823b0001ef5842,001,44,Male,British,Degree,2024-03-06_14h28.34.622,CRL1h,2023.2.3,MacIntel,118.4834123,65e67470ae2fbf2172c317b2,65e87d7097d094c63d95800e,,,,,,,,,,,348.141,1.1,349.235,349.236,349.489,left,0,0.249,,349.489,350.489,7,3,115,7,1,partial,1,images/Ex8.jpg,right,training,hard,3,,,,,
,,,,,5b98c8c1db823b0001ef5842,001,44,Male,British,Degree,2024-03-06_14h28.34.622,CRL1h,2023.2.3,MacIntel,118.4834123,65e67470ae2fbf2172c317b2,65e87d7097d094c63d95800e,,,,,,,,,,,350.49,1.2,351.696,351.696,351.911,left,0,0.209,,351.911,352.912,7,4,116,6,1,partial,1,images/Ex7.jpg,right,training,hard,3,,,,,
,,,,,5b98c8c1db823b0001ef5842,001,44,Male,British,Degree,2024-03-06_14h28.34.622,CRL1h,2023.2.3,MacIntel,118.4834123,65e67470ae2fbf2172c317b2,65e87d7097d094c63d95800e,,,,,,,,,,,352.912,1,353.913,353.913,354.471,right,1,0.556,,354.471,355.469,7,5,117,5,1,partial,1,images/Ex6.jpg,right,training,hard,3,,,,,
,,,,,5b98c8c1db823b0001ef5842,001,44,Male,British,Degree,2024-03-06_14h28.34.622,CRL1h,2023.2.3,MacIntel,118.4834123,65e67470ae2fbf2172c317b2,65e87d7097d094c63d95800e,,,,,,,,,,,355.47,0.5,355.966,355.967,356.715,right,0,0.745,,356.715,357.708,7,6,118,9,1,partial,1,images/Ex2.jpg,left,training,hard,3,,,,,
,,,,,5b98c8c1db823b0001ef5842,001,44,Male,British,Degree,2024-03-06_14h28.34.622,CRL1h,2023.2.3,MacIntel,118.4834123,65e67470ae2fbf2172c317b2,65e87d7097d094c63d95800e,,,,,,,,,,,357.709,1.3,359.007,359.007,359.261,left,1,0.252,,359.261,360.261,7,7,119,11,1,partial,1,images/Ex4.jpg,left,training,hard,3,,,,,
,,,,,5b98c8c1db823b0001ef5842,001,44,Male,British,Degree,2024-03-06_14h28.34.622,CRL1h,2023.2.3,MacIntel,118.4834123,65e67470ae2fbf2172c317b2,65e87d7097d094c63d95800e,,,,,,,,,,,360.262,1,361.258,361.258,361.599,left,0,0.338,,361.599,362.6,7,8,120,4,1,partial,1,images/Ex5.jpg,right,training,hard,3,,,,,
,,,,,5b98c8c1db823b0001ef5842,001,44,Male,British,Degree,2024-03-06_14h28.34.622,CRL1h,2023.2.3,MacIntel,118.4834123,65e67470ae2fbf2172c317b2,65e87d7097d094c63d95800e,,,,,,,,,,,362.601,1.3,363.902,363.902,364.232,left,1,0.322,,364.232,365.224,7,9,121,2,1,partial,1,images/Ex3.jpg,left,training,hard,3,,,,,
,,,,,5b98c8c1db823b0001ef5842,001,44,Male,British,Degree,2024-03-06_14h28.34.622,CRL1h,2023.2.3,MacIntel,118.4834123,65e67470ae2fbf2172c317b2,65e87d7097d094c63d95800e,,,,,,,,,,,365.225,1.4,366.619,366.619,366.953,right,0,0.33,,366.953,367.948,7,10,122,3,1,partial,1,images/Ex4.jpg,left,training,hard,3,,,,,
,,,,,5b98c8c1db823b0001ef5842,001,44,Male,British,Degree,2024-03-06_14h28.34.622,CRL1h,2023.2.3,MacIntel,118.4834123,65e67470ae2fbf2172c317b2,65e87d7097d094c63d95800e,,,,,,,,,,,367.949,1.3,369.249,369.249,369.604,left,1,0.353,,369.604,370.604,7,11,123,10,1,partial,1,images/Ex3.jpg,left,training,hard,3,,,,,
,,,,,5b98c8c1db823b0001ef5842,001,44,Male,British,Degree,2024-03-06_14h28.34.622,CRL1h,2023.2.3,MacIntel,118.4834123,65e67470ae2fbf2172c317b2,65e87d7097d094c63d95800e,,,,,,,,,,,370.604,1.1,371.701,371.701,372.038,left,1,0.331,,372.038,373.032,7,12,124,0,1,partial,1,images/Ex1.jpg,left,training,hard,3,,,,,
,,,,,5b98c8c1db823b0001ef5842,001,44,Male,British,Degree,2024-03-06_14h28.34.622,CRL1h,2023.2.3,MacIntel,118.4834123,65e67470ae2fbf2172c317b2,65e87d7097d094c63d95800e,,,,,,,,,,,373.033,1.1,374.135,374.135,374.555,right,1,0.417,,374.555,375.557,7,13,125,12,1,partial,1,images/Ex5.jpg,right,training,hard,3,,,,,
,,,,,5b98c8c1db823b0001ef5842,001,44,Male,British,Degree,2024-03-06_14h28.34.622,CRL1h,2023.2.3,MacIntel,118.4834123,65e67470ae2fbf2172c317b2,65e87d7097d094c63d95800e,,,,,,,,,,,375.557,1.3,376.854,376.855,377.391,right,1,0.528,,377.391,378.392,7,14,126,13,1,partial,1,images/Ex6.jpg,right,training,hard,3,,,,,
,,,,,5b98c8c1db823b0001ef5842,001,44,Male,British,Degree,2024-03-06_14h28.34.622,CRL1h,2023.2.3,MacIntel,118.4834123,65e67470ae2fbf2172c317b2,65e87d7097d094c63d95800e,,,,,,,,,,,378.393,1.3,379.69,379.69,379.957,right,0,0.261,,379.957,380.957,7,15,127,8,1,partial,1,images/Ex1.jpg,left,training,hard,3,,,,,
,,,,,5b98c8c1db823b0001ef5842,001,44,Male,British,Degree,2024-03-06_14h28.34.622,CRL1h,2023.2.3,MacIntel,118.4834123,65e67470ae2fbf2172c317b2,65e87d7097d094c63d95800e,,,,,,,,,,,380.967,1.4,382.365,382.365,382.858,left,1,0.488,,382.858,383.86,0,0,0,0,1,partial,2,images/Ex1.jpg,left,nonreversed,hard,3,,,,,
,,,,,5b98c8c1db823b0001ef5842,001,44,Male,British,Degree,2024-03-06_14h28.34.622,CRL1h,2023.2.3,MacIntel,118.4834123,65e67470ae2fbf2172c317b2,65e87d7097d094c63d95800e,,,,,,,,,,,383.86,1.4,385.256,385.256,385.485,left,0,0.224,,385.486,386.481,0,1,1,11,1,partial,2,images/Ex4.jpg,right,reversed,hard,3,,,,,
,,,,,5b98c8c1db823b0001ef5842,001,44,Male,British,Degree,2024-03-06_14h28.34.622,CRL1h,2023.2.3,MacIntel,118.4834123,65e67470ae2fbf2172c317b2,65e87d7097d094c63d95800e,,,,,,,,,,,386.482,0.6,387.081,387.081,387.739,right,0,0.655,,387.739,388.739,0,2,2,13,1,partial,2,images/Ex6.jpg,left,reversed,hard,3,,,,,
,,,,,5b98c8c1db823b0001ef5842,001,44,Male,British,Degree,2024-03-06_14h28.34.622,CRL1h,2023.2.3,MacIntel,118.4834123,65e67470ae2fbf2172c317b2,65e87d7097d094c63d95800e,,,,,,,,,,,388.74,1,389.734,389.734,390.26,right,1,0.523,,390.26,391.261,0,3,3,14,1,partial,2,images/Ex7.jpg,right,nonreversed,hard,3,,,,,
,,,,,5b98c8c1db823b0001ef5842,001,44,Male,British,Degree,2024-03-06_14h28.34.622,CRL1h,2023.2.3,MacIntel,118.4834123,65e67470ae2fbf2172c317b2,65e87d7097d094c63d95800e,,,,,,,,,,,391.262,0.6,391.861,391.861,392.541,right,1,0.671,,392.541,393.542,0,4,4,15,1,partial,2,images/Ex8.jpg,right,nonreversed,hard,3,,,,,
,,,,,5b98c8c1db823b0001ef5842,001,44,Male,British,Degree,2024-03-06_14h28.34.622,CRL1h,2023.2.3,MacIntel,118.4834123,65e67470ae2fbf2172c317b2,65e87d7097d094c63d95800e,,,,,,,,,,,393.543,0.7,394.241,394.241,394.627,left,1,0.386,,394.628,395.625,0,5,5,12,1,partial,2,images/Ex5.jpg,left,reversed,hard,3,,,,,
,,,,,5b98c8c1db823b0001ef5842,001,44,Male,British,Degree,2024-03-06_14h28.34.622,CRL1h,2023.2.3,MacIntel,118.4834123,65e67470ae2fbf2172c317b2,65e87d7097d094c63d95800e,,,,,,,,,,,395.626,0.7,396.324,396.324,396.633,left,0,0.305,,396.633,397.632,0,6,6,2,1,partial,2,images/Ex3.jpg,right,reversed,hard,3,,,,,
,,,,,5b98c8c1db823b0001ef5842,001,44,Male,British,Degree,2024-03-06_14h28.34.622,CRL1h,2023.2.3,MacIntel,118.4834123,65e67470ae2fbf2172c317b2,65e87d7097d094c63d95800e,,,,,,,,,,,397.633,1,398.631,398.631,399.424,right,1,0.787,,399.424,400.423,0,7,7,6,1,partial,2,images/Ex7.jpg,right,nonreversed,hard,3,,,,,
,,,,,5b98c8c1db823b0001ef5842,001,44,Male,British,Degree,2024-03-06_14h28.34.622,CRL1h,2023.2.3,MacIntel,118.4834123,65e67470ae2fbf2172c317b2,65e87d7097d094c63d95800e,,,,,,,,,,,400.424,0.6,401.024,401.024,401.516,left,1,0.489,,401.516,402.515,0,8,8,5,1,partial,2,images/Ex6.jpg,left,reversed,hard,3,,,,,
,,,,,5b98c8c1db823b0001ef5842,001,44,Male,British,Degree,2024-03-06_14h28.34.622,CRL1h,2023.2.3,MacIntel,118.4834123,65e67470ae2fbf2172c317b2,65e87d7097d094c63d95800e,,,,,,,,,,,402.516,1.1,403.616,403.616,405.182,left,0,1.562,,405.182,406.183,0,9,9,10,1,partial,2,images/Ex3.jpg,right,reversed,hard,3,,,,,
,,,,,5b98c8c1db823b0001ef5842,001,44,Male,British,Degree,2024-03-06_14h28.34.622,CRL1h,2023.2.3,MacIntel,118.4834123,65e67470ae2fbf2172c317b2,65e87d7097d094c63d95800e,,,,,,,,,,,406.183,0.6,406.783,406.783,407.449,right,0,0.665,,407.449,408.449,0,10,10,1,1,partial,2,images/Ex2.jpg,left,nonreversed,hard,3,,,,,
,,,,,5b98c8c1db823b0001ef5842,001,44,Male,British,Degree,2024-03-06_14h28.34.622,CRL1h,2023.2.3,MacIntel,118.4834123,65e67470ae2fbf2172c317b2,65e87d7097d094c63d95800e,,,,,,,,,,,408.449,1.1,409.55,409.55,410.469,right,1,0.912,,410.469,411.466,0,11,11,7,1,partial,2,images/Ex8.jpg,right,nonreversed,hard,3,,,,,
,,,,,5b98c8c1db823b0001ef5842,001,44,Male,British,Degree,2024-03-06_14h28.34.622,CRL1h,2023.2.3,MacIntel,118.4834123,65e67470ae2fbf2172c317b2,65e87d7097d094c63d95800e,,,,,,,,,,,411.467,0.9,412.362,412.362,412.79,left,1,0.418,,412.793,413.792,0,12,12,4,1,partial,2,images/Ex5.jpg,left,reversed,hard,3,,,,,
,,,,,5b98c8c1db823b0001ef5842,001,44,Male,British,Degree,2024-03-06_14h28.34.622,CRL1h,2023.2.3,MacIntel,118.4834123,65e67470ae2fbf2172c317b2,65e87d7097d094c63d95800e,,,,,,,,,,,413.793,0.6,414.396,414.397,415.35,right,1,0.951,,415.35,416.349,0,13,13,3,1,partial,2,images/Ex4.jpg,right,reversed,hard,3,,,,,
,,,,,5b98c8c1db823b0001ef5842,001,44,Male,British,Degree,2024-03-06_14h28.34.622,CRL1h,2023.2.3,MacIntel,118.4834123,65e67470ae2fbf2172c317b2,65e87d7097d094c63d95800e,,,,,,,,,,,416.35,1.5,417.845,417.845,418.682,left,1,0.835,,418.683,419.682,0,14,14,8,1,partial,2,images/Ex1.jpg,left,nonreversed,hard,3,,,,,
,,,,,5b98c8c1db823b0001ef5842,001,44,Male,British,Degree,2024-03-06_14h28.34.622,CRL1h,2023.2.3,MacIntel,118.4834123,65e67470ae2fbf2172c317b2,65e87d7097d094c63d95800e,,,,,,,,,,,419.683,1,420.683,420.683,421.603,left,1,0.917,,421.603,422.599,0,15,15,9,1,partial,2,images/Ex2.jpg,left,nonreversed,hard,3,,,,,
,,,,,5b98c8c1db823b0001ef5842,001,44,Male,British,Degree,2024-03-06_14h28.34.622,CRL1h,2023.2.3,MacIntel,118.4834123,65e67470ae2fbf2172c317b2,65e87d7097d094c63d95800e,,,,,,,,,,,422.6,1.4,423.996,423.996,424.355,right,0,0.352,,424.356,425.35,1,0,16,8,1,partial,2,images/Ex1.jpg,left,nonreversed,hard,3,,,,,
,,,,,5b98c8c1db823b0001ef5842,001,44,Male,British,Degree,2024-03-06_14h28.34.622,CRL1h,2023.2.3,MacIntel,118.4834123,65e67470ae2fbf2172c317b2,65e87d7097d094c63d95800e,,,,,,,,,,,425.351,0.6,425.952,425.952,426.741,left,0,0.781,,426.741,427.741,1,1,17,14,1,partial,2,images/Ex7.jpg,right,nonreversed,hard,3,,,,,
,,,,,5b98c8c1db823b0001ef5842,001,44,Male,British,Degree,2024-03-06_14h28.34.622,CRL1h,2023.2.3,MacIntel,118.4834123,65e67470ae2fbf2172c317b2,65e87d7097d094c63d95800e,,,,,,,,,,,427.741,0.8,428.54,428.54,428.82,left,0,0.273,,428.82,429.82,1,2,18,11,1,partial,2,images/Ex4.jpg,right,reversed,hard,3,,,,,
,,,,,5b98c8c1db823b0001ef5842,001,44,Male,British,Degree,2024-03-06_14h28.34.622,CRL1h,2023.2.3,MacIntel,118.4834123,65e67470ae2fbf2172c317b2,65e87d7097d094c63d95800e,,,,,,,,,,,429.821,1,430.816,430.816,431.328,right,0,0.507,,431.329,432.331,1,3,19,4,1,partial,2,images/Ex5.jpg,left,reversed,hard,3,,,,,
,,,,,5b98c8c1db823b0001ef5842,001,44,Male,British,Degree,2024-03-06_14h28.34.622,CRL1h,2023.2.3,MacIntel,118.4834123,65e67470ae2fbf2172c317b2,65e87d7097d094c63d95800e,,,,,,,,,,,432.332,0.8,433.128,433.128,435.688,right,1,2.557,,435.689,436.686,1,4,20,7,1,partial,2,images/Ex8.jpg,right,nonreversed,hard,3,,,,,
,,,,,5b98c8c1db823b0001ef5842,001,44,Male,British,Degree,2024-03-06_14h28.34.622,CRL1h,2023.2.3,MacIntel,118.4834123,65e67470ae2fbf2172c317b2,65e87d7097d094c63d95800e,,,,,,,,,,,436.687,1.1,437.784,437.784,438.143,right,0,0.353,,438.143,439.143,1,5,21,5,1,partial,2,images/Ex6.jpg,left,reversed,hard,3,,,,,
,,,,,5b98c8c1db823b0001ef5842,001,44,Male,British,Degree,2024-03-06_14h28.34.622,CRL1h,2023.2.3,MacIntel,118.4834123,65e67470ae2fbf2172c317b2,65e87d7097d094c63d95800e,,,,,,,,,,,439.144,0.7,439.845,439.845,440.212,right,1,0.364,,440.212,441.202,1,6,22,15,1,partial,2,images/Ex8.jpg,right,nonreversed,hard,3,,,,,
,,,,,5b98c8c1db823b0001ef5842,001,44,Male,British,Degree,2024-03-06_14h28.34.622,CRL1h,2023.2.3,MacIntel,118.4834123,65e67470ae2fbf2172c317b2,65e87d7097d094c63d95800e,,,,,,,,,,,441.206,1.5,442.703,442.703,443.054,left,1,0.343,,443.054,444.049,1,7,23,9,1,partial,2,images/Ex2.jpg,left,nonreversed,hard,3,,,,,
,,,,,5b98c8c1db823b0001ef5842,001,44,Male,British,Degree,2024-03-06_14h28.34.622,CRL1h,2023.2.3,MacIntel,118.4834123,65e67470ae2fbf2172c317b2,65e87d7097d094c63d95800e,,,,,,,,,,,444.049,1.5,445.545,445.545,447.216,left,0,1.669,,447.216,448.212,1,8,24,2,1,partial,2,images/Ex3.jpg,right,reversed,hard,3,,,,,
,,,,,5b98c8c1db823b0001ef5842,001,44,Male,British,Degree,2024-03-06_14h28.34.622,CRL1h,2023.2.3,MacIntel,118.4834123,65e67470ae2fbf2172c317b2,65e87d7097d094c63d95800e,,,,,,,,,,,448.213,0.6,448.812,448.812,449.798,left,0,0.98,,449.798,450.799,1,9,25,3,1,partial,2,images/Ex4.jpg,right,reversed,hard,3,,,,,
,,,,,5b98c8c1db823b0001ef5842,001,44,Male,British,Degree,2024-03-06_14h28.34.622,CRL1h,2023.2.3,MacIntel,118.4834123,65e67470ae2fbf2172c317b2,65e87d7097d094c63d95800e,,,,,,,,,,,450.799,0.8,451.596,451.596,452.34,left,1,0.739,,452.34,453.341,1,10,26,0,1,partial,2,images/Ex1.jpg,left,nonreversed,hard,3,,,,,
,,,,,5b98c8c1db823b0001ef5842,001,44,Male,British,Degree,2024-03-06_14h28.34.622,CRL1h,2023.2.3,MacIntel,118.4834123,65e67470ae2fbf2172c317b2,65e87d7097d094c63d95800e,,,,,,,,,,,453.342,1.5,454.838,454.838,455.423,left,0,0.578,,455.423,456.419,1,11,27,10,1,partial,2,images/Ex3.jpg,right,reversed,hard,3,,,,,
,,,,,5b98c8c1db823b0001ef5842,001,44,Male,British,Degree,2024-03-06_14h28.34.622,CRL1h,2023.2.3,MacIntel,118.4834123,65e67470ae2fbf2172c317b2,65e87d7097d094c63d95800e,,,,,,,,,,,456.42,0.9,457.32,457.32,457.54,left,1,0.211,,457.54,458.541,1,12,28,12,1,partial,2,images/Ex5.jpg,left,reversed,hard,3,,,,,
,,,,,5b98c8c1db823b0001ef5842,001,44,Male,British,Degree,2024-03-06_14h28.34.622,CRL1h,2023.2.3,MacIntel,118.4834123,65e67470ae2fbf2172c317b2,65e87d7097d094c63d95800e,,,,,,,,,,,458.542,1.2,459.741,459.741,459.787,left,1,0.042,,459.787,460.783,1,13,29,1,1,partial,2,images/Ex2.jpg,left,nonreversed,hard,3,,,,,
,,,,,5b98c8c1db823b0001ef5842,001,44,Male,British,Degree,2024-03-06_14h28.34.622,CRL1h,2023.2.3,MacIntel,118.4834123,65e67470ae2fbf2172c317b2,65e87d7097d094c63d95800e,,,,,,,,,,,460.784,0.8,461.586,461.586,462.103,right,1,0.515,,462.103,463.104,1,14,30,6,1,partial,2,images/Ex7.jpg,right,nonreversed,hard,3,,,,,
,,,,,5b98c8c1db823b0001ef5842,001,44,Male,British,Degree,2024-03-06_14h28.34.622,CRL1h,2023.2.3,MacIntel,118.4834123,65e67470ae2fbf2172c317b2,65e87d7097d094c63d95800e,,,,,,,,,,,463.104,0.9,464.004,464.004,464.207,right,0,0.197,,464.207,465.209,1,15,31,13,1,partial,2,images/Ex6.jpg,left,reversed,hard,3,,,,,
,,,,,5b98c8c1db823b0001ef5842,001,44,Male,British,Degree,2024-03-06_14h28.34.622,CRL1h,2023.2.3,MacIntel,118.4834123,65e67470ae2fbf2172c317b2,65e87d7097d094c63d95800e,,,,,,,,,,,465.21,0.7,465.908,465.908,466.429,left,0,0.513,,466.429,467.429,2,0,32,6,1,partial,2,images/Ex7.jpg,right,nonreversed,hard,3,,,,,
,,,,,5b98c8c1db823b0001ef5842,001,44,Male,British,Degree,2024-03-06_14h28.34.622,CRL1h,2023.2.3,MacIntel,118.4834123,65e67470ae2fbf2172c317b2,65e87d7097d094c63d95800e,,,,,,,,,,,467.43,1.4,468.827,468.827,469.27,left,1,0.438,,469.27,470.265,2,1,33,9,1,partial,2,images/Ex2.jpg,left,nonreversed,hard,3,,,,,
,,,,,5b98c8c1db823b0001ef5842,001,44,Male,British,Degree,2024-03-06_14h28.34.622,CRL1h,2023.2.3,MacIntel,118.4834123,65e67470ae2fbf2172c317b2,65e87d7097d094c63d95800e,,,,,,,,,,,470.266,0.8,471.065,471.065,471.59,right,0,0.52,,471.59,472.587,2,2,34,8,1,partial,2,images/Ex1.jpg,left,nonreversed,hard,3,,,,,
,,,,,5b98c8c1db823b0001ef5842,001,44,Male,British,Degree,2024-03-06_14h28.34.622,CRL1h,2023.2.3,MacIntel,118.4834123,65e67470ae2fbf2172c317b2,65e87d7097d094c63d95800e,,,,,,,,,,,472.588,1.1,473.69,473.69,474.078,right,1,0.384,,474.078,475.073,2,3,35,15,1,partial,2,images/Ex8.jpg,right,nonreversed,hard,3,,,,,
,,,,,5b98c8c1db823b0001ef5842,001,44,Male,British,Degree,2024-03-06_14h28.34.622,CRL1h,2023.2.3,MacIntel,118.4834123,65e67470ae2fbf2172c317b2,65e87d7097d094c63d95800e,,,,,,,,,,,475.073,0.9,475.971,475.972,477.075,left,0,1.094,,477.075,478.074,2,4,36,3,1,partial,2,images/Ex4.jpg,right,reversed,hard,3,,,,,
,,,,,5b98c8c1db823b0001ef5842,001,44,Male,British,Degree,2024-03-06_14h28.34.622,CRL1h,2023.2.3,MacIntel,118.4834123,65e67470ae2fbf2172c317b2,65e87d7097d094c63d95800e,,,,,,,,,,,478.075,0.9,478.97,478.97,479.437,right,1,0.46,,479.437,480.433,2,5,37,10,1,partial,2,images/Ex3.jpg,right,reversed,hard,3,,,,,
,,,,,5b98c8c1db823b0001ef5842,001,44,Male,British,Degree,2024-03-06_14h28.34.622,CRL1h,2023.2.3,MacIntel,118.4834123,65e67470ae2fbf2172c317b2,65e87d7097d094c63d95800e,,,,,,,,,,,480.434,1.2,481.637,481.637,481.925,left,1,0.285,,481.925,482.924,2,6,38,12,1,partial,2,images/Ex5.jpg,left,reversed,hard,3,,,,,
,,,,,5b98c8c1db823b0001ef5842,001,44,Male,British,Degree,2024-03-06_14h28.34.622,CRL1h,2023.2.3,MacIntel,118.4834123,65e67470ae2fbf2172c317b2,65e87d7097d094c63d95800e,,,,,,,,,,,482.925,1.4,484.324,484.324,484.807,left,1,0.482,,484.808,485.804,2,7,39,4,1,partial,2,images/Ex5.jpg,left,reversed,hard,3,,,,,
,,,,,5b98c8c1db823b0001ef5842,001,44,Male,British,Degree,2024-03-06_14h28.34.622,CRL1h,2023.2.3,MacIntel,118.4834123,65e67470ae2fbf2172c317b2,65e87d7097d094c63d95800e,,,,,,,,,,,485.805,1.5,487.301,487.301,487.896,left,1,0.59,,487.897,488.9,2,8,40,13,1,partial,2,images/Ex6.jpg,left,reversed,hard,3,,,,,
,,,,,5b98c8c1db823b0001ef5842,001,44,Male,British,Degree,2024-03-06_14h28.34.622,CRL1h,2023.2.3,MacIntel,118.4834123,65e67470ae2fbf2172c317b2,65e87d7097d094c63d95800e,,,,,,,,,,,488.9,0.9,489.794,489.794,490.837,right,0,1.039,,490.837,491.837,2,9,41,5,1,partial,2,images/Ex6.jpg,left,reversed,hard,3,,,,,
,,,,,5b98c8c1db823b0001ef5842,001,44,Male,British,Degree,2024-03-06_14h28.34.622,CRL1h,2023.2.3,MacIntel,118.4834123,65e67470ae2fbf2172c317b2,65e87d7097d094c63d95800e,,,,,,,,,,,491.837,0.7,492.533,492.533,492.915,left,0,0.374,,492.915,493.915,2,10,42,11,1,partial,2,images/Ex4.jpg,right,reversed,hard,3,,,,,
,,,,,5b98c8c1db823b0001ef5842,001,44,Male,British,Degree,2024-03-06_14h28.34.622,CRL1h,2023.2.3,MacIntel,118.4834123,65e67470ae2fbf2172c317b2,65e87d7097d094c63d95800e,,,,,,,,,,,493.916,1,494.914,494.914,495.791,left,1,0.875,,495.791,496.791,2,11,43,1,1,partial,2,images/Ex2.jpg,left,nonreversed,hard,3,,,,,
,,,,,5b98c8c1db823b0001ef5842,001,44,Male,British,Degree,2024-03-06_14h28.34.622,CRL1h,2023.2.3,MacIntel,118.4834123,65e67470ae2fbf2172c317b2,65e87d7097d094c63d95800e,,,,,,,,,,,496.791,0.8,497.591,497.591,498.446,left,0,0.849,,498.446,499.445,2,12,44,7,1,partial,2,images/Ex8.jpg,right,nonreversed,hard,3,,,,,
,,,,,5b98c8c1db823b0001ef5842,001,44,Male,British,Degree,2024-03-06_14h28.34.622,CRL1h,2023.2.3,MacIntel,118.4834123,65e67470ae2fbf2172c317b2,65e87d7097d094c63d95800e,,,,,,,,,,,499.446,1.4,500.845,500.845,501.486,right,0,0.636,,501.486,502.487,2,13,45,0,1,partial,2,images/Ex1.jpg,left,nonreversed,hard,3,,,,,
,,,,,5b98c8c1db823b0001ef5842,001,44,Male,British,Degree,2024-03-06_14h28.34.622,CRL1h,2023.2.3,MacIntel,118.4834123,65e67470ae2fbf2172c317b2,65e87d7097d094c63d95800e,,,,,,,,,,,502.488,1.1,503.588,503.588,504.004,right,1,0.41,,504.004,505.004,2,14,46,14,1,partial,2,images/Ex7.jpg,right,nonreversed,hard,3,,,,,
,,,,,5b98c8c1db823b0001ef5842,001,44,Male,British,Degree,2024-03-06_14h28.34.622,CRL1h,2023.2.3,MacIntel,118.4834123,65e67470ae2fbf2172c317b2,65e87d7097d094c63d95800e,,,,,,,,,,,505.004,0.7,505.703,505.703,506.188,left,0,0.481,,506.188,507.188,2,15,47,2,1,partial,2,images/Ex3.jpg,right,reversed,hard,3,,,,,
,,,,,5b98c8c1db823b0001ef5842,001,44,Male,British,Degree,2024-03-06_14h28.34.622,CRL1h,2023.2.3,MacIntel,118.4834123,65e67470ae2fbf2172c317b2,65e87d7097d094c63d95800e,,,,,,,,,,,507.191,1,508.188,508.188,508.562,left,1,0.368,,508.562,509.564,3,0,48,0,1,partial,2,images/Ex1.jpg,left,nonreversed,hard,3,,,,,
,,,,,5b98c8c1db823b0001ef5842,001,44,Male,British,Degree,2024-03-06_14h28.34.622,CRL1h,2023.2.3,MacIntel,118.4834123,65e67470ae2fbf2172c317b2,65e87d7097d094c63d95800e,,,,,,,,,,,509.566,0.6,510.163,510.163,510.554,left,0,0.385,,510.554,511.554,3,1,49,2,1,partial,2,images/Ex3.jpg,right,reversed,hard,3,,,,,
,,,,,5b98c8c1db823b0001ef5842,001,44,Male,British,Degree,2024-03-06_14h28.34.622,CRL1h,2023.2.3,MacIntel,118.4834123,65e67470ae2fbf2172c317b2,65e87d7097d094c63d95800e,,,,,,,,,,,511.555,1.1,512.653,512.654,513.054,left,1,0.393,,513.054,514.054,3,2,50,12,1,partial,2,images/Ex5.jpg,left,reversed,hard,3,,,,,
,,,,,5b98c8c1db823b0001ef5842,001,44,Male,British,Degree,2024-03-06_14h28.34.622,CRL1h,2023.2.3,MacIntel,118.4834123,65e67470ae2fbf2172c317b2,65e87d7097d094c63d95800e,,,,,,,,,,,514.055,1.5,515.554,515.554,515.579,right,1,0.019,,515.579,516.579,3,3,51,11,1,partial,2,images/Ex4.jpg,right,reversed,hard,3,,,,,
,,,,,5b98c8c1db823b0001ef5842,001,44,Male,British,Degree,2024-03-06_14h28.34.622,CRL1h,2023.2.3,MacIntel,118.4834123,65e67470ae2fbf2172c317b2,65e87d7097d094c63d95800e,,,,,,,,,,,516.58,1.5,518.079,518.079,518.387,left,0,0.301,,518.387,519.387,3,4,52,14,1,partial,2,images/Ex7.jpg,right,nonreversed,hard,3,,,,,
,,,,,5b98c8c1db823b0001ef5842,001,44,Male,British,Degree,2024-03-06_14h28.34.622,CRL1h,2023.2.3,MacIntel,118.4834123,65e67470ae2fbf2172c317b2,65e87d7097d094c63d95800e,,,,,,,,,,,519.388,0.7,520.087,520.087,520.495,right,0,0.403,,520.495,521.496,3,5,53,8,1,partial,2,images/Ex1.jpg,left,nonreversed,hard,3,,,,,
,,,,,5b98c8c1db823b0001ef5842,001,44,Male,British,Degree,2024-03-06_14h28.34.622,CRL1h,2023.2.3,MacIntel,118.4834123,65e67470ae2fbf2172c317b2,65e87d7097d094c63d95800e,,,,,,,,,,,521.496,1.3,522.795,522.795,523.062,right,0,0.262,,523.062,524.062,3,6,54,4,1,partial,2,images/Ex5.jpg,left,reversed,hard,3,,,,,
,,,,,5b98c8c1db823b0001ef5842,001,44,Male,British,Degree,2024-03-06_14h28.34.622,CRL1h,2023.2.3,MacIntel,118.4834123,65e67470ae2fbf2172c317b2,65e87d7097d094c63d95800e,,,,,,,,,,,524.063,0.8,524.862,524.862,525.429,left,0,0.559,,525.429,526.429,3,7,55,7,1,partial,2,images/Ex8.jpg,right,nonreversed,hard,3,,,,,
,,,,,5b98c8c1db823b0001ef5842,001,44,Male,British,Degree,2024-03-06_14h28.34.622,CRL1h,2023.2.3,MacIntel,118.4834123,65e67470ae2fbf2172c317b2,65e87d7097d094c63d95800e,,,,,,,,,,,526.43,1.2,527.629,527.629,527.695,right,1,0.061,,527.695,528.695,3,8,56,6,1,partial,2,images/Ex7.jpg,right,nonreversed,hard,3,,,,,
,,,,,5b98c8c1db823b0001ef5842,001,44,Male,British,Degree,2024-03-06_14h28.34.622,CRL1h,2023.2.3,MacIntel,118.4834123,65e67470ae2fbf2172c317b2,65e87d7097d094c63d95800e,,,,,,,,,,,528.696,1.2,529.896,529.896,530.687,right,1,0.789,,530.687,531.687,3,9,57,15,1,partial,2,images/Ex8.jpg,right,nonreversed,hard,3,,,,,
,,,,,5b98c8c1db823b0001ef5842,001,44,Male,British,Degree,2024-03-06_14h28.34.622,CRL1h,2023.2.3,MacIntel,118.4834123,65e67470ae2fbf2172c317b2,65e87d7097d094c63d95800e,,,,,,,,,,,531.689,0.6,532.288,532.288,532.803,right,0,0.513,,532.803,533.799,3,10,58,9,1,partial,2,images/Ex2.jpg,left,nonreversed,hard,3,,,,,
,,,,,5b98c8c1db823b0001ef5842,001,44,Male,British,Degree,2024-03-06_14h28.34.622,CRL1h,2023.2.3,MacIntel,118.4834123,65e67470ae2fbf2172c317b2,65e87d7097d094c63d95800e,,,,,,,,,,,533.8,1.3,535.096,535.096,535.146,right,1,0.044,,535.146,536.147,3,11,59,10,1,partial,2,images/Ex3.jpg,right,reversed,hard,3,,,,,
,,,,,5b98c8c1db823b0001ef5842,001,44,Male,British,Degree,2024-03-06_14h28.34.622,CRL1h,2023.2.3,MacIntel,118.4834123,65e67470ae2fbf2172c317b2,65e87d7097d094c63d95800e,,,,,,,,,,,536.148,1.3,537.445,537.445,537.462,right,0,0.012,,537.462,538.462,3,12,60,1,1,partial,2,images/Ex2.jpg,left,nonreversed,hard,3,,,,,
,,,,,5b98c8c1db823b0001ef5842,001,44,Male,British,Degree,2024-03-06_14h28.34.622,CRL1h,2023.2.3,MacIntel,118.4834123,65e67470ae2fbf2172c317b2,65e87d7097d094c63d95800e,,,,,,,,,,,538.463,1.4,539.864,539.864,539.871,left,1,0.006,,539.871,540.871,3,13,61,13,1,partial,2,images/Ex6.jpg,left,reversed,hard,3,,,,,
,,,,,5b98c8c1db823b0001ef5842,001,44,Male,British,Degree,2024-03-06_14h28.34.622,CRL1h,2023.2.3,MacIntel,118.4834123,65e67470ae2fbf2172c317b2,65e87d7097d094c63d95800e,,,,,,,,,,,540.872,1,541.87,541.87,542.255,left,0,0.381,,542.255,543.254,3,14,62,3,1,partial,2,images/Ex4.jpg,right,reversed,hard,3,,,,,
,,,,,5b98c8c1db823b0001ef5842,001,44,Male,British,Degree,2024-03-06_14h28.34.622,CRL1h,2023.2.3,MacIntel,118.4834123,65e67470ae2fbf2172c317b2,65e87d7097d094c63d95800e,,,,,,,,,,,543.255,0.7,543.953,543.953,544.73,right,0,0.771,,544.73,545.728,3,15,63,5,1,partial,2,images/Ex6.jpg,left,reversed,hard,3,,,,,
,,,,,5b98c8c1db823b0001ef5842,001,44,Male,British,Degree,2024-03-06_14h28.34.622,CRL1h,2023.2.3,MacIntel,118.4834123,65e67470ae2fbf2172c317b2,65e87d7097d094c63d95800e,,,,,,545.73,548.754,space,3.019,,548.758,1.1,549.853,549.854,550.312,left,0,0.451,,550.312,551.312,0,0,0,6,1,total,1,images/Ex15.jpg,right,training,hard,3,,,,,
,,,,,5b98c8c1db823b0001ef5842,001,44,Male,British,Degree,2024-03-06_14h28.34.622,CRL1h,2023.2.3,MacIntel,118.4834123,65e67470ae2fbf2172c317b2,65e87d7097d094c63d95800e,,,,,,,,,,,551.314,0.6,551.912,551.913,552.004,left,0,0.082,,552.004,553.004,0,1,1,13,1,total,1,images/Ex14.jpg,right,training,hard,3,,,,,
,,,,,5b98c8c1db823b0001ef5842,001,44,Male,British,Degree,2024-03-06_14h28.34.622,CRL1h,2023.2.3,MacIntel,118.4834123,65e67470ae2fbf2172c317b2,65e87d7097d094c63d95800e,,,,,,,,,,,553.004,1.3,554.304,554.304,555.47,right,0,1.154,,555.47,556.47,0,2,2,0,1,total,1,images/Ex9.jpg,left,training,hard,3,,,,,
,,,,,5b98c8c1db823b0001ef5842,001,44,Male,British,Degree,2024-03-06_14h28.34.622,CRL1h,2023.2.3,MacIntel,118.4834123,65e67470ae2fbf2172c317b2,65e87d7097d094c63d95800e,,,,,,,,,,,556.471,0.7,557.17,557.17,558.812,right,0,1.635,,558.812,559.812,0,3,3,10,1,total,1,images/Ex11.jpg,left,training,hard,3,,,,,
,,,,,5b98c8c1db823b0001ef5842,001,44,Male,British,Degree,2024-03-06_14h28.34.622,CRL1h,2023.2.3,MacIntel,118.4834123,65e67470ae2fbf2172c317b2,65e87d7097d094c63d95800e,,,,,,,,,,,559.812,0.7,560.513,560.513,561.314,left,0,0.8,,561.314,562.312,0,4,4,14,1,total,1,images/Ex15.jpg,right,training,hard,3,,,,,
,,,,,5b98c8c1db823b0001ef5842,001,44,Male,British,Degree,2024-03-06_14h28.34.622,CRL1h,2023.2.3,MacIntel,118.4834123,65e67470ae2fbf2172c317b2,65e87d7097d094c63d95800e,,,,,,,,,,,562.312,1.1,563.412,563.412,563.739,left,1,0.323,,563.739,564.743,0,5,5,1,1,total,1,images/Ex10.jpg,left,training,hard,3,,,,,
,,,,,5b98c8c1db823b0001ef5842,001,44,Male,British,Degree,2024-03-06_14h28.34.622,CRL1h,2023.2.3,MacIntel,118.4834123,65e67470ae2fbf2172c317b2,65e87d7097d094c63d95800e,,,,,,,,,,,564.743,0.9,565.637,565.637,565.738,left,1,0.093,,565.738,566.737,0,6,6,3,1,total,1,images/Ex12.jpg,left,training,hard,3,,,,,
,,,,,5b98c8c1db823b0001ef5842,001,44,Male,British,Degree,2024-03-06_14h28.34.622,CRL1h,2023.2.3,MacIntel,118.4834123,65e67470ae2fbf2172c317b2,65e87d7097d094c63d95800e,,,,,,,,,,,566.738,1.3,568.038,568.038,568.554,left,1,0.513,,568.554,569.554,0,7,7,2,1,total,1,images/Ex11.jpg,left,training,hard,3,,,,,
,,,,,5b98c8c1db823b0001ef5842,001,44,Male,British,Degree,2024-03-06_14h28.34.622,CRL1h,2023.2.3,MacIntel,118.4834123,65e67470ae2fbf2172c317b2,65e87d7097d094c63d95800e,,,,,,,,,,,569.555,0.6,570.154,570.154,571.595,right,1,1.433,,571.595,572.596,0,8,8,15,1,total,1,images/Ex16.jpg,right,training,hard,3,,,,,
,,,,,5b98c8c1db823b0001ef5842,001,44,Male,British,Degree,2024-03-06_14h28.34.622,CRL1h,2023.2.3,MacIntel,118.4834123,65e67470ae2fbf2172c317b2,65e87d7097d094c63d95800e,,,,,,,,,,,572.599,1.2,573.796,573.796,574.063,right,1,0.259,,574.063,575.063,0,9,9,4,1,total,1,images/Ex13.jpg,right,training,hard,3,,,,,
,,,,,5b98c8c1db823b0001ef5842,001,44,Male,British,Degree,2024-03-06_14h28.34.622,CRL1h,2023.2.3,MacIntel,118.4834123,65e67470ae2fbf2172c317b2,65e87d7097d094c63d95800e,,,,,,,,,,,575.065,1.3,576.362,576.362,576.704,right,0,0.334,,576.704,577.705,0,10,10,9,1,total,1,images/Ex10.jpg,left,training,hard,3,,,,,
,,,,,5b98c8c1db823b0001ef5842,001,44,Male,British,Degree,2024-03-06_14h28.34.622,CRL1h,2023.2.3,MacIntel,118.4834123,65e67470ae2fbf2172c317b2,65e87d7097d094c63d95800e,,,,,,,,,,,577.706,0.6,578.303,578.303,578.646,left,1,0.333,,578.646,579.646,0,11,11,11,1,total,1,images/Ex12.jpg,left,training,hard,3,,,,,
,,,,,5b98c8c1db823b0001ef5842,001,44,Male,British,Degree,2024-03-06_14h28.34.622,CRL1h,2023.2.3,MacIntel,118.4834123,65e67470ae2fbf2172c317b2,65e87d7097d094c63d95800e,,,,,,,,,,,579.648,0.5,580.146,580.146,580.887,left,0,0.738,,580.887,581.887,0,12,12,7,1,total,1,images/Ex16.jpg,right,training,hard,3,,,,,
,,,,,5b98c8c1db823b0001ef5842,001,44,Male,British,Degree,2024-03-06_14h28.34.622,CRL1h,2023.2.3,MacIntel,118.4834123,65e67470ae2fbf2172c317b2,65e87d7097d094c63d95800e,,,,,,,,,,,581.887,1.4,583.287,583.287,583.545,right,0,0.252,,583.545,584.545,0,13,13,8,1,total,1,images/Ex9.jpg,left,training,hard,3,,,,,
,,,,,5b98c8c1db823b0001ef5842,001,44,Male,British,Degree,2024-03-06_14h28.34.622,CRL1h,2023.2.3,MacIntel,118.4834123,65e67470ae2fbf2172c317b2,65e87d7097d094c63d95800e,,,,,,,,,,,584.546,1.3,585.845,585.845,586.512,right,1,0.665,,586.512,587.508,0,14,14,12,1,total,1,images/Ex13.jpg,right,training,hard,3,,,,,
,,,,,5b98c8c1db823b0001ef5842,001,44,Male,British,Degree,2024-03-06_14h28.34.622,CRL1h,2023.2.3,MacIntel,118.4834123,65e67470ae2fbf2172c317b2,65e87d7097d094c63d95800e,,,,,,,,,,,587.509,1.3,588.809,588.809,589.526,left,0,0.714,,589.526,590.526,0,15,15,5,1,total,1,images/Ex14.jpg,right,training,hard,3,,,,,
,,,,,5b98c8c1db823b0001ef5842,001,44,Male,British,Degree,2024-03-06_14h28.34.622,CRL1h,2023.2.3,MacIntel,118.4834123,65e67470ae2fbf2172c317b2,65e87d7097d094c63d95800e,,,,,,,,,,,590.528,1.1,591.629,591.63,591.937,left,1,0.303,,591.937,592.938,1,0,16,3,1,total,1,images/Ex12.jpg,left,training,hard,3,,,,,
,,,,,5b98c8c1db823b0001ef5842,001,44,Male,British,Degree,2024-03-06_14h28.34.622,CRL1h,2023.2.3,MacIntel,118.4834123,65e67470ae2fbf2172c317b2,65e87d7097d094c63d95800e,,,,,,,,,,,592.939,0.8,593.737,593.737,594.097,left,0,0.353,,594.097,595.096,1,1,17,6,1,total,1,images/Ex15.jpg,right,training,hard,3,,,,,
,,,,,5b98c8c1db823b0001ef5842,001,44,Male,British,Degree,2024-03-06_14h28.34.622,CRL1h,2023.2.3,MacIntel,118.4834123,65e67470ae2fbf2172c317b2,65e87d7097d094c63d95800e,,,,,,,,,,,595.098,0.6,595.696,595.696,596.321,right,0,0.621,,596.321,597.321,1,2,18,10,1,total,1,images/Ex11.jpg,left,training,hard,3,,,,,
,,,,,5b98c8c1db823b0001ef5842,001,44,Male,British,Degree,2024-03-06_14h28.34.622,CRL1h,2023.2.3,MacIntel,118.4834123,65e67470ae2fbf2172c317b2,65e87d7097d094c63d95800e,,,,,,,,,,,597.322,0.6,597.925,597.925,598.463,right,0,0.53,,598.463,599.463,1,3,19,8,1,total,1,images/Ex9.jpg,left,training,hard,3,,,,,
,,,,,5b98c8c1db823b0001ef5842,001,44,Male,British,Degree,2024-03-06_14h28.34.622,CRL1h,2023.2.3,MacIntel,118.4834123,65e67470ae2fbf2172c317b2,65e87d7097d094c63d95800e,,,,,,,,,,,599.464,1.1,600.563,600.563,600.871,right,0,0.299,,600.871,601.872,1,4,20,1,1,total,1,images/Ex10.jpg,left,training,hard,3,,,,,
,,,,,5b98c8c1db823b0001ef5842,001,44,Male,British,Degree,2024-03-06_14h28.34.622,CRL1h,2023.2.3,MacIntel,118.4834123,65e67470ae2fbf2172c317b2,65e87d7097d094c63d95800e,,,,,,,,,,,601.872,1.2,603.072,603.072,603.096,right,1,0.017,,603.096,604.098,1,5,21,14,1,total,1,images/Ex15.jpg,right,training,hard,3,,,,,
,,,,,5b98c8c1db823b0001ef5842,001,44,Male,British,Degree,2024-03-06_14h28.34.622,CRL1h,2023.2.3,MacIntel,118.4834123,65e67470ae2fbf2172c317b2,65e87d7097d094c63d95800e,,,,,,,,,,,604.101,1.5,605.597,605.597,606.272,left,0,0.668,,606.272,607.272,1,6,22,13,1,total,1,images/Ex14.jpg,right,training,hard,3,,,,,
,,,,,5b98c8c1db823b0001ef5842,001,44,Male,British,Degree,2024-03-06_14h28.34.622,CRL1h,2023.2.3,MacIntel,118.4834123,65e67470ae2fbf2172c317b2,65e87d7097d094c63d95800e,,,,,,,,,,,607.272,0.6,607.871,607.871,608.388,left,0,0.51,,608.388,609.387,1,7,23,5,1,total,1,images/Ex14.jpg,right,training,hard,3,,,,,
,,,,,5b98c8c1db823b0001ef5842,001,44,Male,British,Degree,2024-03-06_14h28.34.622,CRL1h,2023.2.3,MacIntel,118.4834123,65e67470ae2fbf2172c317b2,65e87d7097d094c63d95800e,,,,,,,,,,,609.389,1.4,610.789,610.789,610.847,right,1,0.051,,610.847,611.847,1,8,24,4,1,total,1,images/Ex13.jpg,right,training,hard,3,,,,,
,,,,,5b98c8c1db823b0001ef5842,001,44,Male,British,Degree,2024-03-06_14h28.34.622,CRL1h,2023.2.3,MacIntel,118.4834123,65e67470ae2fbf2172c317b2,65e87d7097d094c63d95800e,,,,,,,,,,,611.848,0.6,612.447,612.447,614.371,right,0,1.92,,614.371,615.371,1,9,25,11,1,total,1,images/Ex12.jpg,left,training,hard,3,,,,,
,,,,,5b98c8c1db823b0001ef5842,001,44,Male,British,Degree,2024-03-06_14h28.34.622,CRL1h,2023.2.3,MacIntel,118.4834123,65e67470ae2fbf2172c317b2,65e87d7097d094c63d95800e,,,,,,,,,,,615.373,1.1,616.472,616.472,617.147,right,1,0.669,,617.147,618.147,1,10,26,15,1,total,1,images/Ex16.jpg,right,training,hard,3,,,,,
,,,,,5b98c8c1db823b0001ef5842,001,44,Male,British,Degree,2024-03-06_14h28.34.622,CRL1h,2023.2.3,MacIntel,118.4834123,65e67470ae2fbf2172c317b2,65e87d7097d094c63d95800e,,,,,,,,,,,618.148,0.8,618.946,618.946,619.705,right,1,0.754,,619.705,620.704,1,11,27,7,1,total,1,images/Ex16.jpg,right,training,hard,3,,,,,
,,,,,5b98c8c1db823b0001ef5842,001,44,Male,British,Degree,2024-03-06_14h28.34.622,CRL1h,2023.2.3,MacIntel,118.4834123,65e67470ae2fbf2172c317b2,65e87d7097d094c63d95800e,,,,,,,,,,,620.705,1.1,621.842,621.842,623.321,left,1,1.474,,623.321,624.321,1,12,28,0,1,total,1,images/Ex9.jpg,left,training,hard,3,,,,,
,,,,,5b98c8c1db823b0001ef5842,001,44,Male,British,Degree,2024-03-06_14h28.34.622,CRL1h,2023.2.3,MacIntel,118.4834123,65e67470ae2fbf2172c317b2,65e87d7097d094c63d95800e,,,,,,,,,,,624.322,0.8,625.121,625.121,625.213,left,0,0.085,,625.213,626.214,1,13,29,12,1,total,1,images/Ex13.jpg,right,training,hard,3,,,,,
,,,,,5b98c8c1db823b0001ef5842,001,44,Male,British,Degree,2024-03-06_14h28.34.622,CRL1h,2023.2.3,MacIntel,118.4834123,65e67470ae2fbf2172c317b2,65e87d7097d094c63d95800e,,,,,,,,,,,626.215,0.7,626.914,626.914,627.371,left,1,0.454,,627.371,628.371,1,14,30,9,1,total,1,images/Ex10.jpg,left,training,hard,3,,,,,
,,,,,5b98c8c1db823b0001ef5842,001,44,Male,British,Degree,2024-03-06_14h28.34.622,CRL1h,2023.2.3,MacIntel,118.4834123,65e67470ae2fbf2172c317b2,65e87d7097d094c63d95800e,,,,,,,,,,,628.372,1.4,629.771,629.771,630.122,right,0,0.345,,630.122,631.121,1,15,31,2,1,total,1,images/Ex11.jpg,left,training,hard,3,,,,,
,,,,,5b98c8c1db823b0001ef5842,001,44,Male,British,Degree,2024-03-06_14h28.34.622,CRL1h,2023.2.3,MacIntel,118.4834123,65e67470ae2fbf2172c317b2,65e87d7097d094c63d95800e,,,,,,,,,,,631.122,1,632.121,632.121,632.771,right,0,0.647,,632.771,633.771,2,0,32,1,1,total,1,images/Ex10.jpg,left,training,hard,3,,,,,
,,,,,5b98c8c1db823b0001ef5842,001,44,Male,British,Degree,2024-03-06_14h28.34.622,CRL1h,2023.2.3,MacIntel,118.4834123,65e67470ae2fbf2172c317b2,65e87d7097d094c63d95800e,,,,,,,,,,,633.773,0.8,634.571,634.571,635.629,left,0,1.056,,635.629,636.631,2,1,33,13,1,total,1,images/Ex14.jpg,right,training,hard,3,,,,,
,,,,,5b98c8c1db823b0001ef5842,001,44,Male,British,Degree,2024-03-06_14h28.34.622,CRL1h,2023.2.3,MacIntel,118.4834123,65e67470ae2fbf2172c317b2,65e87d7097d094c63d95800e,,,,,,,,,,,636.634,0.8,637.43,637.43,637.813,right,1,0.376,,637.813,638.813,2,2,34,7,1,total,1,images/Ex16.jpg,right,training,hard,3,,,,,
,,,,,5b98c8c1db823b0001ef5842,001,44,Male,British,Degree,2024-03-06_14h28.34.622,CRL1h,2023.2.3,MacIntel,118.4834123,65e67470ae2fbf2172c317b2,65e87d7097d094c63d95800e,,,,,,,,,,,638.814,0.6,639.413,639.413,640.13,right,0,0.712,,640.13,641.13,2,3,35,2,1,total,1,images/Ex11.jpg,left,training,hard,3,,,,,
,,,,,5b98c8c1db823b0001ef5842,001,44,Male,British,Degree,2024-03-06_14h28.34.622,CRL1h,2023.2.3,MacIntel,118.4834123,65e67470ae2fbf2172c317b2,65e87d7097d094c63d95800e,,,,,,,,,,,641.131,1.1,642.23,642.23,644.876,left,1,2.644,,644.876,645.871,2,4,36,0,1,total,1,images/Ex9.jpg,left,training,hard,3,,,,,
,,,,,5b98c8c1db823b0001ef5842,001,44,Male,British,Degree,2024-03-06_14h28.34.622,CRL1h,2023.2.3,MacIntel,118.4834123,65e67470ae2fbf2172c317b2,65e87d7097d094c63d95800e,,,,,,,,,,,645.872,1.2,647.071,647.071,648.005,left,0,0.929,,648.005,649.005,2,5,37,6,1,total,1,images/Ex15.jpg,right,training,hard,3,,,,,
,,,,,5b98c8c1db823b0001ef5842,001,44,Male,British,Degree,2024-03-06_14h28.34.622,CRL1h,2023.2.3,MacIntel,118.4834123,65e67470ae2fbf2172c317b2,65e87d7097d094c63d95800e,,,,,,,,,,,649.005,1.1,650.105,650.105,650.772,left,0,0.663,,650.772,651.772,2,6,38,4,1,total,1,images/Ex13.jpg,right,training,hard,3,,,,,
,,,,,5b98c8c1db823b0001ef5842,001,44,Male,British,Degree,2024-03-06_14h28.34.622,CRL1h,2023.2.3,MacIntel,118.4834123,65e67470ae2fbf2172c317b2,65e87d7097d094c63d95800e,,,,,,,,,,,651.773,0.9,652.672,652.672,653.331,left,1,0.65,,653.331,654.33,2,7,39,9,1,total,1,images/Ex10.jpg,left,training,hard,3,,,,,
,,,,,5b98c8c1db823b0001ef5842,001,44,Male,British,Degree,2024-03-06_14h28.34.622,CRL1h,2023.2.3,MacIntel,118.4834123,65e67470ae2fbf2172c317b2,65e87d7097d094c63d95800e,,,,,,,,,,,654.331,1.5,655.831,655.831,655.997,left,1,0.16,,655.997,656.997,2,8,40,10,1,total,1,images/Ex11.jpg,left,training,hard,3,,,,,
,,,,,5b98c8c1db823b0001ef5842,001,44,Male,British,Degree,2024-03-06_14h28.34.622,CRL1h,2023.2.3,MacIntel,118.4834123,65e67470ae2fbf2172c317b2,65e87d7097d094c63d95800e,,,,,,,,,,,656.998,1.3,658.297,658.297,658.381,left,0,0.077,,658.381,659.38,2,9,41,5,1,total,1,images/Ex14.jpg,right,training,hard,3,,,,,
,,,,,5b98c8c1db823b0001ef5842,001,44,Male,British,Degree,2024-03-06_14h28.34.622,CRL1h,2023.2.3,MacIntel,118.4834123,65e67470ae2fbf2172c317b2,65e87d7097d094c63d95800e,,,,,,,,,,,659.381,1.1,660.48,660.48,661.213,left,1,0.728,,661.213,662.213,2,10,42,3,1,total,1,images/Ex12.jpg,left,training,hard,3,,,,,
,,,,,5b98c8c1db823b0001ef5842,001,44,Male,British,Degree,2024-03-06_14h28.34.622,CRL1h,2023.2.3,MacIntel,118.4834123,65e67470ae2fbf2172c317b2,65e87d7097d094c63d95800e,,,,,,,,,,,662.214,1.5,663.714,663.714,666.755,left,0,3.035,,666.755,667.75,2,11,43,15,1,total,1,images/Ex16.jpg,right,training,hard,3,,,,,
,,,,,5b98c8c1db823b0001ef5842,001,44,Male,British,Degree,2024-03-06_14h28.34.622,CRL1h,2023.2.3,MacIntel,118.4834123,65e67470ae2fbf2172c317b2,65e87d7097d094c63d95800e,,,,,,,,,,,667.75,1,668.749,668.75,670.213,right,1,1.456,,670.213,671.214,2,12,44,14,1,total,1,images/Ex15.jpg,right,training,hard,3,,,,,
,,,,,5b98c8c1db823b0001ef5842,001,44,Male,British,Degree,2024-03-06_14h28.34.622,CRL1h,2023.2.3,MacIntel,118.4834123,65e67470ae2fbf2172c317b2,65e87d7097d094c63d95800e,,,,,,,,,,,671.216,1.5,672.714,672.714,672.914,right,1,0.194,,672.914,673.914,2,13,45,12,1,total,1,images/Ex13.jpg,right,training,hard,3,,,,,
,,,,,5b98c8c1db823b0001ef5842,001,44,Male,British,Degree,2024-03-06_14h28.34.622,CRL1h,2023.2.3,MacIntel,118.4834123,65e67470ae2fbf2172c317b2,65e87d7097d094c63d95800e,,,,,,,,,,,673.916,1,674.913,674.914,675.138,left,1,0.221,,675.138,676.139,2,14,46,8,1,total,1,images/Ex9.jpg,left,training,hard,3,,,,,
,,,,,5b98c8c1db823b0001ef5842,001,44,Male,British,Degree,2024-03-06_14h28.34.622,CRL1h,2023.2.3,MacIntel,118.4834123,65e67470ae2fbf2172c317b2,65e87d7097d094c63d95800e,,,,,,,,,,,676.14,1.4,677.539,677.539,677.906,right,0,0.364,,677.906,678.905,2,15,47,11,1,total,1,images/Ex12.jpg,left,training,hard,3,,,,,
,,,,,5b98c8c1db823b0001ef5842,001,44,Male,British,Degree,2024-03-06_14h28.34.622,CRL1h,2023.2.3,MacIntel,118.4834123,65e67470ae2fbf2172c317b2,65e87d7097d094c63d95800e,,,,,,,,,,,678.906,1.3,680.205,680.205,680.471,left,1,0.262,,680.471,681.471,3,0,48,3,1,total,1,images/Ex12.jpg,left,training,hard,3,,,,,
,,,,,5b98c8c1db823b0001ef5842,001,44,Male,British,Degree,2024-03-06_14h28.34.622,CRL1h,2023.2.3,MacIntel,118.4834123,65e67470ae2fbf2172c317b2,65e87d7097d094c63d95800e,,,,,,,,,,,681.472,1.4,682.872,682.872,683.78,right,0,0.905,,683.78,684.78,3,1,49,2,1,total,1,images/Ex11.jpg,left,training,hard,3,,,,,
,,,,,5b98c8c1db823b0001ef5842,001,44,Male,British,Degree,2024-03-06_14h28.34.622,CRL1h,2023.2.3,MacIntel,118.4834123,65e67470ae2fbf2172c317b2,65e87d7097d094c63d95800e,,,,,,,,,,,684.78,1,685.781,685.781,686.212,left,0,0.424,,686.212,687.214,3,2,50,7,1,total,1,images/Ex16.jpg,right,training,hard,3,,,,,
,,,,,5b98c8c1db823b0001ef5842,001,44,Male,British,Degree,2024-03-06_14h28.34.622,CRL1h,2023.2.3,MacIntel,118.4834123,65e67470ae2fbf2172c317b2,65e87d7097d094c63d95800e,,,,,,,,,,,687.214,1.5,688.714,688.714,689.181,left,1,0.461,,689.181,690.18,3,3,51,8,1,total,1,images/Ex9.jpg,left,training,hard,3,,,,,
,,,,,5b98c8c1db823b0001ef5842,001,44,Male,British,Degree,2024-03-06_14h28.34.622,CRL1h,2023.2.3,MacIntel,118.4834123,65e67470ae2fbf2172c317b2,65e87d7097d094c63d95800e,,,,,,,,,,,690.182,0.8,690.98,690.981,691.405,left,1,0.422,,691.405,692.405,3,4,52,9,1,total,1,images/Ex10.jpg,left,training,hard,3,,,,,
,,,,,5b98c8c1db823b0001ef5842,001,44,Male,British,Degree,2024-03-06_14h28.34.622,CRL1h,2023.2.3,MacIntel,118.4834123,65e67470ae2fbf2172c317b2,65e87d7097d094c63d95800e,,,,,,,,,,,692.406,1.3,693.705,693.705,694.04,right,0,0.331,,694.04,695.037,3,5,53,1,1,total,1,images/Ex10.jpg,left,training,hard,3,,,,,
,,,,,5b98c8c1db823b0001ef5842,001,44,Male,British,Degree,2024-03-06_14h28.34.622,CRL1h,2023.2.3,MacIntel,118.4834123,65e67470ae2fbf2172c317b2,65e87d7097d094c63d95800e,,,,,,,,,,,695.037,0.9,695.938,695.938,696.647,left,0,0.706,,696.647,697.647,3,6,54,15,1,total,1,images/Ex16.jpg,right,training,hard,3,,,,,
,,,,,5b98c8c1db823b0001ef5842,001,44,Male,British,Degree,2024-03-06_14h28.34.622,CRL1h,2023.2.3,MacIntel,118.4834123,65e67470ae2fbf2172c317b2,65e87d7097d094c63d95800e,,,,,,,,,,,697.649,1.3,698.947,698.947,699.814,left,1,0.86,,699.814,700.818,3,7,55,10,1,total,1,images/Ex11.jpg,left,training,hard,3,,,,,
,,,,,5b98c8c1db823b0001ef5842,001,44,Male,British,Degree,2024-03-06_14h28.34.622,CRL1h,2023.2.3,MacIntel,118.4834123,65e67470ae2fbf2172c317b2,65e87d7097d094c63d95800e,,,,,,,,,,,700.821,1.3,702.121,702.121,702.522,right,1,0.396,,702.522,703.522,3,8,56,14,1,total,1,images/Ex15.jpg,right,training,hard,3,,,,,
,,,,,5b98c8c1db823b0001ef5842,001,44,Male,British,Degree,2024-03-06_14h28.34.622,CRL1h,2023.2.3,MacIntel,118.4834123,65e67470ae2fbf2172c317b2,65e87d7097d094c63d95800e,,,,,,,,,,,703.523,0.8,704.323,704.324,705.022,right,0,0.693,,705.023,706.022,3,9,57,11,1,total,1,images/Ex12.jpg,left,training,hard,3,,,,,
,,,,,5b98c8c1db823b0001ef5842,001,44,Male,British,Degree,2024-03-06_14h28.34.622,CRL1h,2023.2.3,MacIntel,118.4834123,65e67470ae2fbf2172c317b2,65e87d7097d094c63d95800e,,,,,,,,,,,706.023,1.2,707.222,707.222,707.564,right,1,0.335,,707.564,708.563,3,10,58,6,1,total,1,images/Ex15.jpg,right,training,hard,3,,,,,
,,,,,5b98c8c1db823b0001ef5842,001,44,Male,British,Degree,2024-03-06_14h28.34.622,CRL1h,2023.2.3,MacIntel,118.4834123,65e67470ae2fbf2172c317b2,65e87d7097d094c63d95800e,,,,,,,,,,,708.563,0.6,709.164,709.165,709.204,right,1,0.037,,709.205,710.206,3,11,59,4,1,total,1,images/Ex13.jpg,right,training,hard,3,,,,,
,,,,,5b98c8c1db823b0001ef5842,001,44,Male,British,Degree,2024-03-06_14h28.34.622,CRL1h,2023.2.3,MacIntel,118.4834123,65e67470ae2fbf2172c317b2,65e87d7097d094c63d95800e,,,,,,,,,,,710.207,1.3,711.506,711.506,711.638,left,0,0.128,,711.638,712.638,3,12,60,13,1,total,1,images/Ex14.jpg,right,training,hard,3,,,,,
,,,,,5b98c8c1db823b0001ef5842,001,44,Male,British,Degree,2024-03-06_14h28.34.622,CRL1h,2023.2.3,MacIntel,118.4834123,65e67470ae2fbf2172c317b2,65e87d7097d094c63d95800e,,,,,,,,,,,712.639,1.5,714.139,714.139,714.472,left,0,0.327,,714.472,715.472,3,13,61,5,1,total,1,images/Ex14.jpg,right,training,hard,3,,,,,
,,,,,5b98c8c1db823b0001ef5842,001,44,Male,British,Degree,2024-03-06_14h28.34.622,CRL1h,2023.2.3,MacIntel,118.4834123,65e67470ae2fbf2172c317b2,65e87d7097d094c63d95800e,,,,,,,,,,,715.473,1.4,716.872,716.872,717.905,left,1,1.028,,717.905,718.905,3,14,62,0,1,total,1,images/Ex9.jpg,left,training,hard,3,,,,,
,,,,,5b98c8c1db823b0001ef5842,001,44,Male,British,Degree,2024-03-06_14h28.34.622,CRL1h,2023.2.3,MacIntel,118.4834123,65e67470ae2fbf2172c317b2,65e87d7097d094c63d95800e,,,,,,,,,,,718.906,1.4,720.306,720.306,721.222,left,0,0.911,,721.222,722.222,3,15,63,12,1,total,1,images/Ex13.jpg,right,training,hard,3,,,,,
,,,,,5b98c8c1db823b0001ef5842,001,44,Male,British,Degree,2024-03-06_14h28.34.622,CRL1h,2023.2.3,MacIntel,118.4834123,65e67470ae2fbf2172c317b2,65e87d7097d094c63d95800e,,,,,,,,,,,722.223,1.3,723.521,723.521,724.124,left,0,0.601,,724.124,725.122,4,0,64,7,1,total,1,images/Ex16.jpg,right,training,hard,3,,,,,
,,,,,5b98c8c1db823b0001ef5842,001,44,Male,British,Degree,2024-03-06_14h28.34.622,CRL1h,2023.2.3,MacIntel,118.4834123,65e67470ae2fbf2172c317b2,65e87d7097d094c63d95800e,,,,,,,,,,,725.124,1.1,726.223,726.223,726.305,right,0,0.077,,726.305,727.305,4,1,65,8,1,total,1,images/Ex9.jpg,left,training,hard,3,,,,,
,,,,,5b98c8c1db823b0001ef5842,001,44,Male,British,Degree,2024-03-06_14h28.34.622,CRL1h,2023.2.3,MacIntel,118.4834123,65e67470ae2fbf2172c317b2,65e87d7097d094c63d95800e,,,,,,,,,,,727.307,1.3,728.604,728.605,728.856,left,0,0.242,,728.856,729.855,4,2,66,15,1,total,1,images/Ex16.jpg,right,training,hard,3,,,,,
,,,,,5b98c8c1db823b0001ef5842,001,44,Male,British,Degree,2024-03-06_14h28.34.622,CRL1h,2023.2.3,MacIntel,118.4834123,65e67470ae2fbf2172c317b2,65e87d7097d094c63d95800e,,,,,,,,,,,729.855,1.3,731.156,731.156,732.531,left,0,1.367,,732.531,733.531,4,3,67,6,1,total,1,images/Ex15.jpg,right,training,hard,3,,,,,
,,,,,5b98c8c1db823b0001ef5842,001,44,Male,British,Degree,2024-03-06_14h28.34.622,CRL1h,2023.2.3,MacIntel,118.4834123,65e67470ae2fbf2172c317b2,65e87d7097d094c63d95800e,,,,,,,,,,,733.533,1,734.53,734.53,735.063,right,0,0.529,,735.063,736.064,4,4,68,11,1,total,1,images/Ex12.jpg,left,training,hard,3,,,,,
,,,,,5b98c8c1db823b0001ef5842,001,44,Male,British,Degree,2024-03-06_14h28.34.622,CRL1h,2023.2.3,MacIntel,118.4834123,65e67470ae2fbf2172c317b2,65e87d7097d094c63d95800e,,,,,,,,,,,736.065,1.3,737.363,737.363,737.38,left,1,0.009,,737.38,738.38,4,5,69,0,1,total,1,images/Ex9.jpg,left,training,hard,3,,,,,
,,,,,5b98c8c1db823b0001ef5842,001,44,Male,British,Degree,2024-03-06_14h28.34.622,CRL1h,2023.2.3,MacIntel,118.4834123,65e67470ae2fbf2172c317b2,65e87d7097d094c63d95800e,,,,,,,,,,,738.38,1.5,739.88,739.88,741.414,left,0,1.532,,741.414,742.409,4,6,70,12,1,total,1,images/Ex13.jpg,right,training,hard,3,,,,,
,,,,,5b98c8c1db823b0001ef5842,001,44,Male,British,Degree,2024-03-06_14h28.34.622,CRL1h,2023.2.3,MacIntel,118.4834123,65e67470ae2fbf2172c317b2,65e87d7097d094c63d95800e,,,,,,,,,,,742.41,0.9,743.305,743.305,744.289,left,1,0.979,,744.289,745.289,4,7,71,9,1,total,1,images/Ex10.jpg,left,training,hard,3,,,,,
,,,,,5b98c8c1db823b0001ef5842,001,44,Male,British,Degree,2024-03-06_14h28.34.622,CRL1h,2023.2.3,MacIntel,118.4834123,65e67470ae2fbf2172c317b2,65e87d7097d094c63d95800e,,,,,,,,,,,745.29,1.4,746.689,746.689,746.805,left,1,0.11,,746.805,747.805,4,8,72,3,1,total,1,images/Ex12.jpg,left,training,hard,3,,,,,
,,,,,5b98c8c1db823b0001ef5842,001,44,Male,British,Degree,2024-03-06_14h28.34.622,CRL1h,2023.2.3,MacIntel,118.4834123,65e67470ae2fbf2172c317b2,65e87d7097d094c63d95800e,,,,,,,,,,,747.805,1.5,749.306,749.306,749.347,left,1,0.035,,749.347,750.347,4,9,73,10,1,total,1,images/Ex11.jpg,left,training,hard,3,,,,,
,,,,,5b98c8c1db823b0001ef5842,001,44,Male,British,Degree,2024-03-06_14h28.34.622,CRL1h,2023.2.3,MacIntel,118.4834123,65e67470ae2fbf2172c317b2,65e87d7097d094c63d95800e,,,,,,,,,,,750.349,0.9,751.247,751.247,751.597,left,0,0.346,,751.597,752.597,4,10,74,13,1,total,1,images/Ex14.jpg,right,training,hard,3,,,,,
,,,,,5b98c8c1db823b0001ef5842,001,44,Male,British,Degree,2024-03-06_14h28.34.622,CRL1h,2023.2.3,MacIntel,118.4834123,65e67470ae2fbf2172c317b2,65e87d7097d094c63d95800e,,,,,,,,,,,752.598,1.3,753.896,753.896,754.013,left,0,0.111,,754.013,755.014,4,11,75,4,1,total,1,images/Ex13.jpg,right,training,hard,3,,,,,
,,,,,5b98c8c1db823b0001ef5842,001,44,Male,British,Degree,2024-03-06_14h28.34.622,CRL1h,2023.2.3,MacIntel,118.4834123,65e67470ae2fbf2172c317b2,65e87d7097d094c63d95800e,,,,,,,,,,,755.015,0.7,755.714,755.714,755.989,right,0,0.267,,755.989,756.989,4,12,76,2,1,total,1,images/Ex11.jpg,left,training,hard,3,,,,,
,,,,,5b98c8c1db823b0001ef5842,001,44,Male,British,Degree,2024-03-06_14h28.34.622,CRL1h,2023.2.3,MacIntel,118.4834123,65e67470ae2fbf2172c317b2,65e87d7097d094c63d95800e,,,,,,,,,,,756.989,0.6,757.589,757.589,757.78,right,0,0.188,,757.78,758.781,4,13,77,1,1,total,1,images/Ex10.jpg,left,training,hard,3,,,,,
,,,,,5b98c8c1db823b0001ef5842,001,44,Male,British,Degree,2024-03-06_14h28.34.622,CRL1h,2023.2.3,MacIntel,118.4834123,65e67470ae2fbf2172c317b2,65e87d7097d094c63d95800e,,,,,,,,,,,758.781,0.5,759.281,759.281,759.539,left,0,0.255,,759.539,760.539,4,14,78,14,1,total,1,images/Ex15.jpg,right,training,hard,3,,,,,
,,,,,5b98c8c1db823b0001ef5842,001,44,Male,British,Degree,2024-03-06_14h28.34.622,CRL1h,2023.2.3,MacIntel,118.4834123,65e67470ae2fbf2172c317b2,65e87d7097d094c63d95800e,,,,,,,,,,,760.54,1.3,761.838,761.838,762.172,left,0,0.328,,762.172,763.172,4,15,79,5,1,total,1,images/Ex14.jpg,right,training,hard,3,,,,,
,,,,,5b98c8c1db823b0001ef5842,001,44,Male,British,Degree,2024-03-06_14h28.34.622,CRL1h,2023.2.3,MacIntel,118.4834123,65e67470ae2fbf2172c317b2,65e87d7097d094c63d95800e,,,,,,,,,,,763.173,0.6,763.772,763.772,764.847,left,1,1.07,,764.848,765.847,5,0,80,1,1,total,1,images/Ex10.jpg,left,training,hard,3,,,,,
,,,,,5b98c8c1db823b0001ef5842,001,44,Male,British,Degree,2024-03-06_14h28.34.622,CRL1h,2023.2.3,MacIntel,118.4834123,65e67470ae2fbf2172c317b2,65e87d7097d094c63d95800e,,,,,,,,,,,765.852,1.1,766.947,766.947,767.888,left,0,0.936,,767.888,768.889,5,1,81,15,1,total,1,images/Ex16.jpg,right,training,hard,3,,,,,
,,,,,5b98c8c1db823b0001ef5842,001,44,Male,British,Degree,2024-03-06_14h28.34.622,CRL1h,2023.2.3,MacIntel,118.4834123,65e67470ae2fbf2172c317b2,65e87d7097d094c63d95800e,,,,,,,,,,,768.89,1.4,770.289,770.289,771.805,left,1,1.509,,771.805,772.805,5,2,82,0,1,total,1,images/Ex9.jpg,left,training,hard,3,,,,,
,,,,,5b98c8c1db823b0001ef5842,001,44,Male,British,Degree,2024-03-06_14h28.34.622,CRL1h,2023.2.3,MacIntel,118.4834123,65e67470ae2fbf2172c317b2,65e87d7097d094c63d95800e,,,,,,,,,,,772.805,1.4,774.209,774.209,775.289,left,1,1.076,,775.289,776.288,5,3,83,9,1,total,1,images/Ex10.jpg,left,training,hard,3,,,,,
,,,,,5b98c8c1db823b0001ef5842,001,44,Male,British,Degree,2024-03-06_14h28.34.622,CRL1h,2023.2.3,MacIntel,118.4834123,65e67470ae2fbf2172c317b2,65e87d7097d094c63d95800e,,,,,,,,,,,776.29,1.2,777.489,777.489,779.405,left,1,1.914,,779.406,780.405,5,4,84,10,1,total,1,images/Ex11.jpg,left,training,hard,3,,,,,
,,,,,5b98c8c1db823b0001ef5842,001,44,Male,British,Degree,2024-03-06_14h28.34.622,CRL1h,2023.2.3,MacIntel,118.4834123,65e67470ae2fbf2172c317b2,65e87d7097d094c63d95800e,,,,,,,,,,,780.406,0.8,781.206,781.206,781.74,right,1,0.528,,781.74,782.74,5,5,85,5,1,total,1,images/Ex14.jpg,right,training,hard,3,,,,,
,,,,,5b98c8c1db823b0001ef5842,001,44,Male,British,Degree,2024-03-06_14h28.34.622,CRL1h,2023.2.3,MacIntel,118.4834123,65e67470ae2fbf2172c317b2,65e87d7097d094c63d95800e,,,,,,,,,,,782.741,0.6,783.338,783.338,784.356,left,1,1.013,,784.356,785.353,5,6,86,8,1,total,1,images/Ex9.jpg,left,training,hard,3,,,,,
,,,,,5b98c8c1db823b0001ef5842,001,44,Male,British,Degree,2024-03-06_14h28.34.622,CRL1h,2023.2.3,MacIntel,118.4834123,65e67470ae2fbf2172c317b2,65e87d7097d094c63d95800e,,,,,,,,,,,785.354,1.5,786.855,786.855,786.88,left,0,0.019,,786.88,787.88,5,7,87,6,1,total,1,images/Ex15.jpg,right,training,hard,3,,,,,
,,,,,5b98c8c1db823b0001ef5842,001,44,Male,British,Degree,2024-03-06_14h28.34.622,CRL1h,2023.2.3,MacIntel,118.4834123,65e67470ae2fbf2172c317b2,65e87d7097d094c63d95800e,,,,,,,,,,,787.882,1.5,789.381,789.381,790.322,left,0,0.937,,790.322,791.322,5,8,88,4,1,total,1,images/Ex13.jpg,right,training,hard,3,,,,,
,,,,,5b98c8c1db823b0001ef5842,001,44,Male,British,Degree,2024-03-06_14h28.34.622,CRL1h,2023.2.3,MacIntel,118.4834123,65e67470ae2fbf2172c317b2,65e87d7097d094c63d95800e,,,,,,,,,,,791.323,0.9,792.222,792.222,793.548,left,1,1.321,,793.548,794.547,5,9,89,3,1,total,1,images/Ex12.jpg,left,training,hard,3,,,,,
,,,,,5b98c8c1db823b0001ef5842,001,44,Male,British,Degree,2024-03-06_14h28.34.622,CRL1h,2023.2.3,MacIntel,118.4834123,65e67470ae2fbf2172c317b2,65e87d7097d094c63d95800e,,,,,,,,,,,794.548,0.9,795.448,795.448,796.531,left,1,1.076,,796.531,797.532,5,10,90,2,1,total,1,images/Ex11.jpg,left,training,hard,3,,,,,
,,,,,5b98c8c1db823b0001ef5842,001,44,Male,British,Degree,2024-03-06_14h28.34.622,CRL1h,2023.2.3,MacIntel,118.4834123,65e67470ae2fbf2172c317b2,65e87d7097d094c63d95800e,,,,,,,,,,,797.532,0.6,798.132,798.132,798.34,left,0,0.2,,798.34,799.339,5,11,91,13,1,total,1,images/Ex14.jpg,right,training,hard,3,,,,,
,,,,,5b98c8c1db823b0001ef5842,001,44,Male,British,Degree,2024-03-06_14h28.34.622,CRL1h,2023.2.3,MacIntel,118.4834123,65e67470ae2fbf2172c317b2,65e87d7097d094c63d95800e,,,,,,,,,,,799.341,0.8,800.141,800.141,800.84,right,1,0.692,,800.841,801.839,5,12,92,7,1,total,1,images/Ex16.jpg,right,training,hard,3,,,,,
,,,,,5b98c8c1db823b0001ef5842,001,44,Male,British,Degree,2024-03-06_14h28.34.622,CRL1h,2023.2.3,MacIntel,118.4834123,65e67470ae2fbf2172c317b2,65e87d7097d094c63d95800e,,,,,,,,,,,801.839,0.7,802.538,802.539,803.998,right,1,1.455,,803.998,804.998,5,13,93,14,1,total,1,images/Ex15.jpg,right,training,hard,3,,,,,
,,,,,5b98c8c1db823b0001ef5842,001,44,Male,British,Degree,2024-03-06_14h28.34.622,CRL1h,2023.2.3,MacIntel,118.4834123,65e67470ae2fbf2172c317b2,65e87d7097d094c63d95800e,,,,,,,,,,,804.998,0.8,805.799,805.799,807.782,right,1,1.976,,807.782,808.781,5,14,94,12,1,total,1,images/Ex13.jpg,right,training,hard,3,,,,,
,,,,,5b98c8c1db823b0001ef5842,001,44,Male,British,Degree,2024-03-06_14h28.34.622,CRL1h,2023.2.3,MacIntel,118.4834123,65e67470ae2fbf2172c317b2,65e87d7097d094c63d95800e,,,,,,,,,,,808.783,1.3,810.082,810.083,810.281,right,0,0.19,,810.281,811.281,5,15,95,11,1,total,1,images/Ex12.jpg,left,training,hard,3,,,,,
,,,,,5b98c8c1db823b0001ef5842,001,44,Male,British,Degree,2024-03-06_14h28.34.622,CRL1h,2023.2.3,MacIntel,118.4834123,65e67470ae2fbf2172c317b2,65e87d7097d094c63d95800e,,,,,,,,,,,811.282,0.6,811.88,811.88,812.147,left,0,0.259,,812.147,813.148,6,0,96,12,1,total,1,images/Ex13.jpg,right,training,hard,3,,,,,
,,,,,5b98c8c1db823b0001ef5842,001,44,Male,British,Degree,2024-03-06_14h28.34.622,CRL1h,2023.2.3,MacIntel,118.4834123,65e67470ae2fbf2172c317b2,65e87d7097d094c63d95800e,,,,,,,,,,,813.149,0.7,813.848,813.848,814.24,left,0,0.387,,814.24,815.24,6,1,97,6,1,total,1,images/Ex15.jpg,right,training,hard,3,,,,,
,,,,,5b98c8c1db823b0001ef5842,001,44,Male,British,Degree,2024-03-06_14h28.34.622,CRL1h,2023.2.3,MacIntel,118.4834123,65e67470ae2fbf2172c317b2,65e87d7097d094c63d95800e,,,,,,,,,,,815.241,1.4,816.64,816.64,817.306,left,0,0.664,,817.306,818.307,6,2,98,7,1,total,1,images/Ex16.jpg,right,training,hard,3,,,,,
,,,,,5b98c8c1db823b0001ef5842,001,44,Male,British,Degree,2024-03-06_14h28.34.622,CRL1h,2023.2.3,MacIntel,118.4834123,65e67470ae2fbf2172c317b2,65e87d7097d094c63d95800e,,,,,,,,,,,818.308,1.5,819.807,819.807,820.156,right,0,0.347,,820.156,821.155,6,3,99,10,1,total,1,images/Ex11.jpg,left,training,hard,3,,,,,
,,,,,5b98c8c1db823b0001ef5842,001,44,Male,British,Degree,2024-03-06_14h28.34.622,CRL1h,2023.2.3,MacIntel,118.4834123,65e67470ae2fbf2172c317b2,65e87d7097d094c63d95800e,,,,,,,,,,,821.156,0.5,821.657,821.657,822.181,right,0,0.519,,822.181,823.182,6,4,100,9,1,total,1,images/Ex10.jpg,left,training,hard,3,,,,,
,,,,,5b98c8c1db823b0001ef5842,001,44,Male,British,Degree,2024-03-06_14h28.34.622,CRL1h,2023.2.3,MacIntel,118.4834123,65e67470ae2fbf2172c317b2,65e87d7097d094c63d95800e,,,,,,,,,,,823.184,0.6,823.781,823.781,824.022,right,1,0.238,,824.022,825.023,6,5,101,5,1,total,1,images/Ex14.jpg,right,training,hard,3,,,,,
,,,,,5b98c8c1db823b0001ef5842,001,44,Male,British,Degree,2024-03-06_14h28.34.622,CRL1h,2023.2.3,MacIntel,118.4834123,65e67470ae2fbf2172c317b2,65e87d7097d094c63d95800e,,,,,,,,,,,825.024,0.8,825.823,825.823,826.59,right,1,0.763,,826.59,827.59,6,6,102,4,1,total,1,images/Ex13.jpg,right,training,hard,3,,,,,
,,,,,5b98c8c1db823b0001ef5842,001,44,Male,British,Degree,2024-03-06_14h28.34.622,CRL1h,2023.2.3,MacIntel,118.4834123,65e67470ae2fbf2172c317b2,65e87d7097d094c63d95800e,,,,,,,,,,,827.591,1.4,828.989,828.99,830.481,right,1,1.485,,830.481,831.482,6,7,103,15,1,total,1,images/Ex16.jpg,right,training,hard,3,,,,,
,,,,,5b98c8c1db823b0001ef5842,001,44,Male,British,Degree,2024-03-06_14h28.34.622,CRL1h,2023.2.3,MacIntel,118.4834123,65e67470ae2fbf2172c317b2,65e87d7097d094c63d95800e,,,,,,,,,,,831.485,0.6,832.084,832.084,832.422,right,0,0.33,,832.422,833.423,6,8,104,3,1,total,1,images/Ex12.jpg,left,training,hard,3,,,,,
,,,,,5b98c8c1db823b0001ef5842,001,44,Male,British,Degree,2024-03-06_14h28.34.622,CRL1h,2023.2.3,MacIntel,118.4834123,65e67470ae2fbf2172c317b2,65e87d7097d094c63d95800e,,,,,,,,,,,833.423,1.4,834.823,834.823,835.047,left,1,0.22,,835.047,836.048,6,9,105,2,1,total,1,images/Ex11.jpg,left,training,hard,3,,,,,
,,,,,5b98c8c1db823b0001ef5842,001,44,Male,British,Degree,2024-03-06_14h28.34.622,CRL1h,2023.2.3,MacIntel,118.4834123,65e67470ae2fbf2172c317b2,65e87d7097d094c63d95800e,,,,,,,,,,,836.05,0.6,836.648,836.648,836.898,left,1,0.241,,836.898,837.899,6,10,106,8,1,total,1,images/Ex9.jpg,left,training,hard,3,,,,,
,,,,,5b98c8c1db823b0001ef5842,001,44,Male,British,Degree,2024-03-06_14h28.34.622,CRL1h,2023.2.3,MacIntel,118.4834123,65e67470ae2fbf2172c317b2,65e87d7097d094c63d95800e,,,,,,,,,,,837.899,1,838.898,838.898,839.214,right,1,0.312,,839.214,840.214,6,11,107,13,1,total,1,images/Ex14.jpg,right,training,hard,3,,,,,
,,,,,5b98c8c1db823b0001ef5842,001,44,Male,British,Degree,2024-03-06_14h28.34.622,CRL1h,2023.2.3,MacIntel,118.4834123,65e67470ae2fbf2172c317b2,65e87d7097d094c63d95800e,,,,,,,,,,,840.216,1.3,841.515,841.515,841.69,left,1,0.172,,841.69,842.69,6,12,108,1,1,total,1,images/Ex10.jpg,left,training,hard,3,,,,,
,,,,,5b98c8c1db823b0001ef5842,001,44,Male,British,Degree,2024-03-06_14h28.34.622,CRL1h,2023.2.3,MacIntel,118.4834123,65e67470ae2fbf2172c317b2,65e87d7097d094c63d95800e,,,,,,,,,,,842.691,1.1,843.79,843.79,843.977,left,1,0.184,,843.977,844.972,6,13,109,11,1,total,1,images/Ex12.jpg,left,training,hard,3,,,,,
,,,,,5b98c8c1db823b0001ef5842,001,44,Male,British,Degree,2024-03-06_14h28.34.622,CRL1h,2023.2.3,MacIntel,118.4834123,65e67470ae2fbf2172c317b2,65e87d7097d094c63d95800e,,,,,,,,,,,844.973,1.1,846.073,846.073,846.256,left,1,0.18,,846.256,847.256,6,14,110,0,1,total,1,images/Ex9.jpg,left,training,hard,3,,,,,
,,,,,5b98c8c1db823b0001ef5842,001,44,Male,British,Degree,2024-03-06_14h28.34.622,CRL1h,2023.2.3,MacIntel,118.4834123,65e67470ae2fbf2172c317b2,65e87d7097d094c63d95800e,,,,,,,,,,,847.257,1.4,848.656,848.656,848.867,left,0,0.202,,848.867,849.864,6,15,111,14,1,total,1,images/Ex15.jpg,right,training,hard,3,,,,,
,,,,,5b98c8c1db823b0001ef5842,001,44,Male,British,Degree,2024-03-06_14h28.34.622,CRL1h,2023.2.3,MacIntel,118.4834123,65e67470ae2fbf2172c317b2,65e87d7097d094c63d95800e,,,,,,,,,,,849.865,1.4,851.264,851.264,851.723,right,0,0.457,,851.723,852.723,7,0,112,1,1,total,1,images/Ex10.jpg,left,training,hard,3,,,,,
,,,,,5b98c8c1db823b0001ef5842,001,44,Male,British,Degree,2024-03-06_14h28.34.622,CRL1h,2023.2.3,MacIntel,118.4834123,65e67470ae2fbf2172c317b2,65e87d7097d094c63d95800e,,,,,,,,,,,852.723,1.4,854.124,854.124,854.923,right,1,0.793,,854.923,855.922,7,1,113,15,1,total,1,images/Ex16.jpg,right,training,hard,3,,,,,
,,,,,5b98c8c1db823b0001ef5842,001,44,Male,British,Degree,2024-03-06_14h28.34.622,CRL1h,2023.2.3,MacIntel,118.4834123,65e67470ae2fbf2172c317b2,65e87d7097d094c63d95800e,,,,,,,,,,,855.923,0.8,856.722,856.722,857.214,right,0,0.487,,857.214,858.214,7,2,114,10,1,total,1,images/Ex11.jpg,left,training,hard,3,,,,,
,,,,,5b98c8c1db823b0001ef5842,001,44,Male,British,Degree,2024-03-06_14h28.34.622,CRL1h,2023.2.3,MacIntel,118.4834123,65e67470ae2fbf2172c317b2,65e87d7097d094c63d95800e,,,,,,,,,,,858.215,0.8,859.015,859.015,859.606,right,1,0.588,,859.606,860.606,7,3,115,5,1,total,1,images/Ex14.jpg,right,training,hard,3,,,,,
,,,,,5b98c8c1db823b0001ef5842,001,44,Male,British,Degree,2024-03-06_14h28.34.622,CRL1h,2023.2.3,MacIntel,118.4834123,65e67470ae2fbf2172c317b2,65e87d7097d094c63d95800e,,,,,,,,,,,860.607,0.7,861.293,861.293,862.098,right,1,0.797,,862.098,863.099,7,4,116,12,1,total,1,images/Ex13.jpg,right,training,hard,3,,,,,
,,,,,5b98c8c1db823b0001ef5842,001,44,Male,British,Degree,2024-03-06_14h28.34.622,CRL1h,2023.2.3,MacIntel,118.4834123,65e67470ae2fbf2172c317b2,65e87d7097d094c63d95800e,,,,,,,,,,,863.102,0.8,863.899,863.899,864.548,left,1,0.643,,864.548,865.548,7,5,117,8,1,total,1,images/Ex9.jpg,left,training,hard,3,,,,,
,,,,,5b98c8c1db823b0001ef5842,001,44,Male,British,Degree,2024-03-06_14h28.34.622,CRL1h,2023.2.3,MacIntel,118.4834123,65e67470ae2fbf2172c317b2,65e87d7097d094c63d95800e,,,,,,,,,,,865.549,1,866.549,866.549,867.249,left,0,0.692,,867.249,868.248,7,6,118,13,1,total,1,images/Ex14.jpg,right,training,hard,3,,,,,
,,,,,5b98c8c1db823b0001ef5842,001,44,Male,British,Degree,2024-03-06_14h28.34.622,CRL1h,2023.2.3,MacIntel,118.4834123,65e67470ae2fbf2172c317b2,65e87d7097d094c63d95800e,,,,,,,,,,,868.249,1.5,869.748,869.748,870.959,left,1,1.208,,870.959,871.957,7,7,119,2,1,total,1,images/Ex11.jpg,left,training,hard,3,,,,,
,,,,,5b98c8c1db823b0001ef5842,001,44,Male,British,Degree,2024-03-06_14h28.34.622,CRL1h,2023.2.3,MacIntel,118.4834123,65e67470ae2fbf2172c317b2,65e87d7097d094c63d95800e,,,,,,,,,,,871.958,1.5,873.456,873.456,873.674,left,0,0.212,,873.674,874.674,7,8,120,14,1,total,1,images/Ex15.jpg,right,training,hard,3,,,,,
,,,,,5b98c8c1db823b0001ef5842,001,44,Male,British,Degree,2024-03-06_14h28.34.622,CRL1h,2023.2.3,MacIntel,118.4834123,65e67470ae2fbf2172c317b2,65e87d7097d094c63d95800e,,,,,,,,,,,874.674,1.5,876.174,876.174,876.34,right,0,0.163,,876.34,877.34,7,9,121,3,1,total,1,images/Ex12.jpg,left,training,hard,3,,,,,
,,,,,5b98c8c1db823b0001ef5842,001,44,Male,British,Degree,2024-03-06_14h28.34.622,CRL1h,2023.2.3,MacIntel,118.4834123,65e67470ae2fbf2172c317b2,65e87d7097d094c63d95800e,,,,,,,,,,,877.341,0.9,878.241,878.241,880.55,right,1,2.3,,880.55,881.548,7,10,122,4,1,total,1,images/Ex13.jpg,right,training,hard,3,,,,,
,,,,,5b98c8c1db823b0001ef5842,001,44,Male,British,Degree,2024-03-06_14h28.34.622,CRL1h,2023.2.3,MacIntel,118.4834123,65e67470ae2fbf2172c317b2,65e87d7097d094c63d95800e,,,,,,,,,,,881.55,0.7,882.249,882.249,884.94,left,0,2.688,,884.94,885.94,7,11,123,6,1,total,1,images/Ex15.jpg,right,training,hard,3,,,,,
,,,,,5b98c8c1db823b0001ef5842,001,44,Male,British,Degree,2024-03-06_14h28.34.622,CRL1h,2023.2.3,MacIntel,118.4834123,65e67470ae2fbf2172c317b2,65e87d7097d094c63d95800e,,,,,,,,,,,885.941,0.9,886.841,886.841,887.299,right,0,0.452,,887.299,888.298,7,12,124,9,1,total,1,images/Ex10.jpg,left,training,hard,3,,,,,
,,,,,5b98c8c1db823b0001ef5842,001,44,Male,British,Degree,2024-03-06_14h28.34.622,CRL1h,2023.2.3,MacIntel,118.4834123,65e67470ae2fbf2172c317b2,65e87d7097d094c63d95800e,,,,,,,,,,,888.298,0.9,889.198,889.198,890.09,left,1,0.886,,890.09,891.09,7,13,125,11,1,total,1,images/Ex12.jpg,left,training,hard,3,,,,,
,,,,,5b98c8c1db823b0001ef5842,001,44,Male,British,Degree,2024-03-06_14h28.34.622,CRL1h,2023.2.3,MacIntel,118.4834123,65e67470ae2fbf2172c317b2,65e87d7097d094c63d95800e,,,,,,,,,,,891.09,1,892.09,892.09,893.373,left,1,1.279,,893.373,894.373,7,14,126,0,1,total,1,images/Ex9.jpg,left,training,hard,3,,,,,
,,,,,5b98c8c1db823b0001ef5842,001,44,Male,British,Degree,2024-03-06_14h28.34.622,CRL1h,2023.2.3,MacIntel,118.4834123,65e67470ae2fbf2172c317b2,65e87d7097d094c63d95800e,,,,,,,,,,,894.374,0.8,895.172,895.172,896.282,left,0,1.102,,896.283,897.282,7,15,127,7,1,total,1,images/Ex16.jpg,right,training,hard,3,,,,,
,,,,,5b98c8c1db823b0001ef5842,001,44,Male,British,Degree,2024-03-06_14h28.34.622,CRL1h,2023.2.3,MacIntel,118.4834123,65e67470ae2fbf2172c317b2,65e87d7097d094c63d95800e,,,,,,,,,,,897.288,0.6,897.882,897.882,899.407,left,1,1.517,,899.407,900.406,0,0,0,6,1,total,2,images/Ex15.jpg,left,reversed,hard,3,,,,,
,,,,,5b98c8c1db823b0001ef5842,001,44,Male,British,Degree,2024-03-06_14h28.34.622,CRL1h,2023.2.3,MacIntel,118.4834123,65e67470ae2fbf2172c317b2,65e87d7097d094c63d95800e,,,,,,,,,,,900.407,1.5,901.907,901.907,903.866,left,1,1.949,,903.866,904.865,0,1,1,7,1,total,2,images/Ex16.jpg,left,reversed,hard,3,,,,,
,,,,,5b98c8c1db823b0001ef5842,001,44,Male,British,Degree,2024-03-06_14h28.34.622,CRL1h,2023.2.3,MacIntel,118.4834123,65e67470ae2fbf2172c317b2,65e87d7097d094c63d95800e,,,,,,,,,,,904.866,1,905.866,905.866,908.407,left,1,2.533,,908.407,909.407,0,2,2,13,1,total,2,images/Ex14.jpg,left,reversed,hard,3,,,,,
