infCons.started,infCons.stopped,resp_consent.keys,resp_consent.rt,resp_consent.duration,participant,session,Age?,Gender?,Nationality?,Highest Educational Degree?,date,expName,psychopyVersion,OS,frameRate,STUDY_ID,SESSION_ID,instructions.started,instructions.stopped,resp_instructions.keys,resp_instructions.rt,resp_instructions.duration,nextTask.started,nextTask.stopped,ready_task.keys,ready_task.rt,ready_task.duration,fixation.started,ITI,fixation.stopped,stim.started,stim.stopped,response.keys,response.corr,response.rt,response.duration,feedback.started,feedback.stopped,trials.thisRepN,trials.thisTrialN,trials.thisN,trials.thisIndex,trials.ran,task,phase,Exemplars,r_correct,condition,difficulty,set,end.started,end.stopped,resp_end.keys,resp_end.rt,resp_end.duration
0.0002,35.1147,space,35.0995,,5cf8cc7e95c070001721db8d,001,36,Male,British,Undergrad,2024-03-05_22h20.25.060,CRL1h,2023.2.3,MacIntel,29.94011976,65e67470ae2fbf2172c317b2,65e79a8c0cd08177c670a565,,,,,,,,,,,,,,,,,,,,,,,,,,,,,,,,,,,,,,
,,,,,5cf8cc7e95c070001721db8d,001,36,Male,British,Undergrad,2024-03-05_22h20.25.060,CRL1h,2023.2.3,MacIntel,29.94011976,65e67470ae2fbf2172c317b2,65e79a8c0cd08177c670a565,35.1152,81.6999,space,46.5584,,,,,,,,,,,,,,,,,,,,,,,,,,,,,,,,,,
,,,,,5cf8cc7e95c070001721db8d,001,36,Male,British,Undergrad,2024-03-05_22h20.25.060,CRL1h,2023.2.3,MacIntel,29.94011976,65e67470ae2fbf2172c317b2,65e79a8c0cd08177c670a565,,,,,,81.7176,85.6156,space,3.881,,85.623,0.6,86.2156,86.2159,90.2632,left,1,4.0333,,90.2747,91.2656,0,0,0,3,1,total,1,images/Ex4.jpg,left,training,hard,1,,,,,
,,,,,5cf8cc7e95c070001721db8d,001,36,Male,British,Undergrad,2024-03-05_22h20.25.060,CRL1h,2023.2.3,MacIntel,29.94011976,65e67470ae2fbf2172c317b2,65e79a8c0cd08177c670a565,,,,,,,,,,,91.2668,0.6,91.8648,91.8648,93.6985,right,1,1.8283,,93.6987,94.6967,0,1,1,7,1,total,1,images/Ex8.jpg,right,training,hard,1,,,,,
,,,,,5cf8cc7e95c070001721db8d,001,36,Male,British,Undergrad,2024-03-05_22h20.25.060,CRL1h,2023.2.3,MacIntel,29.94011976,65e67470ae2fbf2172c317b2,65e79a8c0cd08177c670a565,,,,,,,,,,,94.6977,1,95.6992,95.6993,97.2313,right,0,1.529,,97.2314,98.2319,0,2,2,8,1,total,1,images/Ex1.jpg,left,training,hard,1,,,,,
,,,,,5cf8cc7e95c070001721db8d,001,36,Male,British,Undergrad,2024-03-05_22h20.25.060,CRL1h,2023.2.3,MacIntel,29.94011976,65e67470ae2fbf2172c317b2,65e79a8c0cd08177c670a565,,,,,,,,,,,98.2415,0.5,98.7315,98.7315,101.3493,left,1,2.6038,,101.3494,102.3484,0,3,3,1,1,total,1,images/Ex2.jpg,left,training,hard,1,,,,,
,,,,,5cf8cc7e95c070001721db8d,001,36,Male,British,Undergrad,2024-03-05_22h20.25.060,CRL1h,2023.2.3,MacIntel,29.94011976,65e67470ae2fbf2172c317b2,65e79a8c0cd08177c670a565,,,,,,,,,,,102.3586,1.1,103.4487,103.4487,104.9813,left,1,1.5213,,104.9813,105.9801,0,4,4,9,1,total,1,images/Ex2.jpg,left,training,hard,1,,,,,
,,,,,5cf8cc7e95c070001721db8d,001,36,Male,British,Undergrad,2024-03-05_22h20.25.060,CRL1h,2023.2.3,MacIntel,29.94011976,65e67470ae2fbf2172c317b2,65e79a8c0cd08177c670a565,,,,,,,,,,,105.9894,0.7,106.6798,106.6798,107.8292,right,1,1.1363,,107.8293,108.8287,0,5,5,6,1,total,1,images/Ex7.jpg,right,training,hard,1,,,,,
,,,,,5cf8cc7e95c070001721db8d,001,36,Male,British,Undergrad,2024-03-05_22h20.25.060,CRL1h,2023.2.3,MacIntel,29.94011976,65e67470ae2fbf2172c317b2,65e79a8c0cd08177c670a565,,,,,,,,,,,108.8293,1.1,109.9296,109.9297,111.3984,right,1,1.4559,,111.3984,112.3986,0,6,6,12,1,total,1,images/Ex5.jpg,right,training,hard,1,,,,,
,,,,,5cf8cc7e95c070001721db8d,001,36,Male,British,Undergrad,2024-03-05_22h20.25.060,CRL1h,2023.2.3,MacIntel,29.94011976,65e67470ae2fbf2172c317b2,65e79a8c0cd08177c670a565,,,,,,,,,,,112.3992,0.6,112.9982,112.9984,114.7633,right,1,1.7495,,114.7634,115.7628,0,7,7,15,1,total,1,images/Ex8.jpg,right,training,hard,1,,,,,
,,,,,5cf8cc7e95c070001721db8d,001,36,Male,British,Undergrad,2024-03-05_22h20.25.060,CRL1h,2023.2.3,MacIntel,29.94011976,65e67470ae2fbf2172c317b2,65e79a8c0cd08177c670a565,,,,,,,,,,,115.7728,1.4,117.162,117.162,118.1305,right,1,0.9578,,118.1307,119.1311,0,8,8,14,1,total,1,images/Ex7.jpg,right,training,hard,1,,,,,
,,,,,5cf8cc7e95c070001721db8d,001,36,Male,British,Undergrad,2024-03-05_22h20.25.060,CRL1h,2023.2.3,MacIntel,29.94011976,65e67470ae2fbf2172c317b2,65e79a8c0cd08177c670a565,,,,,,,,,,,119.1318,1.2,120.3309,120.3309,122.2133,left,1,1.8677,,122.2133,123.2136,0,9,9,0,1,total,1,images/Ex1.jpg,left,training,hard,1,,,,,
,,,,,5cf8cc7e95c070001721db8d,001,36,Male,British,Undergrad,2024-03-05_22h20.25.060,CRL1h,2023.2.3,MacIntel,29.94011976,65e67470ae2fbf2172c317b2,65e79a8c0cd08177c670a565,,,,,,,,,,,123.2143,1.4,124.6141,124.6142,126.0797,left,1,1.4641,,126.0797,127.0803,0,10,10,2,1,total,1,images/Ex3.jpg,left,training,hard,1,,,,,
,,,,,5cf8cc7e95c070001721db8d,001,36,Male,British,Undergrad,2024-03-05_22h20.25.060,CRL1h,2023.2.3,MacIntel,29.94011976,65e67470ae2fbf2172c317b2,65e79a8c0cd08177c670a565,,,,,,,,,,,127.0809,1.5,128.5792,128.5793,129.8983,left,0,1.3048,,129.8984,130.8962,0,11,11,5,1,total,1,images/Ex6.jpg,right,training,hard,1,,,,,
,,,,,5cf8cc7e95c070001721db8d,001,36,Male,British,Undergrad,2024-03-05_22h20.25.060,CRL1h,2023.2.3,MacIntel,29.94011976,65e67470ae2fbf2172c317b2,65e79a8c0cd08177c670a565,,,,,,,,,,,130.8968,0.5,131.3958,131.3958,132.9321,right,1,1.5351,,132.9323,133.9318,0,12,12,13,1,total,1,images/Ex6.jpg,right,training,hard,1,,,,,
,,,,,5cf8cc7e95c070001721db8d,001,36,Male,British,Undergrad,2024-03-05_22h20.25.060,CRL1h,2023.2.3,MacIntel,29.94011976,65e67470ae2fbf2172c317b2,65e79a8c0cd08177c670a565,,,,,,,,,,,133.9427,0.5,134.4324,134.4325,136.2497,right,1,1.8112,,136.2498,137.246,0,13,13,4,1,total,1,images/Ex5.jpg,right,training,hard,1,,,,,
,,,,,5cf8cc7e95c070001721db8d,001,36,Male,British,Undergrad,2024-03-05_22h20.25.060,CRL1h,2023.2.3,MacIntel,29.94011976,65e67470ae2fbf2172c317b2,65e79a8c0cd08177c670a565,,,,,,,,,,,137.2466,1,138.2485,138.2485,139.5156,right,0,1.2503,,139.5157,140.5156,0,14,14,11,1,total,1,images/Ex4.jpg,left,training,hard,1,,,,,
,,,,,5cf8cc7e95c070001721db8d,001,36,Male,British,Undergrad,2024-03-05_22h20.25.060,CRL1h,2023.2.3,MacIntel,29.94011976,65e67470ae2fbf2172c317b2,65e79a8c0cd08177c670a565,,,,,,,,,,,140.5163,0.7,141.2148,141.2148,142.8133,left,1,1.5935,,142.8134,143.8137,0,15,15,10,1,total,1,images/Ex3.jpg,left,training,hard,1,,,,,
,,,,,5cf8cc7e95c070001721db8d,001,36,Male,British,Undergrad,2024-03-05_22h20.25.060,CRL1h,2023.2.3,MacIntel,29.94011976,65e67470ae2fbf2172c317b2,65e79a8c0cd08177c670a565,,,,,,,,,,,143.8244,0.7,144.5152,144.5152,145.8143,right,1,1.2909,,145.8144,146.8123,1,0,16,5,1,total,1,images/Ex6.jpg,right,training,hard,1,,,,,
,,,,,5cf8cc7e95c070001721db8d,001,36,Male,British,Undergrad,2024-03-05_22h20.25.060,CRL1h,2023.2.3,MacIntel,29.94011976,65e67470ae2fbf2172c317b2,65e79a8c0cd08177c670a565,,,,,,,,,,,146.813,0.7,147.5155,147.5156,149.4125,left,0,1.8859,,149.4126,150.4125,1,1,17,14,1,total,1,images/Ex7.jpg,right,training,hard,1,,,,,
,,,,,5cf8cc7e95c070001721db8d,001,36,Male,British,Undergrad,2024-03-05_22h20.25.060,CRL1h,2023.2.3,MacIntel,29.94011976,65e67470ae2fbf2172c317b2,65e79a8c0cd08177c670a565,,,,,,,,,,,150.4216,0.7,151.1142,151.1143,152.2647,left,0,1.145,,152.2647,153.2639,1,2,18,4,1,total,1,images/Ex5.jpg,right,training,hard,1,,,,,
,,,,,5cf8cc7e95c070001721db8d,001,36,Male,British,Undergrad,2024-03-05_22h20.25.060,CRL1h,2023.2.3,MacIntel,29.94011976,65e67470ae2fbf2172c317b2,65e79a8c0cd08177c670a565,,,,,,,,,,,153.2646,1,154.2639,154.264,154.9973,right,1,0.7313,,154.9974,155.9959,1,3,19,12,1,total,1,images/Ex5.jpg,right,training,hard,1,,,,,
,,,,,5cf8cc7e95c070001721db8d,001,36,Male,British,Undergrad,2024-03-05_22h20.25.060,CRL1h,2023.2.3,MacIntel,29.94011976,65e67470ae2fbf2172c317b2,65e79a8c0cd08177c670a565,,,,,,,,,,,155.9966,1.5,157.4956,157.4956,158.7986,right,0,1.2976,,158.7986,159.7966,1,4,20,11,1,total,1,images/Ex4.jpg,left,training,hard,1,,,,,
,,,,,5cf8cc7e95c070001721db8d,001,36,Male,British,Undergrad,2024-03-05_22h20.25.060,CRL1h,2023.2.3,MacIntel,29.94011976,65e67470ae2fbf2172c317b2,65e79a8c0cd08177c670a565,,,,,,,,,,,159.8073,0.8,160.5951,160.5951,161.515,right,1,0.9077,,161.5152,162.5152,1,5,21,7,1,total,1,images/Ex8.jpg,right,training,hard,1,,,,,
,,,,,5cf8cc7e95c070001721db8d,001,36,Male,British,Undergrad,2024-03-05_22h20.25.060,CRL1h,2023.2.3,MacIntel,29.94011976,65e67470ae2fbf2172c317b2,65e79a8c0cd08177c670a565,,,,,,,,,,,162.5159,1.2,163.7151,163.7152,165.464,right,0,1.7442,,165.4641,166.4634,1,6,22,10,1,total,1,images/Ex3.jpg,left,training,hard,1,,,,,
,,,,,5cf8cc7e95c070001721db8d,001,36,Male,British,Undergrad,2024-03-05_22h20.25.060,CRL1h,2023.2.3,MacIntel,29.94011976,65e67470ae2fbf2172c317b2,65e79a8c0cd08177c670a565,,,,,,,,,,,166.4742,1.5,167.9636,167.9636,168.7975,right,1,0.8223,,168.7975,169.7957,1,7,23,15,1,total,1,images/Ex8.jpg,right,training,hard,1,,,,,
,,,,,5cf8cc7e95c070001721db8d,001,36,Male,British,Undergrad,2024-03-05_22h20.25.060,CRL1h,2023.2.3,MacIntel,29.94011976,65e67470ae2fbf2172c317b2,65e79a8c0cd08177c670a565,,,,,,,,,,,169.7964,1.4,171.1969,171.197,173.0639,right,0,1.8562,,173.0641,174.0655,1,8,24,2,1,total,1,images/Ex3.jpg,left,training,hard,1,,,,,
,,,,,5cf8cc7e95c070001721db8d,001,36,Male,British,Undergrad,2024-03-05_22h20.25.060,CRL1h,2023.2.3,MacIntel,29.94011976,65e67470ae2fbf2172c317b2,65e79a8c0cd08177c670a565,,,,,,,,,,,174.0766,0.8,174.8645,174.8645,176.4958,right,1,1.6219,,176.4958,177.4976,1,9,25,13,1,total,1,images/Ex6.jpg,right,training,hard,1,,,,,
,,,,,5cf8cc7e95c070001721db8d,001,36,Male,British,Undergrad,2024-03-05_22h20.25.060,CRL1h,2023.2.3,MacIntel,29.94011976,65e67470ae2fbf2172c317b2,65e79a8c0cd08177c670a565,,,,,,,,,,,177.4981,1,178.4981,178.4982,180.5622,right,1,2.053,,180.5623,181.5647,1,10,26,6,1,total,1,images/Ex7.jpg,right,training,hard,1,,,,,
,,,,,5cf8cc7e95c070001721db8d,001,36,Male,British,Undergrad,2024-03-05_22h20.25.060,CRL1h,2023.2.3,MacIntel,29.94011976,65e67470ae2fbf2172c317b2,65e79a8c0cd08177c670a565,,,,,,,,,,,181.5657,1,182.5644,182.5645,184.2158,right,0,1.6469,,184.2158,185.215,1,11,27,3,1,total,1,images/Ex4.jpg,left,training,hard,1,,,,,
,,,,,5cf8cc7e95c070001721db8d,001,36,Male,British,Undergrad,2024-03-05_22h20.25.060,CRL1h,2023.2.3,MacIntel,29.94011976,65e67470ae2fbf2172c317b2,65e79a8c0cd08177c670a565,,,,,,,,,,,185.2157,1.4,186.6126,186.6126,187.4816,right,0,0.8673,,187.4816,188.4803,1,12,28,8,1,total,1,images/Ex1.jpg,left,training,hard,1,,,,,
,,,,,5cf8cc7e95c070001721db8d,001,36,Male,British,Undergrad,2024-03-05_22h20.25.060,CRL1h,2023.2.3,MacIntel,29.94011976,65e67470ae2fbf2172c317b2,65e79a8c0cd08177c670a565,,,,,,,,,,,188.4811,1.3,189.781,189.7811,190.8483,left,1,1.0538,,190.8485,191.8481,1,13,29,0,1,total,1,images/Ex1.jpg,left,training,hard,1,,,,,
,,,,,5cf8cc7e95c070001721db8d,001,36,Male,British,Undergrad,2024-03-05_22h20.25.060,CRL1h,2023.2.3,MacIntel,29.94011976,65e67470ae2fbf2172c317b2,65e79a8c0cd08177c670a565,,,,,,,,,,,191.8587,1.1,192.9475,192.9475,194.4623,left,1,1.5056,,194.4624,195.4653,1,14,30,9,1,total,1,images/Ex2.jpg,left,training,hard,1,,,,,
,,,,,5cf8cc7e95c070001721db8d,001,36,Male,British,Undergrad,2024-03-05_22h20.25.060,CRL1h,2023.2.3,MacIntel,29.94011976,65e67470ae2fbf2172c317b2,65e79a8c0cd08177c670a565,,,,,,,,,,,195.4661,1.3,196.7649,196.7651,197.8154,left,1,1.0342,,197.8156,198.8162,1,15,31,1,1,total,1,images/Ex2.jpg,left,training,hard,1,,,,,
,,,,,5cf8cc7e95c070001721db8d,001,36,Male,British,Undergrad,2024-03-05_22h20.25.060,CRL1h,2023.2.3,MacIntel,29.94011976,65e67470ae2fbf2172c317b2,65e79a8c0cd08177c670a565,,,,,,,,,,,198.817,1.4,200.2139,200.214,201.7292,right,1,1.512,,201.7293,202.7169,2,0,32,15,1,total,1,images/Ex8.jpg,right,training,hard,1,,,,,
,,,,,5cf8cc7e95c070001721db8d,001,36,Male,British,Undergrad,2024-03-05_22h20.25.060,CRL1h,2023.2.3,MacIntel,29.94011976,65e67470ae2fbf2172c317b2,65e79a8c0cd08177c670a565,,,,,,,,,,,202.7177,1.2,203.9153,203.9153,205.7481,right,1,1.8217,,205.7483,206.7471,2,1,33,12,1,total,1,images/Ex5.jpg,right,training,hard,1,,,,,
,,,,,5cf8cc7e95c070001721db8d,001,36,Male,British,Undergrad,2024-03-05_22h20.25.060,CRL1h,2023.2.3,MacIntel,29.94011976,65e67470ae2fbf2172c317b2,65e79a8c0cd08177c670a565,,,,,,,,,,,206.7474,0.6,207.346,207.3461,208.6321,left,0,1.2717,,208.6322,209.632,2,2,34,5,1,total,1,images/Ex6.jpg,right,training,hard,1,,,,,
,,,,,5cf8cc7e95c070001721db8d,001,36,Male,British,Undergrad,2024-03-05_22h20.25.060,CRL1h,2023.2.3,MacIntel,29.94011976,65e67470ae2fbf2172c317b2,65e79a8c0cd08177c670a565,,,,,,,,,,,209.6326,0.9,210.5305,210.5306,211.4643,left,1,0.9219,,211.4643,212.4639,2,3,35,10,1,total,1,images/Ex3.jpg,left,training,hard,1,,,,,
,,,,,5cf8cc7e95c070001721db8d,001,36,Male,British,Undergrad,2024-03-05_22h20.25.060,CRL1h,2023.2.3,MacIntel,29.94011976,65e67470ae2fbf2172c317b2,65e79a8c0cd08177c670a565,,,,,,,,,,,212.4646,0.6,213.0637,213.0638,214.5312,left,1,1.4547,,214.5312,215.5316,2,4,36,9,1,total,1,images/Ex2.jpg,left,training,hard,1,,,,,
,,,,,5cf8cc7e95c070001721db8d,001,36,Male,British,Undergrad,2024-03-05_22h20.25.060,CRL1h,2023.2.3,MacIntel,29.94011976,65e67470ae2fbf2172c317b2,65e79a8c0cd08177c670a565,,,,,,,,,,,215.5323,0.9,216.4306,216.4306,218.482,right,0,2.038,,218.4821,219.4812,2,5,37,0,1,total,1,images/Ex1.jpg,left,training,hard,1,,,,,
,,,,,5cf8cc7e95c070001721db8d,001,36,Male,British,Undergrad,2024-03-05_22h20.25.060,CRL1h,2023.2.3,MacIntel,29.94011976,65e67470ae2fbf2172c317b2,65e79a8c0cd08177c670a565,,,,,,,,,,,219.482,0.6,220.08,220.08,221.0632,right,0,0.9691,,221.0632,222.0657,2,6,38,3,1,total,1,images/Ex4.jpg,left,training,hard,1,,,,,
,,,,,5cf8cc7e95c070001721db8d,001,36,Male,British,Undergrad,2024-03-05_22h20.25.060,CRL1h,2023.2.3,MacIntel,29.94011976,65e67470ae2fbf2172c317b2,65e79a8c0cd08177c670a565,,,,,,,,,,,222.0664,0.6,222.6644,222.6645,223.331,left,0,0.6595,,223.331,224.3316,2,7,39,4,1,total,1,images/Ex5.jpg,right,training,hard,1,,,,,
,,,,,5cf8cc7e95c070001721db8d,001,36,Male,British,Undergrad,2024-03-05_22h20.25.060,CRL1h,2023.2.3,MacIntel,29.94011976,65e67470ae2fbf2172c317b2,65e79a8c0cd08177c670a565,,,,,,,,,,,224.3323,1,225.3318,225.3318,226.1137,right,0,0.7715,,226.1137,227.1127,2,8,40,8,1,total,1,images/Ex1.jpg,left,training,hard,1,,,,,
,,,,,5cf8cc7e95c070001721db8d,001,36,Male,British,Undergrad,2024-03-05_22h20.25.060,CRL1h,2023.2.3,MacIntel,29.94011976,65e67470ae2fbf2172c317b2,65e79a8c0cd08177c670a565,,,,,,,,,,,227.113,1.1,228.2156,228.2157,229.1315,right,1,0.9046,,229.1315,230.131,2,9,41,6,1,total,1,images/Ex7.jpg,right,training,hard,1,,,,,
,,,,,5cf8cc7e95c070001721db8d,001,36,Male,British,Undergrad,2024-03-05_22h20.25.060,CRL1h,2023.2.3,MacIntel,29.94011976,65e67470ae2fbf2172c317b2,65e79a8c0cd08177c670a565,,,,,,,,,,,230.1317,0.9,231.0325,231.0325,232.1139,left,1,1.0756,,232.1139,233.1151,2,10,42,1,1,total,1,images/Ex2.jpg,left,training,hard,1,,,,,
,,,,,5cf8cc7e95c070001721db8d,001,36,Male,British,Undergrad,2024-03-05_22h20.25.060,CRL1h,2023.2.3,MacIntel,29.94011976,65e67470ae2fbf2172c317b2,65e79a8c0cd08177c670a565,,,,,,,,,,,233.1158,1.4,234.5141,234.5142,235.3141,right,1,0.7897,,235.3142,236.3163,2,11,43,7,1,total,1,images/Ex8.jpg,right,training,hard,1,,,,,
,,,,,5cf8cc7e95c070001721db8d,001,36,Male,British,Undergrad,2024-03-05_22h20.25.060,CRL1h,2023.2.3,MacIntel,29.94011976,65e67470ae2fbf2172c317b2,65e79a8c0cd08177c670a565,,,,,,,,,,,236.3173,1.3,237.614,237.614,239.2293,left,0,1.6132,,239.2294,240.2314,2,12,44,13,1,total,1,images/Ex6.jpg,right,training,hard,1,,,,,
,,,,,5cf8cc7e95c070001721db8d,001,36,Male,British,Undergrad,2024-03-05_22h20.25.060,CRL1h,2023.2.3,MacIntel,29.94011976,65e67470ae2fbf2172c317b2,65e79a8c0cd08177c670a565,,,,,,,,,,,240.2426,0.9,241.132,241.1321,241.9626,right,1,0.8197,,241.9626,242.9648,2,13,45,14,1,total,1,images/Ex7.jpg,right,training,hard,1,,,,,
,,,,,5cf8cc7e95c070001721db8d,001,36,Male,British,Undergrad,2024-03-05_22h20.25.060,CRL1h,2023.2.3,MacIntel,29.94011976,65e67470ae2fbf2172c317b2,65e79a8c0cd08177c670a565,,,,,,,,,,,242.9655,1.3,244.2653,244.2654,245.0461,right,0,0.769,,245.0462,246.0472,2,14,46,2,1,total,1,images/Ex3.jpg,left,training,hard,1,,,,,
,,,,,5cf8cc7e95c070001721db8d,001,36,Male,British,Undergrad,2024-03-05_22h20.25.060,CRL1h,2023.2.3,MacIntel,29.94011976,65e67470ae2fbf2172c317b2,65e79a8c0cd08177c670a565,,,,,,,,,,,246.0477,0.6,246.646,246.646,248.8632,left,1,2.2067,,248.8633,249.8649,2,15,47,11,1,total,1,images/Ex4.jpg,left,training,hard,1,,,,,
,,,,,5cf8cc7e95c070001721db8d,001,36,Male,British,Undergrad,2024-03-05_22h20.25.060,CRL1h,2023.2.3,MacIntel,29.94011976,65e67470ae2fbf2172c317b2,65e79a8c0cd08177c670a565,,,,,,,,,,,249.8755,0.5,250.3814,250.3814,251.431,left,1,1.0388,,251.431,252.4314,3,0,48,1,1,total,1,images/Ex2.jpg,left,training,hard,1,,,,,
,,,,,5cf8cc7e95c070001721db8d,001,36,Male,British,Undergrad,2024-03-05_22h20.25.060,CRL1h,2023.2.3,MacIntel,29.94011976,65e67470ae2fbf2172c317b2,65e79a8c0cd08177c670a565,,,,,,,,,,,252.432,1.2,253.6324,253.6325,255.7664,right,1,2.1175,,255.7664,256.7638,3,1,49,4,1,total,1,images/Ex5.jpg,right,training,hard,1,,,,,
,,,,,5cf8cc7e95c070001721db8d,001,36,Male,British,Undergrad,2024-03-05_22h20.25.060,CRL1h,2023.2.3,MacIntel,29.94011976,65e67470ae2fbf2172c317b2,65e79a8c0cd08177c670a565,,,,,,,,,,,256.7744,0.7,257.4649,257.465,259.5482,left,1,2.0729,,259.5483,260.5458,3,2,50,9,1,total,1,images/Ex2.jpg,left,training,hard,1,,,,,
,,,,,5cf8cc7e95c070001721db8d,001,36,Male,British,Undergrad,2024-03-05_22h20.25.060,CRL1h,2023.2.3,MacIntel,29.94011976,65e67470ae2fbf2172c317b2,65e79a8c0cd08177c670a565,,,,,,,,,,,260.556,1.1,261.6458,261.6459,262.5656,right,1,0.9129,,262.5657,263.5627,3,3,51,7,1,total,1,images/Ex8.jpg,right,training,hard,1,,,,,
,,,,,5cf8cc7e95c070001721db8d,001,36,Male,British,Undergrad,2024-03-05_22h20.25.060,CRL1h,2023.2.3,MacIntel,29.94011976,65e67470ae2fbf2172c317b2,65e79a8c0cd08177c670a565,,,,,,,,,,,263.5634,1.1,264.6646,264.6647,267.2297,right,1,2.5555,,267.2298,268.2311,3,4,52,5,1,total,1,images/Ex6.jpg,right,training,hard,1,,,,,
,,,,,5cf8cc7e95c070001721db8d,001,36,Male,British,Undergrad,2024-03-05_22h20.25.060,CRL1h,2023.2.3,MacIntel,29.94011976,65e67470ae2fbf2172c317b2,65e79a8c0cd08177c670a565,,,,,,,,,,,268.2417,1.4,269.6296,269.6297,270.615,right,1,0.9791,,270.615,271.6155,3,5,53,14,1,total,1,images/Ex7.jpg,right,training,hard,1,,,,,
,,,,,5cf8cc7e95c070001721db8d,001,36,Male,British,Undergrad,2024-03-05_22h20.25.060,CRL1h,2023.2.3,MacIntel,29.94011976,65e67470ae2fbf2172c317b2,65e79a8c0cd08177c670a565,,,,,,,,,,,271.6161,1.3,272.9142,272.9143,273.7487,right,1,0.8216,,273.7487,274.7491,3,6,54,15,1,total,1,images/Ex8.jpg,right,training,hard,1,,,,,
,,,,,5cf8cc7e95c070001721db8d,001,36,Male,British,Undergrad,2024-03-05_22h20.25.060,CRL1h,2023.2.3,MacIntel,29.94011976,65e67470ae2fbf2172c317b2,65e79a8c0cd08177c670a565,,,,,,,,,,,274.7497,1.1,275.8483,275.8484,276.9643,right,0,1.1142,,276.9643,277.963,3,7,55,8,1,total,1,images/Ex1.jpg,left,training,hard,1,,,,,
,,,,,5cf8cc7e95c070001721db8d,001,36,Male,British,Undergrad,2024-03-05_22h20.25.060,CRL1h,2023.2.3,MacIntel,29.94011976,65e67470ae2fbf2172c317b2,65e79a8c0cd08177c670a565,,,,,,,,,,,277.9737,0.6,278.5648,278.5649,279.8642,right,0,1.2966,,279.8643,280.8647,3,8,56,2,1,total,1,images/Ex3.jpg,left,training,hard,1,,,,,
,,,,,5cf8cc7e95c070001721db8d,001,36,Male,British,Undergrad,2024-03-05_22h20.25.060,CRL1h,2023.2.3,MacIntel,29.94011976,65e67470ae2fbf2172c317b2,65e79a8c0cd08177c670a565,,,,,,,,,,,280.8653,0.7,281.5626,281.5627,282.2976,left,1,0.7239,,282.2977,283.2992,3,9,57,11,1,total,1,images/Ex4.jpg,left,training,hard,1,,,,,
,,,,,5cf8cc7e95c070001721db8d,001,36,Male,British,Undergrad,2024-03-05_22h20.25.060,CRL1h,2023.2.3,MacIntel,29.94011976,65e67470ae2fbf2172c317b2,65e79a8c0cd08177c670a565,,,,,,,,,,,283.2999,1.3,284.5989,284.599,285.4479,right,1,0.8464,,285.448,286.4472,3,10,58,6,1,total,1,images/Ex7.jpg,right,training,hard,1,,,,,
,,,,,5cf8cc7e95c070001721db8d,001,36,Male,British,Undergrad,2024-03-05_22h20.25.060,CRL1h,2023.2.3,MacIntel,29.94011976,65e67470ae2fbf2172c317b2,65e79a8c0cd08177c670a565,,,,,,,,,,,286.4478,1.2,287.6493,287.6493,288.4987,left,0,0.8361,,288.4987,289.4993,3,11,59,13,1,total,1,images/Ex6.jpg,right,training,hard,1,,,,,
,,,,,5cf8cc7e95c070001721db8d,001,36,Male,British,Undergrad,2024-03-05_22h20.25.060,CRL1h,2023.2.3,MacIntel,29.94011976,65e67470ae2fbf2172c317b2,65e79a8c0cd08177c670a565,,,,,,,,,,,289.5,0.9,290.3969,290.397,291.4656,left,1,1.0539,,291.4657,292.465,3,12,60,0,1,total,1,images/Ex1.jpg,left,training,hard,1,,,,,
,,,,,5cf8cc7e95c070001721db8d,001,36,Male,British,Undergrad,2024-03-05_22h20.25.060,CRL1h,2023.2.3,MacIntel,29.94011976,65e67470ae2fbf2172c317b2,65e79a8c0cd08177c670a565,,,,,,,,,,,292.4657,0.8,293.2642,293.2643,294.1643,left,1,0.8914,,294.1643,295.166,3,13,61,3,1,total,1,images/Ex4.jpg,left,training,hard,1,,,,,
,,,,,5cf8cc7e95c070001721db8d,001,36,Male,British,Undergrad,2024-03-05_22h20.25.060,CRL1h,2023.2.3,MacIntel,29.94011976,65e67470ae2fbf2172c317b2,65e79a8c0cd08177c670a565,,,,,,,,,,,295.1666,0.7,295.8664,295.8664,297.1307,right,0,1.2521,,297.1307,298.1317,3,14,62,10,1,total,1,images/Ex3.jpg,left,training,hard,1,,,,,
,,,,,5cf8cc7e95c070001721db8d,001,36,Male,British,Undergrad,2024-03-05_22h20.25.060,CRL1h,2023.2.3,MacIntel,29.94011976,65e67470ae2fbf2172c317b2,65e79a8c0cd08177c670a565,,,,,,,,,,,298.1436,1.2,299.3315,299.3315,300.2651,right,1,0.9207,,300.2652,301.265,3,15,63,12,1,total,1,images/Ex5.jpg,right,training,hard,1,,,,,
,,,,,5cf8cc7e95c070001721db8d,001,36,Male,British,Undergrad,2024-03-05_22h20.25.060,CRL1h,2023.2.3,MacIntel,29.94011976,65e67470ae2fbf2172c317b2,65e79a8c0cd08177c670a565,,,,,,,,,,,301.266,0.7,301.9669,301.9669,302.7986,left,0,0.8199,,302.7987,303.7981,4,0,64,13,1,total,1,images/Ex6.jpg,right,training,hard,1,,,,,
,,,,,5cf8cc7e95c070001721db8d,001,36,Male,British,Undergrad,2024-03-05_22h20.25.060,CRL1h,2023.2.3,MacIntel,29.94011976,65e67470ae2fbf2172c317b2,65e79a8c0cd08177c670a565,,,,,,,,,,,303.7988,1,304.7982,304.7983,305.7647,right,1,0.9549,,305.7648,306.7657,4,1,65,12,1,total,1,images/Ex5.jpg,right,training,hard,1,,,,,
,,,,,5cf8cc7e95c070001721db8d,001,36,Male,British,Undergrad,2024-03-05_22h20.25.060,CRL1h,2023.2.3,MacIntel,29.94011976,65e67470ae2fbf2172c317b2,65e79a8c0cd08177c670a565,,,,,,,,,,,306.7663,1.2,307.9628,307.9629,308.8981,right,1,0.9308,,308.8982,309.8984,4,2,66,14,1,total,1,images/Ex7.jpg,right,training,hard,1,,,,,
,,,,,5cf8cc7e95c070001721db8d,001,36,Male,British,Undergrad,2024-03-05_22h20.25.060,CRL1h,2023.2.3,MacIntel,29.94011976,65e67470ae2fbf2172c317b2,65e79a8c0cd08177c670a565,,,,,,,,,,,309.8991,0.6,310.496,310.496,311.5815,right,1,1.0817,,311.5815,312.5803,4,3,67,15,1,total,1,images/Ex8.jpg,right,training,hard,1,,,,,
,,,,,5cf8cc7e95c070001721db8d,001,36,Male,British,Undergrad,2024-03-05_22h20.25.060,CRL1h,2023.2.3,MacIntel,29.94011976,65e67470ae2fbf2172c317b2,65e79a8c0cd08177c670a565,,,,,,,,,,,312.5809,0.7,313.2813,313.2814,314.1482,right,1,0.8532,,314.1482,315.1504,4,4,68,6,1,total,1,images/Ex7.jpg,right,training,hard,1,,,,,
,,,,,5cf8cc7e95c070001721db8d,001,36,Male,British,Undergrad,2024-03-05_22h20.25.060,CRL1h,2023.2.3,MacIntel,29.94011976,65e67470ae2fbf2172c317b2,65e79a8c0cd08177c670a565,,,,,,,,,,,315.1512,0.8,315.9462,315.9462,316.8816,right,1,0.924,,316.8817,317.8827,4,5,69,7,1,total,1,images/Ex8.jpg,right,training,hard,1,,,,,
,,,,,5cf8cc7e95c070001721db8d,001,36,Male,British,Undergrad,2024-03-05_22h20.25.060,CRL1h,2023.2.3,MacIntel,29.94011976,65e67470ae2fbf2172c317b2,65e79a8c0cd08177c670a565,,,,,,,,,,,317.8834,1.1,318.9791,318.9791,319.6814,left,1,0.6897,,319.6814,320.6823,4,6,70,11,1,total,1,images/Ex4.jpg,left,training,hard,1,,,,,
,,,,,5cf8cc7e95c070001721db8d,001,36,Male,British,Undergrad,2024-03-05_22h20.25.060,CRL1h,2023.2.3,MacIntel,29.94011976,65e67470ae2fbf2172c317b2,65e79a8c0cd08177c670a565,,,,,,,,,,,320.6827,1.5,322.1816,322.1816,323.0148,right,1,0.8214,,323.0148,324.0154,4,7,71,4,1,total,1,images/Ex5.jpg,right,training,hard,1,,,,,
,,,,,5cf8cc7e95c070001721db8d,001,36,Male,British,Undergrad,2024-03-05_22h20.25.060,CRL1h,2023.2.3,MacIntel,29.94011976,65e67470ae2fbf2172c317b2,65e79a8c0cd08177c670a565,,,,,,,,,,,324.0161,0.7,324.7142,324.7143,325.515,left,1,0.7982,,325.515,326.5149,4,8,72,1,1,total,1,images/Ex2.jpg,left,training,hard,1,,,,,
,,,,,5cf8cc7e95c070001721db8d,001,36,Male,British,Undergrad,2024-03-05_22h20.25.060,CRL1h,2023.2.3,MacIntel,29.94011976,65e67470ae2fbf2172c317b2,65e79a8c0cd08177c670a565,,,,,,,,,,,326.5157,0.7,327.2136,327.2136,328.4814,left,1,1.2564,,328.4815,329.481,4,9,73,2,1,total,1,images/Ex3.jpg,left,training,hard,1,,,,,
,,,,,5cf8cc7e95c070001721db8d,001,36,Male,British,Undergrad,2024-03-05_22h20.25.060,CRL1h,2023.2.3,MacIntel,29.94011976,65e67470ae2fbf2172c317b2,65e79a8c0cd08177c670a565,,,,,,,,,,,329.4817,1.4,330.8805,330.8805,332.2129,right,1,1.331,,332.213,333.2142,4,10,74,5,1,total,1,images/Ex6.jpg,right,training,hard,1,,,,,
,,,,,5cf8cc7e95c070001721db8d,001,36,Male,British,Undergrad,2024-03-05_22h20.25.060,CRL1h,2023.2.3,MacIntel,29.94011976,65e67470ae2fbf2172c317b2,65e79a8c0cd08177c670a565,,,,,,,,,,,333.2149,0.6,333.8133,333.8134,334.4144,left,1,0.5905,,334.4144,335.4168,4,11,75,3,1,total,1,images/Ex4.jpg,left,training,hard,1,,,,,
,,,,,5cf8cc7e95c070001721db8d,001,36,Male,British,Undergrad,2024-03-05_22h20.25.060,CRL1h,2023.2.3,MacIntel,29.94011976,65e67470ae2fbf2172c317b2,65e79a8c0cd08177c670a565,,,,,,,,,,,335.4174,1.3,336.7139,336.714,337.7478,right,0,1.0212,,337.7479,338.7456,4,12,76,0,1,total,1,images/Ex1.jpg,left,training,hard,1,,,,,
,,,,,5cf8cc7e95c070001721db8d,001,36,Male,British,Undergrad,2024-03-05_22h20.25.060,CRL1h,2023.2.3,MacIntel,29.94011976,65e67470ae2fbf2172c317b2,65e79a8c0cd08177c670a565,,,,,,,,,,,338.7462,1.5,340.2481,340.2481,340.9138,left,1,0.6541,,340.9139,341.9126,4,13,77,9,1,total,1,images/Ex2.jpg,left,training,hard,1,,,,,
,,,,,5cf8cc7e95c070001721db8d,001,36,Male,British,Undergrad,2024-03-05_22h20.25.060,CRL1h,2023.2.3,MacIntel,29.94011976,65e67470ae2fbf2172c317b2,65e79a8c0cd08177c670a565,,,,,,,,,,,341.9133,0.8,342.7156,342.7157,343.7482,right,0,1.0306,,343.7482,344.7463,4,14,78,10,1,total,1,images/Ex3.jpg,left,training,hard,1,,,,,
,,,,,5cf8cc7e95c070001721db8d,001,36,Male,British,Undergrad,2024-03-05_22h20.25.060,CRL1h,2023.2.3,MacIntel,29.94011976,65e67470ae2fbf2172c317b2,65e79a8c0cd08177c670a565,,,,,,,,,,,344.747,1.2,345.946,345.946,348.1806,right,0,2.2314,,348.1807,349.183,4,15,79,8,1,total,1,images/Ex1.jpg,left,training,hard,1,,,,,
,,,,,5cf8cc7e95c070001721db8d,001,36,Male,British,Undergrad,2024-03-05_22h20.25.060,CRL1h,2023.2.3,MacIntel,29.94011976,65e67470ae2fbf2172c317b2,65e79a8c0cd08177c670a565,,,,,,,,,,,349.1837,1.3,350.4798,350.4799,352.1319,left,1,1.6498,,352.1319,353.1315,5,0,80,10,1,total,1,images/Ex3.jpg,left,training,hard,1,,,,,
,,,,,5cf8cc7e95c070001721db8d,001,36,Male,British,Undergrad,2024-03-05_22h20.25.060,CRL1h,2023.2.3,MacIntel,29.94011976,65e67470ae2fbf2172c317b2,65e79a8c0cd08177c670a565,,,,,,,,,,,353.1322,1.1,354.2316,354.2316,355.0465,right,1,0.8056,,355.0466,356.0477,5,1,81,6,1,total,1,images/Ex7.jpg,right,training,hard,1,,,,,
,,,,,5cf8cc7e95c070001721db8d,001,36,Male,British,Undergrad,2024-03-05_22h20.25.060,CRL1h,2023.2.3,MacIntel,29.94011976,65e67470ae2fbf2172c317b2,65e79a8c0cd08177c670a565,,,,,,,,,,,356.0484,1.5,357.549,357.5491,360.4974,left,1,2.9339,,360.4974,361.4966,5,2,82,0,1,total,1,images/Ex1.jpg,left,training,hard,1,,,,,
,,,,,5cf8cc7e95c070001721db8d,001,36,Male,British,Undergrad,2024-03-05_22h20.25.060,CRL1h,2023.2.3,MacIntel,29.94011976,65e67470ae2fbf2172c317b2,65e79a8c0cd08177c670a565,,,,,,,,,,,361.5071,0.9,362.3985,362.3986,363.1984,right,1,0.7979,,363.1985,364.1977,5,3,83,12,1,total,1,images/Ex5.jpg,right,training,hard,1,,,,,
,,,,,5cf8cc7e95c070001721db8d,001,36,Male,British,Undergrad,2024-03-05_22h20.25.060,CRL1h,2023.2.3,MacIntel,29.94011976,65e67470ae2fbf2172c317b2,65e79a8c0cd08177c670a565,,,,,,,,,,,364.1984,1.3,365.4973,365.4974,366.6302,left,1,1.1312,,366.6302,367.6317,5,4,84,8,1,total,1,images/Ex1.jpg,left,training,hard,1,,,,,
,,,,,5cf8cc7e95c070001721db8d,001,36,Male,British,Undergrad,2024-03-05_22h20.25.060,CRL1h,2023.2.3,MacIntel,29.94011976,65e67470ae2fbf2172c317b2,65e79a8c0cd08177c670a565,,,,,,,,,,,367.6324,0.9,368.5296,368.5296,369.5159,left,1,0.978,,369.516,370.5149,5,5,85,9,1,total,1,images/Ex2.jpg,left,training,hard,1,,,,,
,,,,,5cf8cc7e95c070001721db8d,001,36,Male,British,Undergrad,2024-03-05_22h20.25.060,CRL1h,2023.2.3,MacIntel,29.94011976,65e67470ae2fbf2172c317b2,65e79a8c0cd08177c670a565,,,,,,,,,,,370.5157,1.4,371.9137,371.9138,372.8492,right,1,0.931,,372.8493,373.8488,5,6,86,15,1,total,1,images/Ex8.jpg,right,training,hard,1,,,,,
,,,,,5cf8cc7e95c070001721db8d,001,36,Male,British,Undergrad,2024-03-05_22h20.25.060,CRL1h,2023.2.3,MacIntel,29.94011976,65e67470ae2fbf2172c317b2,65e79a8c0cd08177c670a565,,,,,,,,,,,373.8495,0.8,374.6471,374.6472,375.2989,left,1,0.6361,,375.299,376.2962,5,7,87,3,1,total,1,images/Ex4.jpg,left,training,hard,1,,,,,
,,,,,5cf8cc7e95c070001721db8d,001,36,Male,British,Undergrad,2024-03-05_22h20.25.060,CRL1h,2023.2.3,MacIntel,29.94011976,65e67470ae2fbf2172c317b2,65e79a8c0cd08177c670a565,,,,,,,,,,,376.2969,1.5,377.7985,377.7985,379.6822,right,1,1.8778,,379.6823,380.6794,5,8,88,13,1,total,1,images/Ex6.jpg,right,training,hard,1,,,,,
,,,,,5cf8cc7e95c070001721db8d,001,36,Male,British,Undergrad,2024-03-05_22h20.25.060,CRL1h,2023.2.3,MacIntel,29.94011976,65e67470ae2fbf2172c317b2,65e79a8c0cd08177c670a565,,,,,,,,,,,380.6897,0.8,381.4826,381.4827,382.2146,right,1,0.7211,,382.2147,383.2139,5,9,89,5,1,total,1,images/Ex6.jpg,right,training,hard,1,,,,,
,,,,,5cf8cc7e95c070001721db8d,001,36,Male,British,Undergrad,2024-03-05_22h20.25.060,CRL1h,2023.2.3,MacIntel,29.94011976,65e67470ae2fbf2172c317b2,65e79a8c0cd08177c670a565,,,,,,,,,,,383.2145,1,384.2156,384.2157,385.5323,left,1,1.303,,385.5323,386.5314,5,10,90,1,1,total,1,images/Ex2.jpg,left,training,hard,1,,,,,
,,,,,5cf8cc7e95c070001721db8d,001,36,Male,British,Undergrad,2024-03-05_22h20.25.060,CRL1h,2023.2.3,MacIntel,29.94011976,65e67470ae2fbf2172c317b2,65e79a8c0cd08177c670a565,,,,,,,,,,,386.532,1.5,388.0299,388.03,389.0491,right,1,1.0166,,389.0492,390.0476,5,11,91,4,1,total,1,images/Ex5.jpg,right,training,hard,1,,,,,
,,,,,5cf8cc7e95c070001721db8d,001,36,Male,British,Undergrad,2024-03-05_22h20.25.060,CRL1h,2023.2.3,MacIntel,29.94011976,65e67470ae2fbf2172c317b2,65e79a8c0cd08177c670a565,,,,,,,,,,,390.0482,0.7,390.7487,390.7488,391.6476,right,1,0.892,,391.6476,392.6495,5,12,92,7,1,total,1,images/Ex8.jpg,right,training,hard,1,,,,,
,,,,,5cf8cc7e95c070001721db8d,001,36,Male,British,Undergrad,2024-03-05_22h20.25.060,CRL1h,2023.2.3,MacIntel,29.94011976,65e67470ae2fbf2172c317b2,65e79a8c0cd08177c670a565,,,,,,,,,,,392.6502,0.6,393.2464,393.2464,395.8652,right,1,2.615,,395.8653,396.8652,5,13,93,14,1,total,1,images/Ex7.jpg,right,training,hard,1,,,,,
,,,,,5cf8cc7e95c070001721db8d,001,36,Male,British,Undergrad,2024-03-05_22h20.25.060,CRL1h,2023.2.3,MacIntel,29.94011976,65e67470ae2fbf2172c317b2,65e79a8c0cd08177c670a565,,,,,,,,,,,396.876,1.1,397.9659,397.966,398.798,left,1,0.8242,,398.7981,399.7972,5,14,94,2,1,total,1,images/Ex3.jpg,left,training,hard,1,,,,,
,,,,,5cf8cc7e95c070001721db8d,001,36,Male,British,Undergrad,2024-03-05_22h20.25.060,CRL1h,2023.2.3,MacIntel,29.94011976,65e67470ae2fbf2172c317b2,65e79a8c0cd08177c670a565,,,,,,,,,,,399.7979,1.4,401.1982,401.1984,401.8322,left,1,0.6247,,401.8323,402.8298,5,15,95,11,1,total,1,images/Ex4.jpg,left,training,hard,1,,,,,
,,,,,5cf8cc7e95c070001721db8d,001,36,Male,British,Undergrad,2024-03-05_22h20.25.060,CRL1h,2023.2.3,MacIntel,29.94011976,65e67470ae2fbf2172c317b2,65e79a8c0cd08177c670a565,,,,,,,,,,,402.8301,0.9,403.7326,403.7326,406.2297,right,1,2.4882,,406.2297,407.232,6,0,96,14,1,total,1,images/Ex7.jpg,right,training,hard,1,,,,,
,,,,,5cf8cc7e95c070001721db8d,001,36,Male,British,Undergrad,2024-03-05_22h20.25.060,CRL1h,2023.2.3,MacIntel,29.94011976,65e67470ae2fbf2172c317b2,65e79a8c0cd08177c670a565,,,,,,,,,,,407.2423,1.5,408.7329,408.7329,409.4492,right,1,0.7048,,409.4493,410.4469,6,1,97,6,1,total,1,images/Ex7.jpg,right,training,hard,1,,,,,
,,,,,5cf8cc7e95c070001721db8d,001,36,Male,British,Undergrad,2024-03-05_22h20.25.060,CRL1h,2023.2.3,MacIntel,29.94011976,65e67470ae2fbf2172c317b2,65e79a8c0cd08177c670a565,,,,,,,,,,,410.4477,0.7,411.1486,411.1487,411.7664,left,1,0.6034,,411.7665,412.7643,6,2,98,3,1,total,1,images/Ex4.jpg,left,training,hard,1,,,,,
,,,,,5cf8cc7e95c070001721db8d,001,36,Male,British,Undergrad,2024-03-05_22h20.25.060,CRL1h,2023.2.3,MacIntel,29.94011976,65e67470ae2fbf2172c317b2,65e79a8c0cd08177c670a565,,,,,,,,,,,412.7651,1.1,413.8645,413.8645,414.6642,left,1,0.7951,,414.6643,415.6653,6,3,99,10,1,total,1,images/Ex3.jpg,left,training,hard,1,,,,,
,,,,,5cf8cc7e95c070001721db8d,001,36,Male,British,Undergrad,2024-03-05_22h20.25.060,CRL1h,2023.2.3,MacIntel,29.94011976,65e67470ae2fbf2172c317b2,65e79a8c0cd08177c670a565,,,,,,,,,,,415.666,1.1,416.7665,416.7665,417.3466,left,1,0.5755,,417.3467,418.3498,6,4,100,1,1,total,1,images/Ex2.jpg,left,training,hard,1,,,,,
,,,,,5cf8cc7e95c070001721db8d,001,36,Male,British,Undergrad,2024-03-05_22h20.25.060,CRL1h,2023.2.3,MacIntel,29.94011976,65e67470ae2fbf2172c317b2,65e79a8c0cd08177c670a565,,,,,,,,,,,418.3507,1.2,419.5467,419.5467,420.2322,left,1,0.6727,,420.2323,421.2321,6,5,101,11,1,total,1,images/Ex4.jpg,left,training,hard,1,,,,,
,,,,,5cf8cc7e95c070001721db8d,001,36,Male,British,Undergrad,2024-03-05_22h20.25.060,CRL1h,2023.2.3,MacIntel,29.94011976,65e67470ae2fbf2172c317b2,65e79a8c0cd08177c670a565,,,,,,,,,,,421.2326,0.9,422.1309,422.131,423.7489,left,1,1.6117,,423.7489,424.7471,6,6,102,8,1,total,1,images/Ex1.jpg,left,training,hard,1,,,,,
,,,,,5cf8cc7e95c070001721db8d,001,36,Male,British,Undergrad,2024-03-05_22h20.25.060,CRL1h,2023.2.3,MacIntel,29.94011976,65e67470ae2fbf2172c317b2,65e79a8c0cd08177c670a565,,,,,,,,,,,424.7477,0.7,425.4464,425.4464,426.7488,left,1,1.2919,,426.7489,427.7477,6,7,103,2,1,total,1,images/Ex3.jpg,left,training,hard,1,,,,,
,,,,,5cf8cc7e95c070001721db8d,001,36,Male,British,Undergrad,2024-03-05_22h20.25.060,CRL1h,2023.2.3,MacIntel,29.94011976,65e67470ae2fbf2172c317b2,65e79a8c0cd08177c670a565,,,,,,,,,,,427.7483,1.4,429.1467,429.1467,430.9318,right,1,1.774,,430.9318,431.9312,6,8,104,7,1,total,1,images/Ex8.jpg,right,training,hard,1,,,,,
,,,,,5cf8cc7e95c070001721db8d,001,36,Male,British,Undergrad,2024-03-05_22h20.25.060,CRL1h,2023.2.3,MacIntel,29.94011976,65e67470ae2fbf2172c317b2,65e79a8c0cd08177c670a565,,,,,,,,,,,431.932,0.5,432.4297,432.4297,433.3655,right,1,0.9244,,433.3655,434.3661,6,9,105,15,1,total,1,images/Ex8.jpg,right,training,hard,1,,,,,
,,,,,5cf8cc7e95c070001721db8d,001,36,Male,British,Undergrad,2024-03-05_22h20.25.060,CRL1h,2023.2.3,MacIntel,29.94011976,65e67470ae2fbf2172c317b2,65e79a8c0cd08177c670a565,,,,,,,,,,,434.3668,1.4,435.7648,435.7648,436.4493,right,1,0.676,,436.4494,437.4497,6,10,106,12,1,total,1,images/Ex5.jpg,right,training,hard,1,,,,,
,,,,,5cf8cc7e95c070001721db8d,001,36,Male,British,Undergrad,2024-03-05_22h20.25.060,CRL1h,2023.2.3,MacIntel,29.94011976,65e67470ae2fbf2172c317b2,65e79a8c0cd08177c670a565,,,,,,,,,,,437.4505,0.8,438.2476,438.2477,438.916,right,1,0.657,,438.9161,439.914,6,11,107,4,1,total,1,images/Ex5.jpg,right,training,hard,1,,,,,
,,,,,5cf8cc7e95c070001721db8d,001,36,Male,British,Undergrad,2024-03-05_22h20.25.060,CRL1h,2023.2.3,MacIntel,29.94011976,65e67470ae2fbf2172c317b2,65e79a8c0cd08177c670a565,,,,,,,,,,,439.9147,0.8,440.7128,440.7129,441.5647,left,0,0.842,,441.5647,442.5646,6,12,108,5,1,total,1,images/Ex6.jpg,right,training,hard,1,,,,,
,,,,,5cf8cc7e95c070001721db8d,001,36,Male,British,Undergrad,2024-03-05_22h20.25.060,CRL1h,2023.2.3,MacIntel,29.94011976,65e67470ae2fbf2172c317b2,65e79a8c0cd08177c670a565,,,,,,,,,,,442.5654,0.6,443.1643,443.1645,443.7975,left,1,0.6311,,443.7975,444.7985,6,13,109,9,1,total,1,images/Ex2.jpg,left,training,hard,1,,,,,
,,,,,5cf8cc7e95c070001721db8d,001,36,Male,British,Undergrad,2024-03-05_22h20.25.060,CRL1h,2023.2.3,MacIntel,29.94011976,65e67470ae2fbf2172c317b2,65e79a8c0cd08177c670a565,,,,,,,,,,,444.7993,1,445.7989,445.7989,446.7153,right,0,0.9041,,446.7155,447.7133,6,14,110,0,1,total,1,images/Ex1.jpg,left,training,hard,1,,,,,
,,,,,5cf8cc7e95c070001721db8d,001,36,Male,British,Undergrad,2024-03-05_22h20.25.060,CRL1h,2023.2.3,MacIntel,29.94011976,65e67470ae2fbf2172c317b2,65e79a8c0cd08177c670a565,,,,,,,,,,,447.7139,1.2,448.9138,448.9138,449.7649,right,1,0.8438,,449.7649,450.7629,6,15,111,13,1,total,1,images/Ex6.jpg,right,training,hard,1,,,,,
,,,,,5cf8cc7e95c070001721db8d,001,36,Male,British,Undergrad,2024-03-05_22h20.25.060,CRL1h,2023.2.3,MacIntel,29.94011976,65e67470ae2fbf2172c317b2,65e79a8c0cd08177c670a565,,,,,,,,,,,450.7633,0.7,451.4631,451.4632,452.198,right,1,0.7235,,452.198,453.198,7,0,112,4,1,total,1,images/Ex5.jpg,right,training,hard,1,,,,,
,,,,,5cf8cc7e95c070001721db8d,001,36,Male,British,Undergrad,2024-03-05_22h20.25.060,CRL1h,2023.2.3,MacIntel,29.94011976,65e67470ae2fbf2172c317b2,65e79a8c0cd08177c670a565,,,,,,,,,,,453.1986,1.4,454.5972,454.5973,455.3135,left,1,0.7066,,455.3135,456.3145,7,1,113,9,1,total,1,images/Ex2.jpg,left,training,hard,1,,,,,
,,,,,5cf8cc7e95c070001721db8d,001,36,Male,British,Undergrad,2024-03-05_22h20.25.060,CRL1h,2023.2.3,MacIntel,29.94011976,65e67470ae2fbf2172c317b2,65e79a8c0cd08177c670a565,,,,,,,,,,,456.3151,1.4,457.7153,457.7153,459.647,right,1,1.9298,,459.6471,460.6465,7,2,114,15,1,total,1,images/Ex8.jpg,right,training,hard,1,,,,,
,,,,,5cf8cc7e95c070001721db8d,001,36,Male,British,Undergrad,2024-03-05_22h20.25.060,CRL1h,2023.2.3,MacIntel,29.94011976,65e67470ae2fbf2172c317b2,65e79a8c0cd08177c670a565,,,,,,,,,,,460.6573,0.7,461.3465,461.3466,463.2147,right,1,1.8627,,463.2147,464.2156,7,3,115,6,1,total,1,images/Ex7.jpg,right,training,hard,1,,,,,
,,,,,5cf8cc7e95c070001721db8d,001,36,Male,British,Undergrad,2024-03-05_22h20.25.060,CRL1h,2023.2.3,MacIntel,29.94011976,65e67470ae2fbf2172c317b2,65e79a8c0cd08177c670a565,,,,,,,,,,,464.226,0.9,465.1313,465.1314,465.7823,left,1,0.6482,,465.7823,466.7828,7,4,116,11,1,total,1,images/Ex4.jpg,left,training,hard,1,,,,,
,,,,,5cf8cc7e95c070001721db8d,001,36,Male,British,Undergrad,2024-03-05_22h20.25.060,CRL1h,2023.2.3,MacIntel,29.94011976,65e67470ae2fbf2172c317b2,65e79a8c0cd08177c670a565,,,,,,,,,,,466.7836,1.3,468.082,468.0821,469.1468,left,1,1.061,,469.1468,470.148,7,5,117,3,1,total,1,images/Ex4.jpg,left,training,hard,1,,,,,
,,,,,5cf8cc7e95c070001721db8d,001,36,Male,British,Undergrad,2024-03-05_22h20.25.060,CRL1h,2023.2.3,MacIntel,29.94011976,65e67470ae2fbf2172c317b2,65e79a8c0cd08177c670a565,,,,,,,,,,,470.1487,1.2,471.3477,471.3478,472.2468,left,1,0.8888,,472.247,473.2482,7,6,118,10,1,total,1,images/Ex3.jpg,left,training,hard,1,,,,,
,,,,,5cf8cc7e95c070001721db8d,001,36,Male,British,Undergrad,2024-03-05_22h20.25.060,CRL1h,2023.2.3,MacIntel,29.94011976,65e67470ae2fbf2172c317b2,65e79a8c0cd08177c670a565,,,,,,,,,,,473.2488,1.2,474.448,474.4481,476.2137,right,0,1.7565,,476.2138,477.2158,7,7,119,8,1,total,1,images/Ex1.jpg,left,training,hard,1,,,,,
,,,,,5cf8cc7e95c070001721db8d,001,36,Male,British,Undergrad,2024-03-05_22h20.25.060,CRL1h,2023.2.3,MacIntel,29.94011976,65e67470ae2fbf2172c317b2,65e79a8c0cd08177c670a565,,,,,,,,,,,477.2165,1,478.2133,478.2133,479.1305,left,1,0.9135,,479.1306,480.1314,7,8,120,2,1,total,1,images/Ex3.jpg,left,training,hard,1,,,,,
,,,,,5cf8cc7e95c070001721db8d,001,36,Male,British,Undergrad,2024-03-05_22h20.25.060,CRL1h,2023.2.3,MacIntel,29.94011976,65e67470ae2fbf2172c317b2,65e79a8c0cd08177c670a565,,,,,,,,,,,480.1321,1.4,481.5295,481.5295,482.3968,right,1,0.8593,,482.3968,483.3992,7,9,121,7,1,total,1,images/Ex8.jpg,right,training,hard,1,,,,,
,,,,,5cf8cc7e95c070001721db8d,001,36,Male,British,Undergrad,2024-03-05_22h20.25.060,CRL1h,2023.2.3,MacIntel,29.94011976,65e67470ae2fbf2172c317b2,65e79a8c0cd08177c670a565,,,,,,,,,,,483.3999,0.9,484.2987,484.2988,485.6655,right,1,1.3522,,485.6655,486.6633,7,10,122,5,1,total,1,images/Ex6.jpg,right,training,hard,1,,,,,
,,,,,5cf8cc7e95c070001721db8d,001,36,Male,British,Undergrad,2024-03-05_22h20.25.060,CRL1h,2023.2.3,MacIntel,29.94011976,65e67470ae2fbf2172c317b2,65e79a8c0cd08177c670a565,,,,,,,,,,,486.6642,0.9,487.5629,487.563,488.281,right,1,0.7078,,488.2811,489.2818,7,11,123,12,1,total,1,images/Ex5.jpg,right,training,hard,1,,,,,
,,,,,5cf8cc7e95c070001721db8d,001,36,Male,British,Undergrad,2024-03-05_22h20.25.060,CRL1h,2023.2.3,MacIntel,29.94011976,65e67470ae2fbf2172c317b2,65e79a8c0cd08177c670a565,,,,,,,,,,,489.2824,0.7,489.9812,489.9813,491.1147,right,1,1.122,,491.1148,492.1157,7,12,124,13,1,total,1,images/Ex6.jpg,right,training,hard,1,,,,,
,,,,,5cf8cc7e95c070001721db8d,001,36,Male,British,Undergrad,2024-03-05_22h20.25.060,CRL1h,2023.2.3,MacIntel,29.94011976,65e67470ae2fbf2172c317b2,65e79a8c0cd08177c670a565,,,,,,,,,,,492.1278,1,493.1314,493.1314,494.1669,right,1,1.0238,,494.167,495.1644,7,13,125,14,1,total,1,images/Ex7.jpg,right,training,hard,1,,,,,
,,,,,5cf8cc7e95c070001721db8d,001,36,Male,British,Undergrad,2024-03-05_22h20.25.060,CRL1h,2023.2.3,MacIntel,29.94011976,65e67470ae2fbf2172c317b2,65e79a8c0cd08177c670a565,,,,,,,,,,,495.1651,1.5,496.6649,496.665,497.8638,left,1,1.1874,,497.8639,498.8655,7,14,126,0,1,total,1,images/Ex1.jpg,left,training,hard,1,,,,,
,,,,,5cf8cc7e95c070001721db8d,001,36,Male,British,Undergrad,2024-03-05_22h20.25.060,CRL1h,2023.2.3,MacIntel,29.94011976,65e67470ae2fbf2172c317b2,65e79a8c0cd08177c670a565,,,,,,,,,,,498.8662,0.8,499.6658,499.6659,500.3135,left,1,0.637,,500.3136,501.3161,7,15,127,1,1,total,1,images/Ex2.jpg,left,training,hard,1,,,,,
,,,,,5cf8cc7e95c070001721db8d,001,36,Male,British,Undergrad,2024-03-05_22h20.25.060,CRL1h,2023.2.3,MacIntel,29.94011976,65e67470ae2fbf2172c317b2,65e79a8c0cd08177c670a565,,,,,,,,,,,501.3245,1.2,502.5166,502.5167,504.599,left,0,2.0789,,504.5991,505.5988,0,0,0,2,1,total,2,images/Ex3.jpg,right,reversed,hard,1,,,,,
,,,,,5cf8cc7e95c070001721db8d,001,36,Male,British,Undergrad,2024-03-05_22h20.25.060,CRL1h,2023.2.3,MacIntel,29.94011976,65e67470ae2fbf2172c317b2,65e79a8c0cd08177c670a565,,,,,,,,,,,505.5995,1,506.5982,506.5983,508.0322,left,0,1.4222,,508.0323,509.032,0,1,1,9,1,total,2,images/Ex2.jpg,right,reversed,hard,1,,,,,
,,,,,5cf8cc7e95c070001721db8d,001,36,Male,British,Undergrad,2024-03-05_22h20.25.060,CRL1h,2023.2.3,MacIntel,29.94011976,65e67470ae2fbf2172c317b2,65e79a8c0cd08177c670a565,,,,,,,,,,,509.0327,0.8,509.8299,509.8301,511.6489,right,0,1.8058,,511.6489,512.6487,0,2,2,12,1,total,2,images/Ex5.jpg,left,reversed,hard,1,,,,,
,,,,,5cf8cc7e95c070001721db8d,001,36,Male,British,Undergrad,2024-03-05_22h20.25.060,CRL1h,2023.2.3,MacIntel,29.94011976,65e67470ae2fbf2172c317b2,65e79a8c0cd08177c670a565,,,,,,,,,,,512.6589,1.3,513.95,513.95,518.0141,right,1,4.0527,,518.0142,519.0151,0,3,3,3,1,total,2,images/Ex4.jpg,right,reversed,hard,1,,,,,
,,,,,5cf8cc7e95c070001721db8d,001,36,Male,British,Undergrad,2024-03-05_22h20.25.060,CRL1h,2023.2.3,MacIntel,29.94011976,65e67470ae2fbf2172c317b2,65e79a8c0cd08177c670a565,,,,,,,,,,,519.0258,1.5,520.5144,520.5144,521.2824,right,0,0.7577,,521.2825,522.2818,0,4,4,4,1,total,2,images/Ex5.jpg,left,reversed,hard,1,,,,,
,,,,,5cf8cc7e95c070001721db8d,001,36,Male,British,Undergrad,2024-03-05_22h20.25.060,CRL1h,2023.2.3,MacIntel,29.94011976,65e67470ae2fbf2172c317b2,65e79a8c0cd08177c670a565,,,,,,,,,,,522.2823,1,523.2812,523.2813,525.6491,left,0,2.3548,,525.6492,526.649,0,5,5,1,1,total,2,images/Ex2.jpg,right,reversed,hard,1,,,,,
,,,,,5cf8cc7e95c070001721db8d,001,36,Male,British,Undergrad,2024-03-05_22h20.25.060,CRL1h,2023.2.3,MacIntel,29.94011976,65e67470ae2fbf2172c317b2,65e79a8c0cd08177c670a565,,,,,,,,,,,526.6595,1.3,527.9488,527.9489,529.8825,left,1,1.9197,,529.8825,530.8801,0,6,6,5,1,total,2,images/Ex6.jpg,left,reversed,hard,1,,,,,
,,,,,5cf8cc7e95c070001721db8d,001,36,Male,British,Undergrad,2024-03-05_22h20.25.060,CRL1h,2023.2.3,MacIntel,29.94011976,65e67470ae2fbf2172c317b2,65e79a8c0cd08177c670a565,,,,,,,,,,,530.8909,1.2,532.08,532.0801,533.2324,right,1,1.1486,,533.2325,534.2318,0,7,7,8,1,total,2,images/Ex1.jpg,right,reversed,hard,1,,,,,
,,,,,5cf8cc7e95c070001721db8d,001,36,Male,British,Undergrad,2024-03-05_22h20.25.060,CRL1h,2023.2.3,MacIntel,29.94011976,65e67470ae2fbf2172c317b2,65e79a8c0cd08177c670a565,,,,,,,,,,,534.2325,0.8,535.0306,535.0307,536.9637,left,1,1.9213,,536.9637,537.9643,0,8,8,13,1,total,2,images/Ex6.jpg,left,reversed,hard,1,,,,,
,,,,,5cf8cc7e95c070001721db8d,001,36,Male,British,Undergrad,2024-03-05_22h20.25.060,CRL1h,2023.2.3,MacIntel,29.94011976,65e67470ae2fbf2172c317b2,65e79a8c0cd08177c670a565,,,,,,,,,,,537.965,0.7,538.6655,538.6656,539.5301,right,1,0.8542,,539.5301,540.5317,0,9,9,11,1,total,2,images/Ex4.jpg,right,reversed,hard,1,,,,,
,,,,,5cf8cc7e95c070001721db8d,001,36,Male,British,Undergrad,2024-03-05_22h20.25.060,CRL1h,2023.2.3,MacIntel,29.94011976,65e67470ae2fbf2172c317b2,65e79a8c0cd08177c670a565,,,,,,,,,,,540.5323,0.9,541.4323,541.4325,542.849,left,1,1.4112,,542.8491,543.8495,0,10,10,7,1,total,2,images/Ex8.jpg,left,reversed,hard,1,,,,,
,,,,,5cf8cc7e95c070001721db8d,001,36,Male,British,Undergrad,2024-03-05_22h20.25.060,CRL1h,2023.2.3,MacIntel,29.94011976,65e67470ae2fbf2172c317b2,65e79a8c0cd08177c670a565,,,,,,,,,,,543.8502,1,544.8479,544.848,545.947,left,1,1.0905,,545.947,546.9467,0,11,11,15,1,total,2,images/Ex8.jpg,left,reversed,hard,1,,,,,
,,,,,5cf8cc7e95c070001721db8d,001,36,Male,British,Undergrad,2024-03-05_22h20.25.060,CRL1h,2023.2.3,MacIntel,29.94011976,65e67470ae2fbf2172c317b2,65e79a8c0cd08177c670a565,,,,,,,,,,,546.9474,0.8,547.7485,547.7486,549.0808,left,1,1.3215,,549.0809,550.0821,0,12,12,14,1,total,2,images/Ex7.jpg,left,reversed,hard,1,,,,,
,,,,,5cf8cc7e95c070001721db8d,001,36,Male,British,Undergrad,2024-03-05_22h20.25.060,CRL1h,2023.2.3,MacIntel,29.94011976,65e67470ae2fbf2172c317b2,65e79a8c0cd08177c670a565,,,,,,,,,,,550.0924,1.4,551.4987,551.4987,552.1976,left,1,0.6975,,552.1976,553.198,0,13,13,6,1,total,2,images/Ex7.jpg,left,reversed,hard,1,,,,,
,,,,,5cf8cc7e95c070001721db8d,001,36,Male,British,Undergrad,2024-03-05_22h20.25.060,CRL1h,2023.2.3,MacIntel,29.94011976,65e67470ae2fbf2172c317b2,65e79a8c0cd08177c670a565,,,,,,,,,,,553.1987,0.8,553.9991,553.9991,555.433,left,0,1.4223,,555.4331,556.4321,0,14,14,10,1,total,2,images/Ex3.jpg,right,reversed,hard,1,,,,,
,,,,,5cf8cc7e95c070001721db8d,001,36,Male,British,Undergrad,2024-03-05_22h20.25.060,CRL1h,2023.2.3,MacIntel,29.94011976,65e67470ae2fbf2172c317b2,65e79a8c0cd08177c670a565,,,,,,,,,,,556.4432,1,557.4467,557.4468,560.1302,left,0,2.6731,,560.1303,561.1298,0,15,15,0,1,total,2,images/Ex1.jpg,right,reversed,hard,1,,,,,
,,,,,5cf8cc7e95c070001721db8d,001,36,Male,British,Undergrad,2024-03-05_22h20.25.060,CRL1h,2023.2.3,MacIntel,29.94011976,65e67470ae2fbf2172c317b2,65e79a8c0cd08177c670a565,,,,,,,,,,,561.1378,1,562.132,562.1321,562.9154,right,1,0.7799,,562.9155,563.9156,1,0,16,2,1,total,2,images/Ex3.jpg,right,reversed,hard,1,,,,,
,,,,,5cf8cc7e95c070001721db8d,001,36,Male,British,Undergrad,2024-03-05_22h20.25.060,CRL1h,2023.2.3,MacIntel,29.94011976,65e67470ae2fbf2172c317b2,65e79a8c0cd08177c670a565,,,,,,,,,,,563.9165,0.7,564.6166,564.6166,565.2821,right,1,0.6545,,565.2822,566.2828,1,1,17,0,1,total,2,images/Ex1.jpg,right,reversed,hard,1,,,,,
,,,,,5cf8cc7e95c070001721db8d,001,36,Male,British,Undergrad,2024-03-05_22h20.25.060,CRL1h,2023.2.3,MacIntel,29.94011976,65e67470ae2fbf2172c317b2,65e79a8c0cd08177c670a565,,,,,,,,,,,566.2834,1,567.2833,567.2834,567.8153,right,1,0.5213,,567.8154,568.8134,1,2,18,8,1,total,2,images/Ex1.jpg,right,reversed,hard,1,,,,,
,,,,,5cf8cc7e95c070001721db8d,001,36,Male,British,Undergrad,2024-03-05_22h20.25.060,CRL1h,2023.2.3,MacIntel,29.94011976,65e67470ae2fbf2172c317b2,65e79a8c0cd08177c670a565,,,,,,,,,,,568.8142,1.1,569.9143,569.9145,570.9823,right,1,1.0642,,570.9824,571.9815,1,3,19,11,1,total,2,images/Ex4.jpg,right,reversed,hard,1,,,,,
,,,,,5cf8cc7e95c070001721db8d,001,36,Male,British,Undergrad,2024-03-05_22h20.25.060,CRL1h,2023.2.3,MacIntel,29.94011976,65e67470ae2fbf2172c317b2,65e79a8c0cd08177c670a565,,,,,,,,,,,571.982,0.6,572.5811,572.5812,573.416,left,1,0.8312,,573.4161,574.4146,1,4,20,14,1,total,2,images/Ex7.jpg,left,reversed,hard,1,,,,,
,,,,,5cf8cc7e95c070001721db8d,001,36,Male,British,Undergrad,2024-03-05_22h20.25.060,CRL1h,2023.2.3,MacIntel,29.94011976,65e67470ae2fbf2172c317b2,65e79a8c0cd08177c670a565,,,,,,,,,,,574.4156,1.1,575.5141,575.5142,576.433,right,1,0.9071,,576.4331,577.4314,1,5,21,3,1,total,2,images/Ex4.jpg,right,reversed,hard,1,,,,,
,,,,,5cf8cc7e95c070001721db8d,001,36,Male,British,Undergrad,2024-03-05_22h20.25.060,CRL1h,2023.2.3,MacIntel,29.94011976,65e67470ae2fbf2172c317b2,65e79a8c0cd08177c670a565,,,,,,,,,,,577.4321,0.9,578.3318,578.3318,579.2303,left,1,0.8941,,579.2304,580.2319,1,6,22,15,1,total,2,images/Ex8.jpg,left,reversed,hard,1,,,,,
,,,,,5cf8cc7e95c070001721db8d,001,36,Male,British,Undergrad,2024-03-05_22h20.25.060,CRL1h,2023.2.3,MacIntel,29.94011976,65e67470ae2fbf2172c317b2,65e79a8c0cd08177c670a565,,,,,,,,,,,580.2326,0.6,580.8315,580.8315,581.8304,left,1,0.9884,,581.8305,582.8317,1,7,23,13,1,total,2,images/Ex6.jpg,left,reversed,hard,1,,,,,
,,,,,5cf8cc7e95c070001721db8d,001,36,Male,British,Undergrad,2024-03-05_22h20.25.060,CRL1h,2023.2.3,MacIntel,29.94011976,65e67470ae2fbf2172c317b2,65e79a8c0cd08177c670a565,,,,,,,,,,,582.8323,1.2,584.0305,584.0306,584.6303,left,1,0.592,,584.6304,585.6324,1,8,24,5,1,total,2,images/Ex6.jpg,left,reversed,hard,1,,,,,
,,,,,5cf8cc7e95c070001721db8d,001,36,Male,British,Undergrad,2024-03-05_22h20.25.060,CRL1h,2023.2.3,MacIntel,29.94011976,65e67470ae2fbf2172c317b2,65e79a8c0cd08177c670a565,,,,,,,,,,,585.6331,1.2,586.832,586.832,587.5332,right,1,0.6869,,587.5333,588.5318,1,9,25,1,1,total,2,images/Ex2.jpg,right,reversed,hard,1,,,,,
,,,,,5cf8cc7e95c070001721db8d,001,36,Male,British,Undergrad,2024-03-05_22h20.25.060,CRL1h,2023.2.3,MacIntel,29.94011976,65e67470ae2fbf2172c317b2,65e79a8c0cd08177c670a565,,,,,,,,,,,588.5327,1.2,589.732,589.732,590.831,left,1,1.0947,,590.831,591.8308,1,10,26,4,1,total,2,images/Ex5.jpg,left,reversed,hard,1,,,,,
,,,,,5cf8cc7e95c070001721db8d,001,36,Male,British,Undergrad,2024-03-05_22h20.25.060,CRL1h,2023.2.3,MacIntel,29.94011976,65e67470ae2fbf2172c317b2,65e79a8c0cd08177c670a565,,,,,,,,,,,591.8313,1.1,592.9326,592.9327,593.7158,right,1,0.77,,593.7158,594.7168,1,11,27,9,1,total,2,images/Ex2.jpg,right,reversed,hard,1,,,,,
,,,,,5cf8cc7e95c070001721db8d,001,36,Male,British,Undergrad,2024-03-05_22h20.25.060,CRL1h,2023.2.3,MacIntel,29.94011976,65e67470ae2fbf2172c317b2,65e79a8c0cd08177c670a565,,,,,,,,,,,594.7176,1,595.7141,595.7142,596.6986,left,1,0.9731,,596.6986,597.6985,1,12,28,12,1,total,2,images/Ex5.jpg,left,reversed,hard,1,,,,,
,,,,,5cf8cc7e95c070001721db8d,001,36,Male,British,Undergrad,2024-03-05_22h20.25.060,CRL1h,2023.2.3,MacIntel,29.94011976,65e67470ae2fbf2172c317b2,65e79a8c0cd08177c670a565,,,,,,,,,,,597.6991,1.3,598.9989,598.999,600.4306,left,0,1.423,,600.4307,601.4319,1,13,29,10,1,total,2,images/Ex3.jpg,right,reversed,hard,1,,,,,
,,,,,5cf8cc7e95c070001721db8d,001,36,Male,British,Undergrad,2024-03-05_22h20.25.060,CRL1h,2023.2.3,MacIntel,29.94011976,65e67470ae2fbf2172c317b2,65e79a8c0cd08177c670a565,,,,,,,,,,,601.4324,0.5,601.9313,601.9313,603.0147,left,1,1.0723,,603.0148,604.0139,1,14,30,7,1,total,2,images/Ex8.jpg,left,reversed,hard,1,,,,,
,,,,,5cf8cc7e95c070001721db8d,001,36,Male,British,Undergrad,2024-03-05_22h20.25.060,CRL1h,2023.2.3,MacIntel,29.94011976,65e67470ae2fbf2172c317b2,65e79a8c0cd08177c670a565,,,,,,,,,,,604.0146,0.9,604.916,604.9161,606.1484,left,1,1.2208,,606.1484,607.1483,1,15,31,6,1,total,2,images/Ex7.jpg,left,reversed,hard,1,,,,,
,,,,,5cf8cc7e95c070001721db8d,001,36,Male,British,Undergrad,2024-03-05_22h20.25.060,CRL1h,2023.2.3,MacIntel,29.94011976,65e67470ae2fbf2172c317b2,65e79a8c0cd08177c670a565,,,,,,,,,,,607.1491,1.3,608.4502,608.4502,609.2314,right,1,0.778,,609.2315,610.2324,2,0,32,3,1,total,2,images/Ex4.jpg,right,reversed,hard,1,,,,,
,,,,,5cf8cc7e95c070001721db8d,001,36,Male,British,Undergrad,2024-03-05_22h20.25.060,CRL1h,2023.2.3,MacIntel,29.94011976,65e67470ae2fbf2172c317b2,65e79a8c0cd08177c670a565,,,,,,,,,,,610.2331,1.2,611.4302,611.4303,612.1969,right,0,0.7613,,612.1971,613.1983,2,1,33,7,1,total,2,images/Ex8.jpg,left,reversed,hard,1,,,,,
,,,,,5cf8cc7e95c070001721db8d,001,36,Male,British,Undergrad,2024-03-05_22h20.25.060,CRL1h,2023.2.3,MacIntel,29.94011976,65e67470ae2fbf2172c317b2,65e79a8c0cd08177c670a565,,,,,,,,,,,613.1991,0.6,613.7988,613.7988,614.9153,left,1,1.1056,,614.9154,615.914,2,2,34,15,1,total,2,images/Ex8.jpg,left,reversed,hard,1,,,,,
,,,,,5cf8cc7e95c070001721db8d,001,36,Male,British,Undergrad,2024-03-05_22h20.25.060,CRL1h,2023.2.3,MacIntel,29.94011976,65e67470ae2fbf2172c317b2,65e79a8c0cd08177c670a565,,,,,,,,,,,615.9147,1.4,617.3154,617.3155,619.1472,right,1,1.8207,,619.1472,620.1467,2,3,35,2,1,total,2,images/Ex3.jpg,right,reversed,hard,1,,,,,
,,,,,5cf8cc7e95c070001721db8d,001,36,Male,British,Undergrad,2024-03-05_22h20.25.060,CRL1h,2023.2.3,MacIntel,29.94011976,65e67470ae2fbf2172c317b2,65e79a8c0cd08177c670a565,,,,,,,,,,,620.1576,0.7,620.85,620.85,623.7476,right,1,2.887,,623.7477,624.7486,2,4,36,1,1,total,2,images/Ex2.jpg,right,reversed,hard,1,,,,,
,,,,,5cf8cc7e95c070001721db8d,001,36,Male,British,Undergrad,2024-03-05_22h20.25.060,CRL1h,2023.2.3,MacIntel,29.94011976,65e67470ae2fbf2172c317b2,65e79a8c0cd08177c670a565,,,,,,,,,,,624.759,0.9,625.6488,625.6488,626.7652,right,0,1.1091,,626.7653,627.7656,2,5,37,14,1,total,2,images/Ex7.jpg,left,reversed,hard,1,,,,,
,,,,,5cf8cc7e95c070001721db8d,001,36,Male,British,Undergrad,2024-03-05_22h20.25.060,CRL1h,2023.2.3,MacIntel,29.94011976,65e67470ae2fbf2172c317b2,65e79a8c0cd08177c670a565,,,,,,,,,,,627.7662,1.2,628.9663,628.9663,629.7002,right,1,0.7195,,629.7003,630.6998,2,6,38,9,1,total,2,images/Ex2.jpg,right,reversed,hard,1,,,,,
,,,,,5cf8cc7e95c070001721db8d,001,36,Male,British,Undergrad,2024-03-05_22h20.25.060,CRL1h,2023.2.3,MacIntel,29.94011976,65e67470ae2fbf2172c317b2,65e79a8c0cd08177c670a565,,,,,,,,,,,630.7005,1.1,631.7985,631.7986,633.5472,right,1,1.7388,,633.5472,634.5486,2,7,39,10,1,total,2,images/Ex3.jpg,right,reversed,hard,1,,,,,
,,,,,5cf8cc7e95c070001721db8d,001,36,Male,British,Undergrad,2024-03-05_22h20.25.060,CRL1h,2023.2.3,MacIntel,29.94011976,65e67470ae2fbf2172c317b2,65e79a8c0cd08177c670a565,,,,,,,,,,,634.5587,1.5,636.0492,636.0494,637.7148,left,1,1.6552,,637.7149,638.7148,2,8,40,12,1,total,2,images/Ex5.jpg,left,reversed,hard,1,,,,,
,,,,,5cf8cc7e95c070001721db8d,001,36,Male,British,Undergrad,2024-03-05_22h20.25.060,CRL1h,2023.2.3,MacIntel,29.94011976,65e67470ae2fbf2172c317b2,65e79a8c0cd08177c670a565,,,,,,,,,,,638.7233,1.2,639.9133,639.9134,641.9325,right,0,2.0166,,641.9326,642.9322,2,9,41,6,1,total,2,images/Ex7.jpg,left,reversed,hard,1,,,,,
,,,,,5cf8cc7e95c070001721db8d,001,36,Male,British,Undergrad,2024-03-05_22h20.25.060,CRL1h,2023.2.3,MacIntel,29.94011976,65e67470ae2fbf2172c317b2,65e79a8c0cd08177c670a565,,,,,,,,,,,642.9431,1.2,644.1509,644.1509,645.0816,left,1,0.9234,,645.0817,646.082,2,10,42,5,1,total,2,images/Ex6.jpg,left,reversed,hard,1,,,,,
,,,,,5cf8cc7e95c070001721db8d,001,36,Male,British,Undergrad,2024-03-05_22h20.25.060,CRL1h,2023.2.3,MacIntel,29.94011976,65e67470ae2fbf2172c317b2,65e79a8c0cd08177c670a565,,,,,,,,,,,646.0827,0.9,646.9824,646.9825,649.2138,right,1,2.2211,,649.2139,650.2152,2,11,43,0,1,total,2,images/Ex1.jpg,right,reversed,hard,1,,,,,
,,,,,5cf8cc7e95c070001721db8d,001,36,Male,British,Undergrad,2024-03-05_22h20.25.060,CRL1h,2023.2.3,MacIntel,29.94011976,65e67470ae2fbf2172c317b2,65e79a8c0cd08177c670a565,,,,,,,,,,,650.226,1.2,651.4163,651.4163,653.0001,left,1,1.5706,,653.0001,653.9981,2,12,44,13,1,total,2,images/Ex6.jpg,left,reversed,hard,1,,,,,
,,,,,5cf8cc7e95c070001721db8d,001,36,Male,British,Undergrad,2024-03-05_22h20.25.060,CRL1h,2023.2.3,MacIntel,29.94011976,65e67470ae2fbf2172c317b2,65e79a8c0cd08177c670a565,,,,,,,,,,,653.9988,0.8,654.7995,654.7995,656.7474,right,1,1.9463,,656.7474,657.7486,2,13,45,11,1,total,2,images/Ex4.jpg,right,reversed,hard,1,,,,,
,,,,,5cf8cc7e95c070001721db8d,001,36,Male,British,Undergrad,2024-03-05_22h20.25.060,CRL1h,2023.2.3,MacIntel,29.94011976,65e67470ae2fbf2172c317b2,65e79a8c0cd08177c670a565,,,,,,,,,,,657.7493,0.5,658.2481,658.2481,659.2149,left,1,0.9581,,659.215,660.2132,2,14,46,4,1,total,2,images/Ex5.jpg,left,reversed,hard,1,,,,,
,,,,,5cf8cc7e95c070001721db8d,001,36,Male,British,Undergrad,2024-03-05_22h20.25.060,CRL1h,2023.2.3,MacIntel,29.94011976,65e67470ae2fbf2172c317b2,65e79a8c0cd08177c670a565,,,,,,,,,,,660.2139,0.7,660.9154,660.9155,662.1658,right,1,1.2473,,662.1659,663.1652,2,15,47,8,1,total,2,images/Ex1.jpg,right,reversed,hard,1,,,,,
,,,,,5cf8cc7e95c070001721db8d,001,36,Male,British,Undergrad,2024-03-05_22h20.25.060,CRL1h,2023.2.3,MacIntel,29.94011976,65e67470ae2fbf2172c317b2,65e79a8c0cd08177c670a565,,,,,,,,,,,663.1661,0.8,663.9655,663.9656,664.9497,left,1,0.9775,,664.9498,665.9495,3,0,48,4,1,total,2,images/Ex5.jpg,left,reversed,hard,1,,,,,
,,,,,5cf8cc7e95c070001721db8d,001,36,Male,British,Undergrad,2024-03-05_22h20.25.060,CRL1h,2023.2.3,MacIntel,29.94011976,65e67470ae2fbf2172c317b2,65e79a8c0cd08177c670a565,,,,,,,,,,,665.9501,1.5,667.4484,667.4485,668.5164,left,1,1.062,,668.5164,669.5152,3,1,49,5,1,total,2,images/Ex6.jpg,left,reversed,hard,1,,,,,
,,,,,5cf8cc7e95c070001721db8d,001,36,Male,British,Undergrad,2024-03-05_22h20.25.060,CRL1h,2023.2.3,MacIntel,29.94011976,65e67470ae2fbf2172c317b2,65e79a8c0cd08177c670a565,,,,,,,,,,,669.5157,1,670.5168,670.5168,671.5138,left,1,0.9862,,671.5138,672.5144,3,2,50,7,1,total,2,images/Ex8.jpg,left,reversed,hard,1,,,,,
,,,,,5cf8cc7e95c070001721db8d,001,36,Male,British,Undergrad,2024-03-05_22h20.25.060,CRL1h,2023.2.3,MacIntel,29.94011976,65e67470ae2fbf2172c317b2,65e79a8c0cd08177c670a565,,,,,,,,,,,672.5152,1.3,673.8162,673.8163,674.6971,left,1,0.8717,,674.6972,675.6993,3,3,51,13,1,total,2,images/Ex6.jpg,left,reversed,hard,1,,,,,
,,,,,5cf8cc7e95c070001721db8d,001,36,Male,British,Undergrad,2024-03-05_22h20.25.060,CRL1h,2023.2.3,MacIntel,29.94011976,65e67470ae2fbf2172c317b2,65e79a8c0cd08177c670a565,,,,,,,,,,,675.7001,1,676.6988,676.6989,677.5493,left,1,0.841,,677.5493,678.5503,3,4,52,14,1,total,2,images/Ex7.jpg,left,reversed,hard,1,,,,,
,,,,,5cf8cc7e95c070001721db8d,001,36,Male,British,Undergrad,2024-03-05_22h20.25.060,CRL1h,2023.2.3,MacIntel,29.94011976,65e67470ae2fbf2172c317b2,65e79a8c0cd08177c670a565,,,,,,,,,,,678.551,0.6,679.1471,679.1471,680.116,right,1,0.9574,,680.1161,681.1132,3,5,53,1,1,total,2,images/Ex2.jpg,right,reversed,hard,1,,,,,
,,,,,5cf8cc7e95c070001721db8d,001,36,Male,British,Undergrad,2024-03-05_22h20.25.060,CRL1h,2023.2.3,MacIntel,29.94011976,65e67470ae2fbf2172c317b2,65e79a8c0cd08177c670a565,,,,,,,,,,,681.1138,1.3,682.4139,682.414,683.1824,right,1,0.7556,,683.1825,684.1824,3,6,54,3,1,total,2,images/Ex4.jpg,right,reversed,hard,1,,,,,
,,,,,5cf8cc7e95c070001721db8d,001,36,Male,British,Undergrad,2024-03-05_22h20.25.060,CRL1h,2023.2.3,MacIntel,29.94011976,65e67470ae2fbf2172c317b2,65e79a8c0cd08177c670a565,,,,,,,,,,,684.1831,1.2,685.3838,685.3838,687.0993,left,0,1.7035,,687.0994,688.0984,3,7,55,0,1,total,2,images/Ex1.jpg,right,reversed,hard,1,,,,,
,,,,,5cf8cc7e95c070001721db8d,001,36,Male,British,Undergrad,2024-03-05_22h20.25.060,CRL1h,2023.2.3,MacIntel,29.94011976,65e67470ae2fbf2172c317b2,65e79a8c0cd08177c670a565,,,,,,,,,,,688.099,1.1,689.1975,689.1976,690.0323,right,1,0.8319,,690.0324,691.0306,3,8,56,11,1,total,2,images/Ex4.jpg,right,reversed,hard,1,,,,,
,,,,,5cf8cc7e95c070001721db8d,001,36,Male,British,Undergrad,2024-03-05_22h20.25.060,CRL1h,2023.2.3,MacIntel,29.94011976,65e67470ae2fbf2172c317b2,65e79a8c0cd08177c670a565,,,,,,,,,,,691.0312,0.9,691.9316,691.9316,693.0832,left,1,1.1485,,693.0832,694.0823,3,9,57,15,1,total,2,images/Ex8.jpg,left,reversed,hard,1,,,,,
,,,,,5cf8cc7e95c070001721db8d,001,36,Male,British,Undergrad,2024-03-05_22h20.25.060,CRL1h,2023.2.3,MacIntel,29.94011976,65e67470ae2fbf2172c317b2,65e79a8c0cd08177c670a565,,,,,,,,,,,694.0827,1.4,695.4807,695.4808,696.3657,right,1,0.8731,,696.3658,697.3661,3,10,58,8,1,total,2,images/Ex1.jpg,right,reversed,hard,1,,,,,
,,,,,5cf8cc7e95c070001721db8d,001,36,Male,British,Undergrad,2024-03-05_22h20.25.060,CRL1h,2023.2.3,MacIntel,29.94011976,65e67470ae2fbf2172c317b2,65e79a8c0cd08177c670a565,,,,,,,,,,,697.3668,1.2,698.5649,698.5651,699.3822,left,0,0.8053,,699.3822,700.3827,3,11,59,10,1,total,2,images/Ex3.jpg,right,reversed,hard,1,,,,,
,,,,,5cf8cc7e95c070001721db8d,001,36,Male,British,Undergrad,2024-03-05_22h20.25.060,CRL1h,2023.2.3,MacIntel,29.94011976,65e67470ae2fbf2172c317b2,65e79a8c0cd08177c670a565,,,,,,,,,,,700.3833,1.3,701.6822,701.6823,703.0482,right,1,1.3596,,703.0483,704.0475,3,12,60,9,1,total,2,images/Ex2.jpg,right,reversed,hard,1,,,,,
,,,,,5cf8cc7e95c070001721db8d,001,36,Male,British,Undergrad,2024-03-05_22h20.25.060,CRL1h,2023.2.3,MacIntel,29.94011976,65e67470ae2fbf2172c317b2,65e79a8c0cd08177c670a565,,,,,,,,,,,704.0479,1,705.0487,705.0487,706.4987,right,1,1.4392,,706.4988,707.4991,3,13,61,2,1,total,2,images/Ex3.jpg,right,reversed,hard,1,,,,,
,,,,,5cf8cc7e95c070001721db8d,001,36,Male,British,Undergrad,2024-03-05_22h20.25.060,CRL1h,2023.2.3,MacIntel,29.94011976,65e67470ae2fbf2172c317b2,65e79a8c0cd08177c670a565,,,,,,,,,,,707.4998,0.8,708.2998,708.2998,709.1657,left,1,0.8543,,709.1657,710.1657,3,14,62,6,1,total,2,images/Ex7.jpg,left,reversed,hard,1,,,,,
,,,,,5cf8cc7e95c070001721db8d,001,36,Male,British,Undergrad,2024-03-05_22h20.25.060,CRL1h,2023.2.3,MacIntel,29.94011976,65e67470ae2fbf2172c317b2,65e79a8c0cd08177c670a565,,,,,,,,,,,710.1662,1.1,711.2658,711.2658,712.3157,left,1,1.045,,712.3157,713.3157,3,15,63,12,1,total,2,images/Ex5.jpg,left,reversed,hard,1,,,,,
,,,,,5cf8cc7e95c070001721db8d,001,36,Male,British,Undergrad,2024-03-05_22h20.25.060,CRL1h,2023.2.3,MacIntel,29.94011976,65e67470ae2fbf2172c317b2,65e79a8c0cd08177c670a565,,,,,,713.318,717.6313,space,4.2976,,717.6419,1.3,718.9326,718.9327,720.9668,right,0,2.0238,,720.9668,721.966,0,0,0,11,1,partial,1,images/Ex12.jpg,left,training,hard,1,,,,,
,,,,,5cf8cc7e95c070001721db8d,001,36,Male,British,Undergrad,2024-03-05_22h20.25.060,CRL1h,2023.2.3,MacIntel,29.94011976,65e67470ae2fbf2172c317b2,65e79a8c0cd08177c670a565,,,,,,,,,,,721.9668,0.5,722.4644,722.4645,724.2171,right,1,1.7371,,724.2172,725.2154,0,1,1,4,1,partial,1,images/Ex13.jpg,right,training,hard,1,,,,,
,,,,,5cf8cc7e95c070001721db8d,001,36,Male,British,Undergrad,2024-03-05_22h20.25.060,CRL1h,2023.2.3,MacIntel,29.94011976,65e67470ae2fbf2172c317b2,65e79a8c0cd08177c670a565,,,,,,,,,,,725.2162,0.7,725.9167,725.9168,727.5826,left,1,1.6629,,727.5827,728.5815,0,2,2,1,1,partial,1,images/Ex10.jpg,left,training,hard,1,,,,,
,,,,,5cf8cc7e95c070001721db8d,001,36,Male,British,Undergrad,2024-03-05_22h20.25.060,CRL1h,2023.2.3,MacIntel,29.94011976,65e67470ae2fbf2172c317b2,65e79a8c0cd08177c670a565,,,,,,,,,,,728.5927,1.4,729.9827,729.9828,731.633,left,0,1.6485,,731.633,732.6335,0,3,3,6,1,partial,1,images/Ex15.jpg,right,training,hard,1,,,,,
,,,,,5cf8cc7e95c070001721db8d,001,36,Male,British,Undergrad,2024-03-05_22h20.25.060,CRL1h,2023.2.3,MacIntel,29.94011976,65e67470ae2fbf2172c317b2,65e79a8c0cd08177c670a565,,,,,,,,,,,732.6432,0.6,733.2322,733.2323,734.6827,right,1,1.4399,,734.6828,735.6819,0,4,4,14,1,partial,1,images/Ex15.jpg,right,training,hard,1,,,,,
,,,,,5cf8cc7e95c070001721db8d,001,36,Male,British,Undergrad,2024-03-05_22h20.25.060,CRL1h,2023.2.3,MacIntel,29.94011976,65e67470ae2fbf2172c317b2,65e79a8c0cd08177c670a565,,,,,,,,,,,735.6827,1.1,736.7835,736.7836,739.2154,right,0,2.4215,,739.2155,740.2151,0,5,5,0,1,partial,1,images/Ex9.jpg,left,training,hard,1,,,,,
,,,,,5cf8cc7e95c070001721db8d,001,36,Male,British,Undergrad,2024-03-05_22h20.25.060,CRL1h,2023.2.3,MacIntel,29.94011976,65e67470ae2fbf2172c317b2,65e79a8c0cd08177c670a565,,,,,,,,,,,740.2254,0.6,740.8151,740.8152,741.9822,right,1,1.1561,,741.9822,742.9814,0,6,6,5,1,partial,1,images/Ex14.jpg,right,training,hard,1,,,,,
,,,,,5cf8cc7e95c070001721db8d,001,36,Male,British,Undergrad,2024-03-05_22h20.25.060,CRL1h,2023.2.3,MacIntel,29.94011976,65e67470ae2fbf2172c317b2,65e79a8c0cd08177c670a565,,,,,,,,,,,742.9818,1.3,744.2841,744.2843,746.0179,left,0,1.7192,,746.018,747.0156,0,7,7,7,1,partial,1,images/Ex16.jpg,right,training,hard,1,,,,,
,,,,,5cf8cc7e95c070001721db8d,001,36,Male,British,Undergrad,2024-03-05_22h20.25.060,CRL1h,2023.2.3,MacIntel,29.94011976,65e67470ae2fbf2172c317b2,65e79a8c0cd08177c670a565,,,,,,,,,,,747.0164,1.2,748.2165,748.2167,748.9826,right,1,0.7558,,748.9827,749.9802,0,8,8,15,1,partial,1,images/Ex16.jpg,right,training,hard,1,,,,,
,,,,,5cf8cc7e95c070001721db8d,001,36,Male,British,Undergrad,2024-03-05_22h20.25.060,CRL1h,2023.2.3,MacIntel,29.94011976,65e67470ae2fbf2172c317b2,65e79a8c0cd08177c670a565,,,,,,,,,,,749.981,0.6,750.5839,750.5839,753.5331,left,1,2.9388,,753.5331,754.5341,0,9,9,3,1,partial,1,images/Ex12.jpg,left,training,hard,1,,,,,
,,,,,5cf8cc7e95c070001721db8d,001,36,Male,British,Undergrad,2024-03-05_22h20.25.060,CRL1h,2023.2.3,MacIntel,29.94011976,65e67470ae2fbf2172c317b2,65e79a8c0cd08177c670a565,,,,,,,,,,,754.5446,1,755.5474,755.5474,757.4479,right,0,1.8974,,757.4479,758.4495,0,10,10,9,1,partial,1,images/Ex10.jpg,left,training,hard,1,,,,,
,,,,,5cf8cc7e95c070001721db8d,001,36,Male,British,Undergrad,2024-03-05_22h20.25.060,CRL1h,2023.2.3,MacIntel,29.94011976,65e67470ae2fbf2172c317b2,65e79a8c0cd08177c670a565,,,,,,,,,,,758.4584,1.1,759.549,759.5491,760.8328,left,1,1.2746,,760.8328,761.8326,0,11,11,10,1,partial,1,images/Ex11.jpg,left,training,hard,1,,,,,
,,,,,5cf8cc7e95c070001721db8d,001,36,Male,British,Undergrad,2024-03-05_22h20.25.060,CRL1h,2023.2.3,MacIntel,29.94011976,65e67470ae2fbf2172c317b2,65e79a8c0cd08177c670a565,,,,,,,,,,,761.8333,1.1,762.9311,762.9311,763.8482,left,0,0.9141,,763.8483,764.8501,0,12,12,13,1,partial,1,images/Ex14.jpg,right,training,hard,1,,,,,
,,,,,5cf8cc7e95c070001721db8d,001,36,Male,British,Undergrad,2024-03-05_22h20.25.060,CRL1h,2023.2.3,MacIntel,29.94011976,65e67470ae2fbf2172c317b2,65e79a8c0cd08177c670a565,,,,,,,,,,,764.8507,0.9,765.7487,765.7488,766.9994,left,1,1.2443,,766.9995,767.9987,0,13,13,8,1,partial,1,images/Ex9.jpg,left,training,hard,1,,,,,
,,,,,5cf8cc7e95c070001721db8d,001,36,Male,British,Undergrad,2024-03-05_22h20.25.060,CRL1h,2023.2.3,MacIntel,29.94011976,65e67470ae2fbf2172c317b2,65e79a8c0cd08177c670a565,,,,,,,,,,,767.9993,1,768.9998,768.9999,770.3145,right,1,1.3085,,770.3145,771.3154,0,14,14,12,1,partial,1,images/Ex13.jpg,right,training,hard,1,,,,,
,,,,,5cf8cc7e95c070001721db8d,001,36,Male,British,Undergrad,2024-03-05_22h20.25.060,CRL1h,2023.2.3,MacIntel,29.94011976,65e67470ae2fbf2172c317b2,65e79a8c0cd08177c670a565,,,,,,,,,,,771.3161,1,772.3148,772.3149,773.633,right,0,1.3106,,773.6331,774.6305,0,15,15,2,1,partial,1,images/Ex11.jpg,left,training,hard,1,,,,,
,,,,,5cf8cc7e95c070001721db8d,001,36,Male,British,Undergrad,2024-03-05_22h20.25.060,CRL1h,2023.2.3,MacIntel,29.94011976,65e67470ae2fbf2172c317b2,65e79a8c0cd08177c670a565,,,,,,,,,,,774.6311,1,775.6332,775.6333,776.8676,left,0,1.2319,,776.8677,777.8656,1,0,16,7,1,partial,1,images/Ex16.jpg,right,training,hard,1,,,,,
,,,,,5cf8cc7e95c070001721db8d,001,36,Male,British,Undergrad,2024-03-05_22h20.25.060,CRL1h,2023.2.3,MacIntel,29.94011976,65e67470ae2fbf2172c317b2,65e79a8c0cd08177c670a565,,,,,,,,,,,777.8662,1.3,779.1654,779.1655,780.0172,right,1,0.8487,,780.0173,781.014,1,1,17,15,1,partial,1,images/Ex16.jpg,right,training,hard,1,,,,,
,,,,,5cf8cc7e95c070001721db8d,001,36,Male,British,Undergrad,2024-03-05_22h20.25.060,CRL1h,2023.2.3,MacIntel,29.94011976,65e67470ae2fbf2172c317b2,65e79a8c0cd08177c670a565,,,,,,,,,,,781.0147,1.1,782.1153,782.1153,783.8823,right,1,1.757,,783.8824,784.884,1,2,18,6,1,partial,1,images/Ex15.jpg,right,training,hard,1,,,,,
,,,,,5cf8cc7e95c070001721db8d,001,36,Male,British,Undergrad,2024-03-05_22h20.25.060,CRL1h,2023.2.3,MacIntel,29.94011976,65e67470ae2fbf2172c317b2,65e79a8c0cd08177c670a565,,,,,,,,,,,784.8961,1.5,786.3998,786.3998,787.8502,right,1,1.4403,,787.8503,788.8495,1,3,19,5,1,partial,1,images/Ex14.jpg,right,training,hard,1,,,,,
,,,,,5cf8cc7e95c070001721db8d,001,36,Male,British,Undergrad,2024-03-05_22h20.25.060,CRL1h,2023.2.3,MacIntel,29.94011976,65e67470ae2fbf2172c317b2,65e79a8c0cd08177c670a565,,,,,,,,,,,788.85,1,789.8488,789.8488,791.6329,right,1,1.7728,,791.633,792.6319,1,4,20,12,1,partial,1,images/Ex13.jpg,right,training,hard,1,,,,,
,,,,,5cf8cc7e95c070001721db8d,001,36,Male,British,Undergrad,2024-03-05_22h20.25.060,CRL1h,2023.2.3,MacIntel,29.94011976,65e67470ae2fbf2172c317b2,65e79a8c0cd08177c670a565,,,,,,,,,,,792.6428,1.2,793.8334,793.8334,795.5149,right,1,1.6706,,795.515,796.514,1,5,21,14,1,partial,1,images/Ex15.jpg,right,training,hard,1,,,,,
,,,,,5cf8cc7e95c070001721db8d,001,36,Male,British,Undergrad,2024-03-05_22h20.25.060,CRL1h,2023.2.3,MacIntel,29.94011976,65e67470ae2fbf2172c317b2,65e79a8c0cd08177c670a565,,,,,,,,,,,796.5229,0.5,797.0167,797.0169,798.8817,left,0,1.8532,,798.8818,799.8821,1,6,22,13,1,partial,1,images/Ex14.jpg,right,training,hard,1,,,,,
,,,,,5cf8cc7e95c070001721db8d,001,36,Male,British,Undergrad,2024-03-05_22h20.25.060,CRL1h,2023.2.3,MacIntel,29.94011976,65e67470ae2fbf2172c317b2,65e79a8c0cd08177c670a565,,,,,,,,,,,799.8825,1.5,801.3813,801.3815,802.3162,left,1,0.9242,,802.3163,803.317,1,7,23,2,1,partial,1,images/Ex11.jpg,left,training,hard,1,,,,,
,,,,,5cf8cc7e95c070001721db8d,001,36,Male,British,Undergrad,2024-03-05_22h20.25.060,CRL1h,2023.2.3,MacIntel,29.94011976,65e67470ae2fbf2172c317b2,65e79a8c0cd08177c670a565,,,,,,,,,,,803.3178,1.2,804.5166,804.5166,806.5654,right,0,2.0373,,806.5654,807.5635,1,8,24,11,1,partial,1,images/Ex12.jpg,left,training,hard,1,,,,,
,,,,,5cf8cc7e95c070001721db8d,001,36,Male,British,Undergrad,2024-03-05_22h20.25.060,CRL1h,2023.2.3,MacIntel,29.94011976,65e67470ae2fbf2172c317b2,65e79a8c0cd08177c670a565,,,,,,,,,,,807.564,1.2,808.7667,808.7668,809.7642,right,0,0.988,,809.7642,810.7666,1,9,25,8,1,partial,1,images/Ex9.jpg,left,training,hard,1,,,,,
,,,,,5cf8cc7e95c070001721db8d,001,36,Male,British,Undergrad,2024-03-05_22h20.25.060,CRL1h,2023.2.3,MacIntel,29.94011976,65e67470ae2fbf2172c317b2,65e79a8c0cd08177c670a565,,,,,,,,,,,810.7673,1,811.764,811.7641,813.3497,left,1,1.5754,,813.3498,814.3493,1,10,26,9,1,partial,1,images/Ex10.jpg,left,training,hard,1,,,,,
,,,,,5cf8cc7e95c070001721db8d,001,36,Male,British,Undergrad,2024-03-05_22h20.25.060,CRL1h,2023.2.3,MacIntel,29.94011976,65e67470ae2fbf2172c317b2,65e79a8c0cd08177c670a565,,,,,,,,,,,814.3591,1.1,815.4485,815.4486,816.9644,left,1,1.5046,,816.9644,817.9663,1,11,27,0,1,partial,1,images/Ex9.jpg,left,training,hard,1,,,,,
,,,,,5cf8cc7e95c070001721db8d,001,36,Male,British,Undergrad,2024-03-05_22h20.25.060,CRL1h,2023.2.3,MacIntel,29.94011976,65e67470ae2fbf2172c317b2,65e79a8c0cd08177c670a565,,,,,,,,,,,817.9671,0.8,818.7653,818.7654,819.8838,right,0,1.1018,,819.8838,820.883,1,12,28,1,1,partial,1,images/Ex10.jpg,left,training,hard,1,,,,,
,,,,,5cf8cc7e95c070001721db8d,001,36,Male,British,Undergrad,2024-03-05_22h20.25.060,CRL1h,2023.2.3,MacIntel,29.94011976,65e67470ae2fbf2172c317b2,65e79a8c0cd08177c670a565,,,,,,,,,,,820.8836,1,821.8832,821.8833,822.9659,left,1,1.0775,,822.966,823.9661,1,13,29,3,1,partial,1,images/Ex12.jpg,left,training,hard,1,,,,,
,,,,,5cf8cc7e95c070001721db8d,001,36,Male,British,Undergrad,2024-03-05_22h20.25.060,CRL1h,2023.2.3,MacIntel,29.94011976,65e67470ae2fbf2172c317b2,65e79a8c0cd08177c670a565,,,,,,,,,,,823.9668,1,824.9665,824.9665,826.1167,left,1,1.148,,826.1168,827.1155,1,14,30,10,1,partial,1,images/Ex11.jpg,left,training,hard,1,,,,,
,,,,,5cf8cc7e95c070001721db8d,001,36,Male,British,Undergrad,2024-03-05_22h20.25.060,CRL1h,2023.2.3,MacIntel,29.94011976,65e67470ae2fbf2172c317b2,65e79a8c0cd08177c670a565,,,,,,,,,,,827.1161,1,828.1161,828.1162,829.4158,right,1,1.2932,,829.4158,830.4145,1,15,31,4,1,partial,1,images/Ex13.jpg,right,training,hard,1,,,,,
,,,,,5cf8cc7e95c070001721db8d,001,36,Male,British,Undergrad,2024-03-05_22h20.25.060,CRL1h,2023.2.3,MacIntel,29.94011976,65e67470ae2fbf2172c317b2,65e79a8c0cd08177c670a565,,,,,,,,,,,830.4235,0.7,831.1164,831.1165,831.8986,right,1,0.7722,,831.8986,832.8989,2,0,32,5,1,partial,1,images/Ex14.jpg,right,training,hard,1,,,,,
,,,,,5cf8cc7e95c070001721db8d,001,36,Male,British,Undergrad,2024-03-05_22h20.25.060,CRL1h,2023.2.3,MacIntel,29.94011976,65e67470ae2fbf2172c317b2,65e79a8c0cd08177c670a565,,,,,,,,,,,832.8997,0.6,833.4987,833.4987,835.8319,right,0,2.3224,,835.832,836.8331,2,1,33,11,1,partial,1,images/Ex12.jpg,left,training,hard,1,,,,,
,,,,,5cf8cc7e95c070001721db8d,001,36,Male,British,Undergrad,2024-03-05_22h20.25.060,CRL1h,2023.2.3,MacIntel,29.94011976,65e67470ae2fbf2172c317b2,65e79a8c0cd08177c670a565,,,,,,,,,,,836.8447,0.8,837.6497,837.6498,839.0152,right,1,1.3633,,839.0152,840.0165,2,2,34,13,1,partial,1,images/Ex14.jpg,right,training,hard,1,,,,,
,,,,,5cf8cc7e95c070001721db8d,001,36,Male,British,Undergrad,2024-03-05_22h20.25.060,CRL1h,2023.2.3,MacIntel,29.94011976,65e67470ae2fbf2172c317b2,65e79a8c0cd08177c670a565,,,,,,,,,,,840.0172,0.5,840.516,840.516,842.2644,right,0,1.7391,,842.2645,843.266,2,3,35,0,1,partial,1,images/Ex9.jpg,left,training,hard,1,,,,,
,,,,,5cf8cc7e95c070001721db8d,001,36,Male,British,Undergrad,2024-03-05_22h20.25.060,CRL1h,2023.2.3,MacIntel,29.94011976,65e67470ae2fbf2172c317b2,65e79a8c0cd08177c670a565,,,,,,,,,,,843.2668,0.8,844.0657,844.0658,844.9162,right,1,0.8448,,844.9164,845.9143,2,4,36,12,1,partial,1,images/Ex13.jpg,right,training,hard,1,,,,,
,,,,,5cf8cc7e95c070001721db8d,001,36,Male,British,Undergrad,2024-03-05_22h20.25.060,CRL1h,2023.2.3,MacIntel,29.94011976,65e67470ae2fbf2172c317b2,65e79a8c0cd08177c670a565,,,,,,,,,,,845.915,1,846.9155,846.9155,848.9325,right,1,2.0137,,848.9325,849.9329,2,5,37,15,1,partial,1,images/Ex16.jpg,right,training,hard,1,,,,,
,,,,,5cf8cc7e95c070001721db8d,001,36,Male,British,Undergrad,2024-03-05_22h20.25.060,CRL1h,2023.2.3,MacIntel,29.94011976,65e67470ae2fbf2172c317b2,65e79a8c0cd08177c670a565,,,,,,,,,,,849.9336,1.1,851.0332,851.0333,852.5145,right,0,1.4705,,852.5146,853.5146,2,6,38,8,1,partial,1,images/Ex9.jpg,left,training,hard,1,,,,,
,,,,,5cf8cc7e95c070001721db8d,001,36,Male,British,Undergrad,2024-03-05_22h20.25.060,CRL1h,2023.2.3,MacIntel,29.94011976,65e67470ae2fbf2172c317b2,65e79a8c0cd08177c670a565,,,,,,,,,,,853.5152,1,854.5155,854.5155,855.5672,right,1,1.0493,,855.5673,856.5662,2,7,39,6,1,partial,1,images/Ex15.jpg,right,training,hard,1,,,,,
,,,,,5cf8cc7e95c070001721db8d,001,36,Male,British,Undergrad,2024-03-05_22h20.25.060,CRL1h,2023.2.3,MacIntel,29.94011976,65e67470ae2fbf2172c317b2,65e79a8c0cd08177c670a565,,,,,,,,,,,856.5669,1.2,857.7665,857.7665,859.2978,right,0,1.5206,,859.2979,860.2993,2,8,40,10,1,partial,1,images/Ex11.jpg,left,training,hard,1,,,,,
,,,,,5cf8cc7e95c070001721db8d,001,36,Male,British,Undergrad,2024-03-05_22h20.25.060,CRL1h,2023.2.3,MacIntel,29.94011976,65e67470ae2fbf2172c317b2,65e79a8c0cd08177c670a565,,,,,,,,,,,860.3103,0.6,860.9154,860.9154,861.8155,left,1,0.8932,,861.8155,862.8148,2,9,41,2,1,partial,1,images/Ex11.jpg,left,training,hard,1,,,,,
,,,,,5cf8cc7e95c070001721db8d,001,36,Male,British,Undergrad,2024-03-05_22h20.25.060,CRL1h,2023.2.3,MacIntel,29.94011976,65e67470ae2fbf2172c317b2,65e79a8c0cd08177c670a565,,,,,,,,,,,862.8155,0.8,863.6169,863.617,864.5977,right,0,0.9793,,864.5979,865.6,2,10,42,9,1,partial,1,images/Ex10.jpg,left,training,hard,1,,,,,
,,,,,5cf8cc7e95c070001721db8d,001,36,Male,British,Undergrad,2024-03-05_22h20.25.060,CRL1h,2023.2.3,MacIntel,29.94011976,65e67470ae2fbf2172c317b2,65e79a8c0cd08177c670a565,,,,,,,,,,,865.6005,1.3,866.9,866.9,867.9323,right,1,1.0261,,867.9323,868.9322,2,11,43,14,1,partial,1,images/Ex15.jpg,right,training,hard,1,,,,,
,,,,,5cf8cc7e95c070001721db8d,001,36,Male,British,Undergrad,2024-03-05_22h20.25.060,CRL1h,2023.2.3,MacIntel,29.94011976,65e67470ae2fbf2172c317b2,65e79a8c0cd08177c670a565,,,,,,,,,,,868.9328,1.3,870.2328,870.2329,872.1477,left,0,1.9039,,872.1478,873.1498,2,12,44,7,1,partial,1,images/Ex16.jpg,right,training,hard,1,,,,,
,,,,,5cf8cc7e95c070001721db8d,001,36,Male,British,Undergrad,2024-03-05_22h20.25.060,CRL1h,2023.2.3,MacIntel,29.94011976,65e67470ae2fbf2172c317b2,65e79a8c0cd08177c670a565,,,,,,,,,,,873.1601,1.5,874.6509,874.651,875.398,right,1,0.7376,,875.3981,876.398,2,13,45,4,1,partial,1,images/Ex13.jpg,right,training,hard,1,,,,,
,,,,,5cf8cc7e95c070001721db8d,001,36,Male,British,Undergrad,2024-03-05_22h20.25.060,CRL1h,2023.2.3,MacIntel,29.94011976,65e67470ae2fbf2172c317b2,65e79a8c0cd08177c670a565,,,,,,,,,,,876.3985,0.5,876.899,876.899,878.3492,right,0,1.4416,,878.3494,879.3487,2,14,46,1,1,partial,1,images/Ex10.jpg,left,training,hard,1,,,,,
,,,,,5cf8cc7e95c070001721db8d,001,36,Male,British,Undergrad,2024-03-05_22h20.25.060,CRL1h,2023.2.3,MacIntel,29.94011976,65e67470ae2fbf2172c317b2,65e79a8c0cd08177c670a565,,,,,,,,,,,879.3494,0.9,880.2473,880.2474,883.3808,left,1,3.1224,,883.3809,884.3832,2,15,47,3,1,partial,1,images/Ex12.jpg,left,training,hard,1,,,,,
,,,,,5cf8cc7e95c070001721db8d,001,36,Male,British,Undergrad,2024-03-05_22h20.25.060,CRL1h,2023.2.3,MacIntel,29.94011976,65e67470ae2fbf2172c317b2,65e79a8c0cd08177c670a565,,,,,,,,,,,884.3937,0.9,885.2833,885.2834,887.0328,left,0,1.7398,,887.0329,888.031,3,0,48,13,1,partial,1,images/Ex14.jpg,right,training,hard,1,,,,,
,,,,,5cf8cc7e95c070001721db8d,001,36,Male,British,Undergrad,2024-03-05_22h20.25.060,CRL1h,2023.2.3,MacIntel,29.94011976,65e67470ae2fbf2172c317b2,65e79a8c0cd08177c670a565,,,,,,,,,,,888.0317,1.2,889.2325,889.2326,890.0673,left,1,0.8321,,890.0674,891.0644,3,1,49,11,1,partial,1,images/Ex12.jpg,left,training,hard,1,,,,,
,,,,,5cf8cc7e95c070001721db8d,001,36,Male,British,Undergrad,2024-03-05_22h20.25.060,CRL1h,2023.2.3,MacIntel,29.94011976,65e67470ae2fbf2172c317b2,65e79a8c0cd08177c670a565,,,,,,,,,,,891.0652,1.1,892.1644,892.1645,893.0143,right,1,0.8412,,893.0145,894.0175,3,2,50,5,1,partial,1,images/Ex14.jpg,right,training,hard,1,,,,,
,,,,,5cf8cc7e95c070001721db8d,001,36,Male,British,Undergrad,2024-03-05_22h20.25.060,CRL1h,2023.2.3,MacIntel,29.94011976,65e67470ae2fbf2172c317b2,65e79a8c0cd08177c670a565,,,,,,,,,,,894.0184,1,895.0171,895.0172,895.9163,right,1,0.8942,,895.9164,896.9162,3,3,51,6,1,partial,1,images/Ex15.jpg,right,training,hard,1,,,,,
,,,,,5cf8cc7e95c070001721db8d,001,36,Male,British,Undergrad,2024-03-05_22h20.25.060,CRL1h,2023.2.3,MacIntel,29.94011976,65e67470ae2fbf2172c317b2,65e79a8c0cd08177c670a565,,,,,,,,,,,896.9169,0.7,897.6146,897.6146,899.0497,left,0,1.4332,,899.0498,900.0494,3,4,52,7,1,partial,1,images/Ex16.jpg,right,training,hard,1,,,,,
,,,,,5cf8cc7e95c070001721db8d,001,36,Male,British,Undergrad,2024-03-05_22h20.25.060,CRL1h,2023.2.3,MacIntel,29.94011976,65e67470ae2fbf2172c317b2,65e79a8c0cd08177c670a565,,,,,,,,,,,900.0501,1.4,901.4482,901.4482,902.3658,right,1,0.9126,,902.3658,903.3645,3,5,53,4,1,partial,1,images/Ex13.jpg,right,training,hard,1,,,,,
,,,,,5cf8cc7e95c070001721db8d,001,36,Male,British,Undergrad,2024-03-05_22h20.25.060,CRL1h,2023.2.3,MacIntel,29.94011976,65e67470ae2fbf2172c317b2,65e79a8c0cd08177c670a565,,,,,,,,,,,903.365,1.4,904.7652,904.7653,906.1645,right,0,1.3894,,906.1646,907.1647,3,6,54,9,1,partial,1,images/Ex10.jpg,left,training,hard,1,,,,,
,,,,,5cf8cc7e95c070001721db8d,001,36,Male,British,Undergrad,2024-03-05_22h20.25.060,CRL1h,2023.2.3,MacIntel,29.94011976,65e67470ae2fbf2172c317b2,65e79a8c0cd08177c670a565,,,,,,,,,,,907.1654,1.2,908.3665,908.3665,909.3655,right,0,0.9872,,909.3656,910.3651,3,7,55,10,1,partial,1,images/Ex11.jpg,left,training,hard,1,,,,,
,,,,,5cf8cc7e95c070001721db8d,001,36,Male,British,Undergrad,2024-03-05_22h20.25.060,CRL1h,2023.2.3,MacIntel,29.94011976,65e67470ae2fbf2172c317b2,65e79a8c0cd08177c670a565,,,,,,,,,,,910.3657,1.1,911.4667,911.4669,912.1311,right,0,0.6558,,912.1312,913.1324,3,8,56,8,1,partial,1,images/Ex9.jpg,left,training,hard,1,,,,,
,,,,,5cf8cc7e95c070001721db8d,001,36,Male,British,Undergrad,2024-03-05_22h20.25.060,CRL1h,2023.2.3,MacIntel,29.94011976,65e67470ae2fbf2172c317b2,65e79a8c0cd08177c670a565,,,,,,,,,,,913.1329,0.7,913.8333,913.8334,914.4328,left,1,0.5929,,914.4329,915.4326,3,9,57,1,1,partial,1,images/Ex10.jpg,left,training,hard,1,,,,,
,,,,,5cf8cc7e95c070001721db8d,001,36,Male,British,Undergrad,2024-03-05_22h20.25.060,CRL1h,2023.2.3,MacIntel,29.94011976,65e67470ae2fbf2172c317b2,65e79a8c0cd08177c670a565,,,,,,,,,,,915.4333,1,916.4334,916.4334,917.05,right,1,0.6039,,917.0501,918.0477,3,10,58,12,1,partial,1,images/Ex13.jpg,right,training,hard,1,,,,,
,,,,,5cf8cc7e95c070001721db8d,001,36,Male,British,Undergrad,2024-03-05_22h20.25.060,CRL1h,2023.2.3,MacIntel,29.94011976,65e67470ae2fbf2172c317b2,65e79a8c0cd08177c670a565,,,,,,,,,,,918.0484,1.3,919.3509,919.3509,920.048,right,0,0.6863,,920.048,921.05,3,11,59,0,1,partial,1,images/Ex9.jpg,left,training,hard,1,,,,,
,,,,,5cf8cc7e95c070001721db8d,001,36,Male,British,Undergrad,2024-03-05_22h20.25.060,CRL1h,2023.2.3,MacIntel,29.94011976,65e67470ae2fbf2172c317b2,65e79a8c0cd08177c670a565,,,,,,,,,,,921.0507,0.5,921.5509,921.5509,922.6667,right,0,1.1039,,922.6668,923.6658,3,12,60,3,1,partial,1,images/Ex12.jpg,left,training,hard,1,,,,,
,,,,,5cf8cc7e95c070001721db8d,001,36,Male,British,Undergrad,2024-03-05_22h20.25.060,CRL1h,2023.2.3,MacIntel,29.94011976,65e67470ae2fbf2172c317b2,65e79a8c0cd08177c670a565,,,,,,,,,,,923.6666,0.7,924.3642,924.3643,926.1811,right,1,1.8098,,926.1812,927.1818,3,13,61,15,1,partial,1,images/Ex16.jpg,right,training,hard,1,,,,,
,,,,,5cf8cc7e95c070001721db8d,001,36,Male,British,Undergrad,2024-03-05_22h20.25.060,CRL1h,2023.2.3,MacIntel,29.94011976,65e67470ae2fbf2172c317b2,65e79a8c0cd08177c670a565,,,,,,,,,,,927.1825,0.7,927.8816,927.8816,929.0996,right,0,1.207,,929.0996,930.0977,3,14,62,2,1,partial,1,images/Ex11.jpg,left,training,hard,1,,,,,
,,,,,5cf8cc7e95c070001721db8d,001,36,Male,British,Undergrad,2024-03-05_22h20.25.060,CRL1h,2023.2.3,MacIntel,29.94011976,65e67470ae2fbf2172c317b2,65e79a8c0cd08177c670a565,,,,,,,,,,,930.0985,1.4,931.4994,931.4994,932.5838,right,1,1.079,,932.5839,933.5836,3,15,63,14,1,partial,1,images/Ex15.jpg,right,training,hard,1,,,,,
,,,,,5cf8cc7e95c070001721db8d,001,36,Male,British,Undergrad,2024-03-05_22h20.25.060,CRL1h,2023.2.3,MacIntel,29.94011976,65e67470ae2fbf2172c317b2,65e79a8c0cd08177c670a565,,,,,,,,,,,933.5843,1,934.5835,934.5836,935.2329,right,0,0.639,,935.2329,936.2334,4,0,64,8,1,partial,1,images/Ex9.jpg,left,training,hard,1,,,,,
,,,,,5cf8cc7e95c070001721db8d,001,36,Male,British,Undergrad,2024-03-05_22h20.25.060,CRL1h,2023.2.3,MacIntel,29.94011976,65e67470ae2fbf2172c317b2,65e79a8c0cd08177c670a565,,,,,,,,,,,936.2342,1.4,937.6338,937.6339,939.9825,left,1,2.3395,,939.9826,940.983,4,1,65,1,1,partial,1,images/Ex10.jpg,left,training,hard,1,,,,,
,,,,,5cf8cc7e95c070001721db8d,001,36,Male,British,Undergrad,2024-03-05_22h20.25.060,CRL1h,2023.2.3,MacIntel,29.94011976,65e67470ae2fbf2172c317b2,65e79a8c0cd08177c670a565,,,,,,,,,,,940.9921,0.6,941.5807,941.5807,942.7657,right,0,1.1747,,942.7658,943.7642,4,2,66,0,1,partial,1,images/Ex9.jpg,left,training,hard,1,,,,,
,,,,,5cf8cc7e95c070001721db8d,001,36,Male,British,Undergrad,2024-03-05_22h20.25.060,CRL1h,2023.2.3,MacIntel,29.94011976,65e67470ae2fbf2172c317b2,65e79a8c0cd08177c670a565,,,,,,,,,,,943.7646,0.9,944.6658,944.6659,946.7982,right,1,2.1232,,946.7982,947.8004,4,3,67,15,1,partial,1,images/Ex16.jpg,right,training,hard,1,,,,,
,,,,,5cf8cc7e95c070001721db8d,001,36,Male,British,Undergrad,2024-03-05_22h20.25.060,CRL1h,2023.2.3,MacIntel,29.94011976,65e67470ae2fbf2172c317b2,65e79a8c0cd08177c670a565,,,,,,,,,,,947.8013,0.9,948.6998,948.6998,950.1148,left,1,1.4113,,950.1149,951.1163,4,4,68,9,1,partial,1,images/Ex10.jpg,left,training,hard,1,,,,,
,,,,,5cf8cc7e95c070001721db8d,001,36,Male,British,Undergrad,2024-03-05_22h20.25.060,CRL1h,2023.2.3,MacIntel,29.94011976,65e67470ae2fbf2172c317b2,65e79a8c0cd08177c670a565,,,,,,,,,,,951.117,1.5,952.6161,952.6161,953.5644,left,1,0.9397,,953.5645,954.5654,4,5,69,2,1,partial,1,images/Ex11.jpg,left,training,hard,1,,,,,
,,,,,5cf8cc7e95c070001721db8d,001,36,Male,British,Undergrad,2024-03-05_22h20.25.060,CRL1h,2023.2.3,MacIntel,29.94011976,65e67470ae2fbf2172c317b2,65e79a8c0cd08177c670a565,,,,,,,,,,,954.5661,1.3,955.8646,955.8647,956.8338,right,1,0.9551,,956.8338,957.8326,4,6,70,14,1,partial,1,images/Ex15.jpg,right,training,hard,1,,,,,
,,,,,5cf8cc7e95c070001721db8d,001,36,Male,British,Undergrad,2024-03-05_22h20.25.060,CRL1h,2023.2.3,MacIntel,29.94011976,65e67470ae2fbf2172c317b2,65e79a8c0cd08177c670a565,,,,,,,,,,,957.8333,1,958.8321,958.8322,959.7999,right,1,0.9564,,959.8,960.8,4,7,71,6,1,partial,1,images/Ex15.jpg,right,training,hard,1,,,,,
,,,,,5cf8cc7e95c070001721db8d,001,36,Male,British,Undergrad,2024-03-05_22h20.25.060,CRL1h,2023.2.3,MacIntel,29.94011976,65e67470ae2fbf2172c317b2,65e79a8c0cd08177c670a565,,,,,,,,,,,960.8007,0.7,961.4987,961.4988,962.499,right,1,0.9877,,962.4991,963.5006,4,8,72,7,1,partial,1,images/Ex16.jpg,right,training,hard,1,,,,,
,,,,,5cf8cc7e95c070001721db8d,001,36,Male,British,Undergrad,2024-03-05_22h20.25.060,CRL1h,2023.2.3,MacIntel,29.94011976,65e67470ae2fbf2172c317b2,65e79a8c0cd08177c670a565,,,,,,,,,,,963.5014,1.2,964.6986,964.6986,966.4668,left,0,1.765,,966.467,967.467,4,9,73,5,1,partial,1,images/Ex14.jpg,right,training,hard,1,,,,,
,,,,,5cf8cc7e95c070001721db8d,001,36,Male,British,Undergrad,2024-03-05_22h20.25.060,CRL1h,2023.2.3,MacIntel,29.94011976,65e67470ae2fbf2172c317b2,65e79a8c0cd08177c670a565,,,,,,,,,,,967.4677,0.9,968.3666,968.3668,970.0495,left,1,1.6714,,970.0496,971.0497,4,10,74,3,1,partial,1,images/Ex12.jpg,left,training,hard,1,,,,,
,,,,,5cf8cc7e95c070001721db8d,001,36,Male,British,Undergrad,2024-03-05_22h20.25.060,CRL1h,2023.2.3,MacIntel,29.94011976,65e67470ae2fbf2172c317b2,65e79a8c0cd08177c670a565,,,,,,,,,,,971.0505,0.8,971.8484,971.8484,972.3659,left,1,0.5076,,972.366,973.3645,4,11,75,11,1,partial,1,images/Ex12.jpg,left,training,hard,1,,,,,
,,,,,5cf8cc7e95c070001721db8d,001,36,Male,British,Undergrad,2024-03-05_22h20.25.060,CRL1h,2023.2.3,MacIntel,29.94011976,65e67470ae2fbf2172c317b2,65e79a8c0cd08177c670a565,,,,,,,,,,,973.3651,1,974.3664,974.3665,975.7664,left,1,1.3894,,975.7665,976.7649,4,12,76,10,1,partial,1,images/Ex11.jpg,left,training,hard,1,,,,,
,,,,,5cf8cc7e95c070001721db8d,001,36,Male,British,Undergrad,2024-03-05_22h20.25.060,CRL1h,2023.2.3,MacIntel,29.94011976,65e67470ae2fbf2172c317b2,65e79a8c0cd08177c670a565,,,,,,,,,,,976.7655,0.7,977.4663,977.4663,978.9335,right,1,1.4612,,978.9336,979.9335,4,13,77,4,1,partial,1,images/Ex13.jpg,right,training,hard,1,,,,,
,,,,,5cf8cc7e95c070001721db8d,001,36,Male,British,Undergrad,2024-03-05_22h20.25.060,CRL1h,2023.2.3,MacIntel,29.94011976,65e67470ae2fbf2172c317b2,65e79a8c0cd08177c670a565,,,,,,,,,,,979.9341,1.5,981.4332,981.4333,982.1829,right,1,0.7404,,982.1831,983.1812,4,14,78,12,1,partial,1,images/Ex13.jpg,right,training,hard,1,,,,,
,,,,,5cf8cc7e95c070001721db8d,001,36,Male,British,Undergrad,2024-03-05_22h20.25.060,CRL1h,2023.2.3,MacIntel,29.94011976,65e67470ae2fbf2172c317b2,65e79a8c0cd08177c670a565,,,,,,,,,,,983.1818,1.1,984.282,984.2822,985.7499,right,1,1.4617,,985.7499,986.7506,4,15,79,13,1,partial,1,images/Ex14.jpg,right,training,hard,1,,,,,
,,,,,5cf8cc7e95c070001721db8d,001,36,Male,British,Undergrad,2024-03-05_22h20.25.060,CRL1h,2023.2.3,MacIntel,29.94011976,65e67470ae2fbf2172c317b2,65e79a8c0cd08177c670a565,,,,,,,,,,,986.7624,1.1,987.8503,987.8504,988.5321,right,1,0.6718,,988.5322,989.5307,5,0,80,5,1,partial,1,images/Ex14.jpg,right,training,hard,1,,,,,
,,,,,5cf8cc7e95c070001721db8d,001,36,Male,British,Undergrad,2024-03-05_22h20.25.060,CRL1h,2023.2.3,MacIntel,29.94011976,65e67470ae2fbf2172c317b2,65e79a8c0cd08177c670a565,,,,,,,,,,,989.5313,1.2,990.7331,990.7332,991.7501,right,1,1.0061,,991.7502,992.7514,5,1,81,6,1,partial,1,images/Ex15.jpg,right,training,hard,1,,,,,
,,,,,5cf8cc7e95c070001721db8d,001,36,Male,British,Undergrad,2024-03-05_22h20.25.060,CRL1h,2023.2.3,MacIntel,29.94011976,65e67470ae2fbf2172c317b2,65e79a8c0cd08177c670a565,,,,,,,,,,,992.752,0.8,993.5502,993.5503,994.2509,left,1,0.6878,,994.251,995.2479,5,2,82,2,1,partial,1,images/Ex11.jpg,left,training,hard,1,,,,,
,,,,,5cf8cc7e95c070001721db8d,001,36,Male,British,Undergrad,2024-03-05_22h20.25.060,CRL1h,2023.2.3,MacIntel,29.94011976,65e67470ae2fbf2172c317b2,65e79a8c0cd08177c670a565,,,,,,,,,,,995.2486,0.8,996.0504,996.0505,997.0814,left,1,1.0212,,997.0815,998.083,5,3,83,10,1,partial,1,images/Ex11.jpg,left,training,hard,1,,,,,
,,,,,5cf8cc7e95c070001721db8d,001,36,Male,British,Undergrad,2024-03-05_22h20.25.060,CRL1h,2023.2.3,MacIntel,29.94011976,65e67470ae2fbf2172c317b2,65e79a8c0cd08177c670a565,,,,,,,,,,,998.0837,0.9,998.9841,998.9842,1000.3332,left,0,1.3383,,1000.3333,1001.3348,5,4,84,4,1,partial,1,images/Ex13.jpg,right,training,hard,1,,,,,
,,,,,5cf8cc7e95c070001721db8d,001,36,Male,British,Undergrad,2024-03-05_22h20.25.060,CRL1h,2023.2.3,MacIntel,29.94011976,65e67470ae2fbf2172c317b2,65e79a8c0cd08177c670a565,,,,,,,,,,,1001.3353,1.2,1002.532,1002.5321,1004.051,left,1,1.5066,,1004.051,1005.0497,5,5,85,11,1,partial,1,images/Ex12.jpg,left,training,hard,1,,,,,
,,,,,5cf8cc7e95c070001721db8d,001,36,Male,British,Undergrad,2024-03-05_22h20.25.060,CRL1h,2023.2.3,MacIntel,29.94011976,65e67470ae2fbf2172c317b2,65e79a8c0cd08177c670a565,,,,,,,,,,,1005.0504,1.5,1006.5499,1006.5499,1007.2507,right,1,0.6881,,1007.2507,1008.2498,5,6,86,7,1,partial,1,images/Ex16.jpg,right,training,hard,1,,,,,
,,,,,5cf8cc7e95c070001721db8d,001,36,Male,British,Undergrad,2024-03-05_22h20.25.060,CRL1h,2023.2.3,MacIntel,29.94011976,65e67470ae2fbf2172c317b2,65e79a8c0cd08177c670a565,,,,,,,,,,,1008.2506,1.5,1009.7478,1009.7478,1010.8,left,1,1.0411,,1010.8002,1011.8005,5,7,87,0,1,partial,1,images/Ex9.jpg,left,training,hard,1,,,,,
,,,,,5cf8cc7e95c070001721db8d,001,36,Male,British,Undergrad,2024-03-05_22h20.25.060,CRL1h,2023.2.3,MacIntel,29.94011976,65e67470ae2fbf2172c317b2,65e79a8c0cd08177c670a565,,,,,,,,,,,1011.8013,0.9,1012.6993,1012.6993,1014.4507,right,1,1.746,,1014.4509,1015.4488,5,8,88,13,1,partial,1,images/Ex14.jpg,right,training,hard,1,,,,,
,,,,,5cf8cc7e95c070001721db8d,001,36,Male,British,Undergrad,2024-03-05_22h20.25.060,CRL1h,2023.2.3,MacIntel,29.94011976,65e67470ae2fbf2172c317b2,65e79a8c0cd08177c670a565,,,,,,,,,,,1015.4495,1.4,1016.848,1016.848,1018.7176,left,1,1.8577,,1018.7177,1019.7145,5,9,89,1,1,partial,1,images/Ex10.jpg,left,training,hard,1,,,,,
,,,,,5cf8cc7e95c070001721db8d,001,36,Male,British,Undergrad,2024-03-05_22h20.25.060,CRL1h,2023.2.3,MacIntel,29.94011976,65e67470ae2fbf2172c317b2,65e79a8c0cd08177c670a565,,,,,,,,,,,1019.7153,0.9,1020.6153,1020.6153,1021.5314,right,1,0.9065,,1021.5314,1022.5334,5,10,90,14,1,partial,1,images/Ex15.jpg,right,training,hard,1,,,,,
,,,,,5cf8cc7e95c070001721db8d,001,36,Male,British,Undergrad,2024-03-05_22h20.25.060,CRL1h,2023.2.3,MacIntel,29.94011976,65e67470ae2fbf2172c317b2,65e79a8c0cd08177c670a565,,,,,,,,,,,1022.5341,1.5,1024.0319,1024.032,1025.9821,left,1,1.9452,,1025.9821,1026.9812,5,11,91,8,1,partial,1,images/Ex9.jpg,left,training,hard,1,,,,,
,,,,,5cf8cc7e95c070001721db8d,001,36,Male,British,Undergrad,2024-03-05_22h20.25.060,CRL1h,2023.2.3,MacIntel,29.94011976,65e67470ae2fbf2172c317b2,65e79a8c0cd08177c670a565,,,,,,,,,,,1026.9923,1.1,1028.0813,1028.0813,1028.7831,right,1,0.6912,,1028.7831,1029.7812,5,12,92,15,1,partial,1,images/Ex16.jpg,right,training,hard,1,,,,,
,,,,,5cf8cc7e95c070001721db8d,001,36,Male,British,Undergrad,2024-03-05_22h20.25.060,CRL1h,2023.2.3,MacIntel,29.94011976,65e67470ae2fbf2172c317b2,65e79a8c0cd08177c670a565,,,,,,,,,,,1029.7818,1.2,1030.984,1030.9841,1032.2992,left,1,1.305,,1032.2993,1033.3009,5,13,93,9,1,partial,1,images/Ex10.jpg,left,training,hard,1,,,,,
,,,,,5cf8cc7e95c070001721db8d,001,36,Male,British,Undergrad,2024-03-05_22h20.25.060,CRL1h,2023.2.3,MacIntel,29.94011976,65e67470ae2fbf2172c317b2,65e79a8c0cd08177c670a565,,,,,,,,,,,1033.3016,1.4,1034.6991,1034.6992,1035.6988,right,0,0.9899,,1035.6989,1036.7002,5,14,94,3,1,partial,1,images/Ex12.jpg,left,training,hard,1,,,,,
,,,,,5cf8cc7e95c070001721db8d,001,36,Male,British,Undergrad,2024-03-05_22h20.25.060,CRL1h,2023.2.3,MacIntel,29.94011976,65e67470ae2fbf2172c317b2,65e79a8c0cd08177c670a565,,,,,,,,,,,1036.701,1.4,1038.0993,1038.0994,1039.2982,right,1,1.1919,,1039.2982,1040.2996,5,15,95,12,1,partial,1,images/Ex13.jpg,right,training,hard,1,,,,,
,,,,,5cf8cc7e95c070001721db8d,001,36,Male,British,Undergrad,2024-03-05_22h20.25.060,CRL1h,2023.2.3,MacIntel,29.94011976,65e67470ae2fbf2172c317b2,65e79a8c0cd08177c670a565,,,,,,,,,,,1040.3003,1.2,1041.4988,1041.4988,1042.1663,right,1,0.6585,,1042.1663,1043.1648,6,0,96,15,1,partial,1,images/Ex16.jpg,right,training,hard,1,,,,,
,,,,,5cf8cc7e95c070001721db8d,001,36,Male,British,Undergrad,2024-03-05_22h20.25.060,CRL1h,2023.2.3,MacIntel,29.94011976,65e67470ae2fbf2172c317b2,65e79a8c0cd08177c670a565,,,,,,,,,,,1043.1655,0.9,1044.0662,1044.0662,1045.3163,left,1,1.2482,,1045.3164,1046.3147,6,1,97,11,1,partial,1,images/Ex12.jpg,left,training,hard,1,,,,,
,,,,,5cf8cc7e95c070001721db8d,001,36,Male,British,Undergrad,2024-03-05_22h20.25.060,CRL1h,2023.2.3,MacIntel,29.94011976,65e67470ae2fbf2172c317b2,65e79a8c0cd08177c670a565,,,,,,,,,,,1046.3153,1,1047.3159,1047.3159,1050.1842,left,1,2.8552,,1050.1843,1051.1821,6,2,98,10,1,partial,1,images/Ex11.jpg,left,training,hard,1,,,,,
,,,,,5cf8cc7e95c070001721db8d,001,36,Male,British,Undergrad,2024-03-05_22h20.25.060,CRL1h,2023.2.3,MacIntel,29.94011976,65e67470ae2fbf2172c317b2,65e79a8c0cd08177c670a565,,,,,,,,,,,1051.1926,1.3,1052.4833,1052.4833,1054.0481,right,1,1.5549,,1054.0481,1055.0486,6,3,99,4,1,partial,1,images/Ex13.jpg,right,training,hard,1,,,,,
,,,,,5cf8cc7e95c070001721db8d,001,36,Male,British,Undergrad,2024-03-05_22h20.25.060,CRL1h,2023.2.3,MacIntel,29.94011976,65e67470ae2fbf2172c317b2,65e79a8c0cd08177c670a565,,,,,,,,,,,1055.0493,1.4,1056.4504,1056.4504,1057.7331,right,1,1.2768,,1057.7331,1058.7325,6,4,100,5,1,partial,1,images/Ex14.jpg,right,training,hard,1,,,,,
,,,,,5cf8cc7e95c070001721db8d,001,36,Male,British,Undergrad,2024-03-05_22h20.25.060,CRL1h,2023.2.3,MacIntel,29.94011976,65e67470ae2fbf2172c317b2,65e79a8c0cd08177c670a565,,,,,,,,,,,1058.7331,1,1059.7334,1059.7334,1060.6817,right,1,0.9388,,1060.6817,1061.6812,6,5,101,14,1,partial,1,images/Ex15.jpg,right,training,hard,1,,,,,
,,,,,5cf8cc7e95c070001721db8d,001,36,Male,British,Undergrad,2024-03-05_22h20.25.060,CRL1h,2023.2.3,MacIntel,29.94011976,65e67470ae2fbf2172c317b2,65e79a8c0cd08177c670a565,,,,,,,,,,,1061.6819,0.9,1062.584,1062.584,1064.2165,left,1,1.6277,,1064.2165,1065.2166,6,6,102,9,1,partial,1,images/Ex10.jpg,left,training,hard,1,,,,,
,,,,,5cf8cc7e95c070001721db8d,001,36,Male,British,Undergrad,2024-03-05_22h20.25.060,CRL1h,2023.2.3,MacIntel,29.94011976,65e67470ae2fbf2172c317b2,65e79a8c0cd08177c670a565,,,,,,,,,,,1065.2173,1.3,1066.5159,1066.5159,1067.7164,left,1,1.1987,,1067.7165,1068.7149,6,7,103,3,1,partial,1,images/Ex12.jpg,left,training,hard,1,,,,,
,,,,,5cf8cc7e95c070001721db8d,001,36,Male,British,Undergrad,2024-03-05_22h20.25.060,CRL1h,2023.2.3,MacIntel,29.94011976,65e67470ae2fbf2172c317b2,65e79a8c0cd08177c670a565,,,,,,,,,,,1068.7156,1.4,1070.1172,1070.1173,1070.932,right,1,0.8035,,1070.932,1071.933,6,8,104,13,1,partial,1,images/Ex14.jpg,right,training,hard,1,,,,,
,,,,,5cf8cc7e95c070001721db8d,001,36,Male,British,Undergrad,2024-03-05_22h20.25.060,CRL1h,2023.2.3,MacIntel,29.94011976,65e67470ae2fbf2172c317b2,65e79a8c0cd08177c670a565,,,,,,,,,,,1071.9335,1,1072.9341,1072.9341,1075.3513,left,1,2.4085,,1075.3514,1076.3492,6,9,105,0,1,partial,1,images/Ex9.jpg,left,training,hard,1,,,,,
,,,,,5cf8cc7e95c070001721db8d,001,36,Male,British,Undergrad,2024-03-05_22h20.25.060,CRL1h,2023.2.3,MacIntel,29.94011976,65e67470ae2fbf2172c317b2,65e79a8c0cd08177c670a565,,,,,,,,,,,1076.3499,1.5,1077.8496,1077.8497,1079.6,left,1,1.7469,,1079.6,1080.6002,6,10,106,2,1,partial,1,images/Ex11.jpg,left,training,hard,1,,,,,
,,,,,5cf8cc7e95c070001721db8d,001,36,Male,British,Undergrad,2024-03-05_22h20.25.060,CRL1h,2023.2.3,MacIntel,29.94011976,65e67470ae2fbf2172c317b2,65e79a8c0cd08177c670a565,,,,,,,,,,,1080.6093,1.2,1081.7979,1081.798,1082.8668,left,1,1.0583,,1082.8669,1083.8647,6,11,107,1,1,partial,1,images/Ex10.jpg,left,training,hard,1,,,,,
,,,,,5cf8cc7e95c070001721db8d,001,36,Male,British,Undergrad,2024-03-05_22h20.25.060,CRL1h,2023.2.3,MacIntel,29.94011976,65e67470ae2fbf2172c317b2,65e79a8c0cd08177c670a565,,,,,,,,,,,1083.8654,0.6,1084.466,1084.4661,1085.3336,right,1,0.8632,,1085.3337,1086.3315,6,12,108,7,1,partial,1,images/Ex16.jpg,right,training,hard,1,,,,,
,,,,,5cf8cc7e95c070001721db8d,001,36,Male,British,Undergrad,2024-03-05_22h20.25.060,CRL1h,2023.2.3,MacIntel,29.94011976,65e67470ae2fbf2172c317b2,65e79a8c0cd08177c670a565,,,,,,,,,,,1086.3321,0.9,1087.2328,1087.2329,1088.8161,left,1,1.571,,1088.8162,1089.8172,6,13,109,8,1,partial,1,images/Ex9.jpg,left,training,hard,1,,,,,
,,,,,5cf8cc7e95c070001721db8d,001,36,Male,British,Undergrad,2024-03-05_22h20.25.060,CRL1h,2023.2.3,MacIntel,29.94011976,65e67470ae2fbf2172c317b2,65e79a8c0cd08177c670a565,,,,,,,,,,,1089.8179,1.3,1091.1167,1091.1168,1093.0822,right,1,1.9541,,1093.0823,1094.0837,6,14,110,12,1,partial,1,images/Ex13.jpg,right,training,hard,1,,,,,
,,,,,5cf8cc7e95c070001721db8d,001,36,Male,British,Undergrad,2024-03-05_22h20.25.060,CRL1h,2023.2.3,MacIntel,29.94011976,65e67470ae2fbf2172c317b2,65e79a8c0cd08177c670a565,,,,,,,,,,,1094.0841,1,1095.0848,1095.085,1095.9493,right,1,0.8556,,1095.9494,1096.9481,6,15,111,6,1,partial,1,images/Ex15.jpg,right,training,hard,1,,,,,
,,,,,5cf8cc7e95c070001721db8d,001,36,Male,British,Undergrad,2024-03-05_22h20.25.060,CRL1h,2023.2.3,MacIntel,29.94011976,65e67470ae2fbf2172c317b2,65e79a8c0cd08177c670a565,,,,,,,,,,,1096.9487,1.2,1098.1482,1098.1482,1098.7171,left,1,0.5574,,1098.7172,1099.7172,7,0,112,10,1,partial,1,images/Ex11.jpg,left,training,hard,1,,,,,
,,,,,5cf8cc7e95c070001721db8d,001,36,Male,British,Undergrad,2024-03-05_22h20.25.060,CRL1h,2023.2.3,MacIntel,29.94011976,65e67470ae2fbf2172c317b2,65e79a8c0cd08177c670a565,,,,,,,,,,,1099.7179,1.3,1101.0148,1101.0148,1103.5986,right,1,2.5735,,1103.5988,1104.6008,7,1,113,5,1,partial,1,images/Ex14.jpg,right,training,hard,1,,,,,
,,,,,5cf8cc7e95c070001721db8d,001,36,Male,British,Undergrad,2024-03-05_22h20.25.060,CRL1h,2023.2.3,MacIntel,29.94011976,65e67470ae2fbf2172c317b2,65e79a8c0cd08177c670a565,,,,,,,,,,,1104.613,1.3,1105.9177,1105.9177,1106.749,right,0,0.8208,,1106.749,1107.748,7,2,114,0,1,partial,1,images/Ex9.jpg,left,training,hard,1,,,,,
,,,,,5cf8cc7e95c070001721db8d,001,36,Male,British,Undergrad,2024-03-05_22h20.25.060,CRL1h,2023.2.3,MacIntel,29.94011976,65e67470ae2fbf2172c317b2,65e79a8c0cd08177c670a565,,,,,,,,,,,1107.7487,0.8,1108.5492,1108.5492,1109.4182,right,1,0.8649,,1109.4183,1110.417,7,3,115,12,1,partial,1,images/Ex13.jpg,right,training,hard,1,,,,,
,,,,,5cf8cc7e95c070001721db8d,001,36,Male,British,Undergrad,2024-03-05_22h20.25.060,CRL1h,2023.2.3,MacIntel,29.94011976,65e67470ae2fbf2172c317b2,65e79a8c0cd08177c670a565,,,,,,,,,,,1110.4177,0.6,1111.015,1111.015,1112.0985,left,1,1.0811,,1112.0985,1113.0994,7,4,116,1,1,partial,1,images/Ex10.jpg,left,training,hard,1,,,,,
,,,,,5cf8cc7e95c070001721db8d,001,36,Male,British,Undergrad,2024-03-05_22h20.25.060,CRL1h,2023.2.3,MacIntel,29.94011976,65e67470ae2fbf2172c317b2,65e79a8c0cd08177c670a565,,,,,,,,,,,1113.1003,0.7,1113.799,1113.799,1114.5671,right,1,0.7557,,1114.5671,1115.5669,7,5,117,7,1,partial,1,images/Ex16.jpg,right,training,hard,1,,,,,
,,,,,5cf8cc7e95c070001721db8d,001,36,Male,British,Undergrad,2024-03-05_22h20.25.060,CRL1h,2023.2.3,MacIntel,29.94011976,65e67470ae2fbf2172c317b2,65e79a8c0cd08177c670a565,,,,,,,,,,,1115.5675,0.6,1116.1656,1116.1657,1117.1173,right,1,0.9394,,1117.1173,1118.1164,7,6,118,4,1,partial,1,images/Ex13.jpg,right,training,hard,1,,,,,
,,,,,5cf8cc7e95c070001721db8d,001,36,Male,British,Undergrad,2024-03-05_22h20.25.060,CRL1h,2023.2.3,MacIntel,29.94011976,65e67470ae2fbf2172c317b2,65e79a8c0cd08177c670a565,,,,,,,,,,,1118.1171,0.7,1118.8168,1118.8168,1119.3817,right,1,0.5553,,1119.3818,1120.3829,7,7,119,15,1,partial,1,images/Ex16.jpg,right,training,hard,1,,,,,
