infCons.started,infCons.stopped,resp_consent.keys,resp_consent.rt,resp_consent.duration,participant,session,Age?,Gender?,Nationality?,Highest Educational Degree?,date,expName,psychopyVersion,OS,frameRate,STUDY_ID,SESSION_ID,instructions.started,instructions.stopped,resp_instructions.keys,resp_instructions.rt,resp_instructions.duration,nextTask.started,nextTask.stopped,ready_task.keys,ready_task.rt,ready_task.duration,fixation.started,ITI,fixation.stopped,stim.started,stim.stopped,response.keys,response.corr,response.rt,response.duration,feedback.started,feedback.stopped,trials.thisRepN,trials.thisTrialN,trials.thisN,trials.thisIndex,trials.ran,task,phase,Exemplars,r_correct,condition,difficulty,set,end.started,end.stopped,resp_end.keys,resp_end.rt,resp_end.duration
0.0001,2.5675,space,2.546,,5d696d1c55742f001af29220,001,22,Female,British,A-Levels,2024-03-06_15h50.43.658,CRL1h,2023.2.3,MacIntel,60.24096386,65e67470ae2fbf2172c317b2,65e890bdf98eca7a2d3ad4f9,,,,,,,,,,,,,,,,,,,,,,,,,,,,,,,,,,,,,,
,,,,,5d696d1c55742f001af29220,001,22,Female,British,A-Levels,2024-03-06_15h50.43.658,CRL1h,2023.2.3,MacIntel,60.24096386,65e67470ae2fbf2172c317b2,65e890bdf98eca7a2d3ad4f9,2.5679,126.9195,space,124.3334,,,,,,,,,,,,,,,,,,,,,,,,,,,,,,,,,,
,,,,,5d696d1c55742f001af29220,001,22,Female,British,A-Levels,2024-03-06_15h50.43.658,CRL1h,2023.2.3,MacIntel,60.24096386,65e67470ae2fbf2172c317b2,65e890bdf98eca7a2d3ad4f9,,,,,,126.9271,130.8526,space,3.9046,,130.8595,1.1,131.9524,131.9526,134.1021,left,0,2.1332,,134.1024,135.1024,0,0,0,7,1,total,1,images/Ex16.jpg,right,training,hard,4,,,,,
,,,,,5d696d1c55742f001af29220,001,22,Female,British,A-Levels,2024-03-06_15h50.43.658,CRL1h,2023.2.3,MacIntel,60.24096386,65e67470ae2fbf2172c317b2,65e890bdf98eca7a2d3ad4f9,,,,,,,,,,,135.1037,0.7,135.8018,135.8018,138.9184,left,1,3.1029,,138.9184,139.9187,0,1,1,0,1,total,1,images/Ex9.jpg,left,training,hard,4,,,,,
,,,,,5d696d1c55742f001af29220,001,22,Female,British,A-Levels,2024-03-06_15h50.43.658,CRL1h,2023.2.3,MacIntel,60.24096386,65e67470ae2fbf2172c317b2,65e890bdf98eca7a2d3ad4f9,,,,,,,,,,,139.9198,1.1,141.0188,141.0188,142.2519,right,0,1.22,,142.252,143.252,0,2,2,1,1,total,1,images/Ex10.jpg,left,training,hard,4,,,,,
,,,,,5d696d1c55742f001af29220,001,22,Female,British,A-Levels,2024-03-06_15h50.43.658,CRL1h,2023.2.3,MacIntel,60.24096386,65e67470ae2fbf2172c317b2,65e890bdf98eca7a2d3ad4f9,,,,,,,,,,,143.2527,0.6,143.852,143.8521,145.2022,right,0,1.3363,,145.2024,146.202,0,3,3,2,1,total,1,images/Ex11.jpg,left,training,hard,4,,,,,
,,,,,5d696d1c55742f001af29220,001,22,Female,British,A-Levels,2024-03-06_15h50.43.658,CRL1h,2023.2.3,MacIntel,60.24096386,65e67470ae2fbf2172c317b2,65e890bdf98eca7a2d3ad4f9,,,,,,,,,,,146.2028,1.2,147.402,147.4021,149.2185,left,1,1.8036,,149.2185,150.2188,0,4,4,10,1,total,1,images/Ex11.jpg,left,training,hard,4,,,,,
,,,,,5d696d1c55742f001af29220,001,22,Female,British,A-Levels,2024-03-06_15h50.43.658,CRL1h,2023.2.3,MacIntel,60.24096386,65e67470ae2fbf2172c317b2,65e890bdf98eca7a2d3ad4f9,,,,,,,,,,,150.2196,1,151.2183,151.2184,152.7024,left,1,1.47,,152.7025,153.7022,0,5,5,3,1,total,1,images/Ex12.jpg,left,training,hard,4,,,,,
,,,,,5d696d1c55742f001af29220,001,22,Female,British,A-Levels,2024-03-06_15h50.43.658,CRL1h,2023.2.3,MacIntel,60.24096386,65e67470ae2fbf2172c317b2,65e890bdf98eca7a2d3ad4f9,,,,,,,,,,,153.7029,1.2,154.9021,154.9022,156.1523,right,0,1.2402,,156.1523,157.1522,0,6,6,8,1,total,1,images/Ex9.jpg,left,training,hard,4,,,,,
,,,,,5d696d1c55742f001af29220,001,22,Female,British,A-Levels,2024-03-06_15h50.43.658,CRL1h,2023.2.3,MacIntel,60.24096386,65e67470ae2fbf2172c317b2,65e890bdf98eca7a2d3ad4f9,,,,,,,,,,,157.1627,1.2,158.3518,158.3519,159.5684,right,1,1.2058,,159.5686,160.5688,0,7,7,14,1,total,1,images/Ex15.jpg,right,training,hard,4,,,,,
,,,,,5d696d1c55742f001af29220,001,22,Female,British,A-Levels,2024-03-06_15h50.43.658,CRL1h,2023.2.3,MacIntel,60.24096386,65e67470ae2fbf2172c317b2,65e890bdf98eca7a2d3ad4f9,,,,,,,,,,,160.5695,1.2,161.7688,161.769,163.769,left,1,1.9876,,163.7691,164.7688,0,8,8,9,1,total,1,images/Ex10.jpg,left,training,hard,4,,,,,
,,,,,5d696d1c55742f001af29220,001,22,Female,British,A-Levels,2024-03-06_15h50.43.658,CRL1h,2023.2.3,MacIntel,60.24096386,65e67470ae2fbf2172c317b2,65e890bdf98eca7a2d3ad4f9,,,,,,,,,,,164.7696,1.1,165.8688,165.8689,166.8013,left,1,0.9185,,166.8013,167.8022,0,9,9,11,1,total,1,images/Ex12.jpg,left,training,hard,4,,,,,
,,,,,5d696d1c55742f001af29220,001,22,Female,British,A-Levels,2024-03-06_15h50.43.658,CRL1h,2023.2.3,MacIntel,60.24096386,65e67470ae2fbf2172c317b2,65e890bdf98eca7a2d3ad4f9,,,,,,,,,,,167.803,1.1,168.9011,168.9011,169.9852,right,1,1.0765,,169.9853,170.9855,0,10,10,5,1,total,1,images/Ex14.jpg,right,training,hard,4,,,,,
,,,,,5d696d1c55742f001af29220,001,22,Female,British,A-Levels,2024-03-06_15h50.43.658,CRL1h,2023.2.3,MacIntel,60.24096386,65e67470ae2fbf2172c317b2,65e890bdf98eca7a2d3ad4f9,,,,,,,,,,,170.9958,1.3,172.2857,172.2857,173.6181,left,0,1.3189,,173.6181,174.619,0,11,11,12,1,total,1,images/Ex13.jpg,right,training,hard,4,,,,,
,,,,,5d696d1c55742f001af29220,001,22,Female,British,A-Levels,2024-03-06_15h50.43.658,CRL1h,2023.2.3,MacIntel,60.24096386,65e67470ae2fbf2172c317b2,65e890bdf98eca7a2d3ad4f9,,,,,,,,,,,174.6197,1.1,175.7182,175.7182,176.3191,right,1,0.5879,,176.3192,177.3189,0,12,12,4,1,total,1,images/Ex13.jpg,right,training,hard,4,,,,,
,,,,,5d696d1c55742f001af29220,001,22,Female,British,A-Levels,2024-03-06_15h50.43.658,CRL1h,2023.2.3,MacIntel,60.24096386,65e67470ae2fbf2172c317b2,65e890bdf98eca7a2d3ad4f9,,,,,,,,,,,177.3196,1.1,178.4189,178.4189,179.4859,left,0,1.0582,,179.4859,180.4856,0,13,13,15,1,total,1,images/Ex16.jpg,right,training,hard,4,,,,,
,,,,,5d696d1c55742f001af29220,001,22,Female,British,A-Levels,2024-03-06_15h50.43.658,CRL1h,2023.2.3,MacIntel,60.24096386,65e67470ae2fbf2172c317b2,65e890bdf98eca7a2d3ad4f9,,,,,,,,,,,180.4863,1.3,181.7856,181.7856,183.1527,left,0,1.353,,183.1528,184.1524,0,14,14,6,1,total,1,images/Ex15.jpg,right,training,hard,4,,,,,
,,,,,5d696d1c55742f001af29220,001,22,Female,British,A-Levels,2024-03-06_15h50.43.658,CRL1h,2023.2.3,MacIntel,60.24096386,65e67470ae2fbf2172c317b2,65e890bdf98eca7a2d3ad4f9,,,,,,,,,,,184.1531,1.4,185.5515,185.5515,186.7691,left,0,1.2044,,186.7693,187.7691,0,15,15,13,1,total,1,images/Ex14.jpg,right,training,hard,4,,,,,
,,,,,5d696d1c55742f001af29220,001,22,Female,British,A-Levels,2024-03-06_15h50.43.658,CRL1h,2023.2.3,MacIntel,60.24096386,65e67470ae2fbf2172c317b2,65e890bdf98eca7a2d3ad4f9,,,,,,,,,,,187.7698,1.4,189.169,189.169,190.4526,left,0,1.2702,,190.4527,191.4524,1,0,16,6,1,total,1,images/Ex15.jpg,right,training,hard,4,,,,,
,,,,,5d696d1c55742f001af29220,001,22,Female,British,A-Levels,2024-03-06_15h50.43.658,CRL1h,2023.2.3,MacIntel,60.24096386,65e67470ae2fbf2172c317b2,65e890bdf98eca7a2d3ad4f9,,,,,,,,,,,191.4533,1.5,192.9524,192.9525,193.7359,left,1,0.7712,,193.7359,194.7358,1,1,17,8,1,total,1,images/Ex9.jpg,left,training,hard,4,,,,,
,,,,,5d696d1c55742f001af29220,001,22,Female,British,A-Levels,2024-03-06_15h50.43.658,CRL1h,2023.2.3,MacIntel,60.24096386,65e67470ae2fbf2172c317b2,65e890bdf98eca7a2d3ad4f9,,,,,,,,,,,194.7365,0.5,195.2357,195.2358,197.5692,right,0,2.3232,,197.5693,198.569,1,2,18,9,1,total,1,images/Ex10.jpg,left,training,hard,4,,,,,
,,,,,5d696d1c55742f001af29220,001,22,Female,British,A-Levels,2024-03-06_15h50.43.658,CRL1h,2023.2.3,MacIntel,60.24096386,65e67470ae2fbf2172c317b2,65e890bdf98eca7a2d3ad4f9,,,,,,,,,,,198.5698,1,199.5691,199.5691,201.1192,right,1,1.5367,,201.1192,202.1192,1,3,19,15,1,total,1,images/Ex16.jpg,right,training,hard,4,,,,,
,,,,,5d696d1c55742f001af29220,001,22,Female,British,A-Levels,2024-03-06_15h50.43.658,CRL1h,2023.2.3,MacIntel,60.24096386,65e67470ae2fbf2172c317b2,65e890bdf98eca7a2d3ad4f9,,,,,,,,,,,202.1199,1.4,203.519,203.5191,204.7689,right,0,1.2467,,204.769,205.7692,1,4,20,2,1,total,1,images/Ex11.jpg,left,training,hard,4,,,,,
,,,,,5d696d1c55742f001af29220,001,22,Female,British,A-Levels,2024-03-06_15h50.43.658,CRL1h,2023.2.3,MacIntel,60.24096386,65e67470ae2fbf2172c317b2,65e890bdf98eca7a2d3ad4f9,,,,,,,,,,,205.7699,0.8,206.5692,206.5693,207.6695,left,0,1.0868,,207.6696,208.6693,1,5,21,5,1,total,1,images/Ex14.jpg,right,training,hard,4,,,,,
,,,,,5d696d1c55742f001af29220,001,22,Female,British,A-Levels,2024-03-06_15h50.43.658,CRL1h,2023.2.3,MacIntel,60.24096386,65e67470ae2fbf2172c317b2,65e890bdf98eca7a2d3ad4f9,,,,,,,,,,,208.67,1.5,210.1693,210.1694,211.1195,right,1,0.9374,,211.1195,212.1192,1,6,22,7,1,total,1,images/Ex16.jpg,right,training,hard,4,,,,,
,,,,,5d696d1c55742f001af29220,001,22,Female,British,A-Levels,2024-03-06_15h50.43.658,CRL1h,2023.2.3,MacIntel,60.24096386,65e67470ae2fbf2172c317b2,65e890bdf98eca7a2d3ad4f9,,,,,,,,,,,212.1199,1.2,213.3192,213.3192,214.3357,left,1,1.0026,,214.3358,215.3359,1,7,23,0,1,total,1,images/Ex9.jpg,left,training,hard,4,,,,,
,,,,,5d696d1c55742f001af29220,001,22,Female,British,A-Levels,2024-03-06_15h50.43.658,CRL1h,2023.2.3,MacIntel,60.24096386,65e67470ae2fbf2172c317b2,65e890bdf98eca7a2d3ad4f9,,,,,,,,,,,215.3367,0.8,216.1359,216.1359,216.8525,right,0,0.7142,,216.8526,217.8526,1,8,24,1,1,total,1,images/Ex10.jpg,left,training,hard,4,,,,,
,,,,,5d696d1c55742f001af29220,001,22,Female,British,A-Levels,2024-03-06_15h50.43.658,CRL1h,2023.2.3,MacIntel,60.24096386,65e67470ae2fbf2172c317b2,65e890bdf98eca7a2d3ad4f9,,,,,,,,,,,217.8532,1.2,219.0525,219.0525,220.2356,right,1,1.1798,,220.2357,221.2359,1,9,25,14,1,total,1,images/Ex15.jpg,right,training,hard,4,,,,,
,,,,,5d696d1c55742f001af29220,001,22,Female,British,A-Levels,2024-03-06_15h50.43.658,CRL1h,2023.2.3,MacIntel,60.24096386,65e67470ae2fbf2172c317b2,65e890bdf98eca7a2d3ad4f9,,,,,,,,,,,221.2366,1,222.2359,222.2359,224.4693,left,1,2.2241,,224.4694,225.4693,1,10,26,11,1,total,1,images/Ex12.jpg,left,training,hard,4,,,,,
,,,,,5d696d1c55742f001af29220,001,22,Female,British,A-Levels,2024-03-06_15h50.43.658,CRL1h,2023.2.3,MacIntel,60.24096386,65e67470ae2fbf2172c317b2,65e890bdf98eca7a2d3ad4f9,,,,,,,,,,,225.4818,0.9,226.3692,226.3693,228.0523,right,1,1.6723,,228.0523,229.0525,1,11,27,12,1,total,1,images/Ex13.jpg,right,training,hard,4,,,,,
,,,,,5d696d1c55742f001af29220,001,22,Female,British,A-Levels,2024-03-06_15h50.43.658,CRL1h,2023.2.3,MacIntel,60.24096386,65e67470ae2fbf2172c317b2,65e890bdf98eca7a2d3ad4f9,,,,,,,,,,,229.0622,0.6,229.6526,229.6527,230.1853,right,1,0.5207,,230.1853,231.1861,1,12,28,4,1,total,1,images/Ex13.jpg,right,training,hard,4,,,,,
,,,,,5d696d1c55742f001af29220,001,22,Female,British,A-Levels,2024-03-06_15h50.43.658,CRL1h,2023.2.3,MacIntel,60.24096386,65e67470ae2fbf2172c317b2,65e890bdf98eca7a2d3ad4f9,,,,,,,,,,,231.1868,1.2,232.3861,232.3861,233.8353,right,0,1.4376,,233.8353,234.8361,1,13,29,3,1,total,1,images/Ex12.jpg,left,training,hard,4,,,,,
,,,,,5d696d1c55742f001af29220,001,22,Female,British,A-Levels,2024-03-06_15h50.43.658,CRL1h,2023.2.3,MacIntel,60.24096386,65e67470ae2fbf2172c317b2,65e890bdf98eca7a2d3ad4f9,,,,,,,,,,,234.8368,1.2,236.036,236.036,237.4361,left,1,1.3896,,237.4363,238.436,1,14,30,10,1,total,1,images/Ex11.jpg,left,training,hard,4,,,,,
,,,,,5d696d1c55742f001af29220,001,22,Female,British,A-Levels,2024-03-06_15h50.43.658,CRL1h,2023.2.3,MacIntel,60.24096386,65e67470ae2fbf2172c317b2,65e890bdf98eca7a2d3ad4f9,,,,,,,,,,,238.4367,0.7,239.136,239.1361,241.3696,right,1,2.2257,,241.3696,242.3684,1,15,31,13,1,total,1,images/Ex14.jpg,right,training,hard,4,,,,,
,,,,,5d696d1c55742f001af29220,001,22,Female,British,A-Levels,2024-03-06_15h50.43.658,CRL1h,2023.2.3,MacIntel,60.24096386,65e67470ae2fbf2172c317b2,65e890bdf98eca7a2d3ad4f9,,,,,,,,,,,242.369,1.3,243.6694,243.6694,244.6029,right,1,0.9201,,244.6031,245.6027,2,0,32,15,1,total,1,images/Ex16.jpg,right,training,hard,4,,,,,
,,,,,5d696d1c55742f001af29220,001,22,Female,British,A-Levels,2024-03-06_15h50.43.658,CRL1h,2023.2.3,MacIntel,60.24096386,65e67470ae2fbf2172c317b2,65e890bdf98eca7a2d3ad4f9,,,,,,,,,,,245.6033,1.5,247.1027,247.1028,247.9195,left,1,0.815,,247.9196,248.9194,2,1,33,0,1,total,1,images/Ex9.jpg,left,training,hard,4,,,,,
,,,,,5d696d1c55742f001af29220,001,22,Female,British,A-Levels,2024-03-06_15h50.43.658,CRL1h,2023.2.3,MacIntel,60.24096386,65e67470ae2fbf2172c317b2,65e890bdf98eca7a2d3ad4f9,,,,,,,,,,,248.9201,0.9,249.8194,249.8195,251.3354,right,1,1.503,,251.3354,252.3361,2,2,34,5,1,total,1,images/Ex14.jpg,right,training,hard,4,,,,,
,,,,,5d696d1c55742f001af29220,001,22,Female,British,A-Levels,2024-03-06_15h50.43.658,CRL1h,2023.2.3,MacIntel,60.24096386,65e67470ae2fbf2172c317b2,65e890bdf98eca7a2d3ad4f9,,,,,,,,,,,252.3368,0.7,253.0363,253.0364,254.4362,right,0,1.3865,,254.4363,255.4362,2,3,35,11,1,total,1,images/Ex12.jpg,left,training,hard,4,,,,,
,,,,,5d696d1c55742f001af29220,001,22,Female,British,A-Levels,2024-03-06_15h50.43.658,CRL1h,2023.2.3,MacIntel,60.24096386,65e67470ae2fbf2172c317b2,65e890bdf98eca7a2d3ad4f9,,,,,,,,,,,255.4369,0.9,256.3363,256.3364,257.853,left,0,1.5046,,257.8531,258.8519,2,4,36,4,1,total,1,images/Ex13.jpg,right,training,hard,4,,,,,
,,,,,5d696d1c55742f001af29220,001,22,Female,British,A-Levels,2024-03-06_15h50.43.658,CRL1h,2023.2.3,MacIntel,60.24096386,65e67470ae2fbf2172c317b2,65e890bdf98eca7a2d3ad4f9,,,,,,,,,,,258.8525,1,259.8529,259.8529,261.653,left,1,1.7865,,261.6531,262.6529,2,5,37,2,1,total,1,images/Ex11.jpg,left,training,hard,4,,,,,
,,,,,5d696d1c55742f001af29220,001,22,Female,British,A-Levels,2024-03-06_15h50.43.658,CRL1h,2023.2.3,MacIntel,60.24096386,65e67470ae2fbf2172c317b2,65e890bdf98eca7a2d3ad4f9,,,,,,,,,,,262.6535,1.2,263.8527,263.8528,264.4863,right,1,0.6263,,264.4863,265.4862,2,6,38,7,1,total,1,images/Ex16.jpg,right,training,hard,4,,,,,
,,,,,5d696d1c55742f001af29220,001,22,Female,British,A-Levels,2024-03-06_15h50.43.658,CRL1h,2023.2.3,MacIntel,60.24096386,65e67470ae2fbf2172c317b2,65e890bdf98eca7a2d3ad4f9,,,,,,,,,,,265.4868,1.1,266.5863,266.5864,267.6197,left,0,1.0232,,267.6197,268.6195,2,7,39,14,1,total,1,images/Ex15.jpg,right,training,hard,4,,,,,
,,,,,5d696d1c55742f001af29220,001,22,Female,British,A-Levels,2024-03-06_15h50.43.658,CRL1h,2023.2.3,MacIntel,60.24096386,65e67470ae2fbf2172c317b2,65e890bdf98eca7a2d3ad4f9,,,,,,,,,,,268.6203,0.7,269.3187,269.3188,270.2699,left,0,0.943,,270.27,271.2697,2,8,40,12,1,total,1,images/Ex13.jpg,right,training,hard,4,,,,,
,,,,,5d696d1c55742f001af29220,001,22,Female,British,A-Levels,2024-03-06_15h50.43.658,CRL1h,2023.2.3,MacIntel,60.24096386,65e67470ae2fbf2172c317b2,65e890bdf98eca7a2d3ad4f9,,,,,,,,,,,271.2704,1,272.2688,272.2688,272.9531,left,1,0.6744,,272.9532,273.953,2,9,41,3,1,total,1,images/Ex12.jpg,left,training,hard,4,,,,,
,,,,,5d696d1c55742f001af29220,001,22,Female,British,A-Levels,2024-03-06_15h50.43.658,CRL1h,2023.2.3,MacIntel,60.24096386,65e67470ae2fbf2172c317b2,65e890bdf98eca7a2d3ad4f9,,,,,,,,,,,273.9538,1,274.953,274.9531,275.9354,right,0,0.9732,,275.9355,276.9365,2,10,42,1,1,total,1,images/Ex10.jpg,left,training,hard,4,,,,,
,,,,,5d696d1c55742f001af29220,001,22,Female,British,A-Levels,2024-03-06_15h50.43.658,CRL1h,2023.2.3,MacIntel,60.24096386,65e67470ae2fbf2172c317b2,65e890bdf98eca7a2d3ad4f9,,,,,,,,,,,276.9372,1.4,278.3363,278.3364,279.3696,right,1,1.0202,,279.3697,280.3696,2,11,43,13,1,total,1,images/Ex14.jpg,right,training,hard,4,,,,,
,,,,,5d696d1c55742f001af29220,001,22,Female,British,A-Levels,2024-03-06_15h50.43.658,CRL1h,2023.2.3,MacIntel,60.24096386,65e67470ae2fbf2172c317b2,65e890bdf98eca7a2d3ad4f9,,,,,,,,,,,280.3704,0.8,281.1687,281.1688,282.1032,right,0,0.9238,,282.1032,283.103,2,12,44,9,1,total,1,images/Ex10.jpg,left,training,hard,4,,,,,
,,,,,5d696d1c55742f001af29220,001,22,Female,British,A-Levels,2024-03-06_15h50.43.658,CRL1h,2023.2.3,MacIntel,60.24096386,65e67470ae2fbf2172c317b2,65e890bdf98eca7a2d3ad4f9,,,,,,,,,,,283.1038,1,284.1021,284.1021,285.2854,right,1,1.1709,,285.2855,286.2864,2,13,45,6,1,total,1,images/Ex15.jpg,right,training,hard,4,,,,,
,,,,,5d696d1c55742f001af29220,001,22,Female,British,A-Levels,2024-03-06_15h50.43.658,CRL1h,2023.2.3,MacIntel,60.24096386,65e67470ae2fbf2172c317b2,65e890bdf98eca7a2d3ad4f9,,,,,,,,,,,286.2872,0.6,286.8865,286.8865,287.7699,left,1,0.8687,,287.77,288.769,2,14,46,8,1,total,1,images/Ex9.jpg,left,training,hard,4,,,,,
,,,,,5d696d1c55742f001af29220,001,22,Female,British,A-Levels,2024-03-06_15h50.43.658,CRL1h,2023.2.3,MacIntel,60.24096386,65e67470ae2fbf2172c317b2,65e890bdf98eca7a2d3ad4f9,,,,,,,,,,,288.7697,1.3,290.0698,290.0698,290.9533,left,1,0.8703,,290.9533,291.9532,2,15,47,10,1,total,1,images/Ex11.jpg,left,training,hard,4,,,,,
,,,,,5d696d1c55742f001af29220,001,22,Female,British,A-Levels,2024-03-06_15h50.43.658,CRL1h,2023.2.3,MacIntel,60.24096386,65e67470ae2fbf2172c317b2,65e890bdf98eca7a2d3ad4f9,,,,,,,,,,,291.9539,1,292.9532,292.9532,293.8366,left,0,0.8701,,293.8367,294.8364,3,0,48,4,1,total,1,images/Ex13.jpg,right,training,hard,4,,,,,
,,,,,5d696d1c55742f001af29220,001,22,Female,British,A-Levels,2024-03-06_15h50.43.658,CRL1h,2023.2.3,MacIntel,60.24096386,65e67470ae2fbf2172c317b2,65e890bdf98eca7a2d3ad4f9,,,,,,,,,,,294.8371,1,295.8366,295.8367,296.9196,right,1,1.0697,,296.9196,297.9198,3,1,49,5,1,total,1,images/Ex14.jpg,right,training,hard,4,,,,,
,,,,,5d696d1c55742f001af29220,001,22,Female,British,A-Levels,2024-03-06_15h50.43.658,CRL1h,2023.2.3,MacIntel,60.24096386,65e67470ae2fbf2172c317b2,65e890bdf98eca7a2d3ad4f9,,,,,,,,,,,297.9205,1,298.9198,298.9198,299.7533,left,1,0.8198,,299.7534,300.7531,3,2,50,9,1,total,1,images/Ex10.jpg,left,training,hard,4,,,,,
,,,,,5d696d1c55742f001af29220,001,22,Female,British,A-Levels,2024-03-06_15h50.43.658,CRL1h,2023.2.3,MacIntel,60.24096386,65e67470ae2fbf2172c317b2,65e890bdf98eca7a2d3ad4f9,,,,,,,,,,,300.7538,1.1,301.8531,301.8532,302.5866,right,1,0.7202,,302.5866,303.5861,3,3,51,7,1,total,1,images/Ex16.jpg,right,training,hard,4,,,,,
,,,,,5d696d1c55742f001af29220,001,22,Female,British,A-Levels,2024-03-06_15h50.43.658,CRL1h,2023.2.3,MacIntel,60.24096386,65e67470ae2fbf2172c317b2,65e890bdf98eca7a2d3ad4f9,,,,,,,,,,,303.5866,0.6,304.1866,304.1867,305.02,left,1,0.8197,,305.02,306.0199,3,4,52,10,1,total,1,images/Ex11.jpg,left,training,hard,4,,,,,
,,,,,5d696d1c55742f001af29220,001,22,Female,British,A-Levels,2024-03-06_15h50.43.658,CRL1h,2023.2.3,MacIntel,60.24096386,65e67470ae2fbf2172c317b2,65e890bdf98eca7a2d3ad4f9,,,,,,,,,,,306.0207,1.3,307.3199,307.32,309.0866,right,0,1.753,,309.0867,310.0867,3,5,53,1,1,total,1,images/Ex10.jpg,left,training,hard,4,,,,,
,,,,,5d696d1c55742f001af29220,001,22,Female,British,A-Levels,2024-03-06_15h50.43.658,CRL1h,2023.2.3,MacIntel,60.24096386,65e67470ae2fbf2172c317b2,65e890bdf98eca7a2d3ad4f9,,,,,,,,,,,310.0873,1,311.0866,311.0866,312.1368,right,0,1.0366,,312.1368,313.1368,3,6,54,3,1,total,1,images/Ex12.jpg,left,training,hard,4,,,,,
,,,,,5d696d1c55742f001af29220,001,22,Female,British,A-Levels,2024-03-06_15h50.43.658,CRL1h,2023.2.3,MacIntel,60.24096386,65e67470ae2fbf2172c317b2,65e890bdf98eca7a2d3ad4f9,,,,,,,,,,,313.1375,0.8,313.9356,313.9356,315.4534,left,1,1.516,,315.4535,316.4523,3,7,55,0,1,total,1,images/Ex9.jpg,left,training,hard,4,,,,,
,,,,,5d696d1c55742f001af29220,001,22,Female,British,A-Levels,2024-03-06_15h50.43.658,CRL1h,2023.2.3,MacIntel,60.24096386,65e67470ae2fbf2172c317b2,65e890bdf98eca7a2d3ad4f9,,,,,,,,,,,316.4529,0.7,317.1533,317.1533,318.5702,right,1,1.4034,,318.5703,319.5699,3,8,56,13,1,total,1,images/Ex14.jpg,right,training,hard,4,,,,,
,,,,,5d696d1c55742f001af29220,001,22,Female,British,A-Levels,2024-03-06_15h50.43.658,CRL1h,2023.2.3,MacIntel,60.24096386,65e67470ae2fbf2172c317b2,65e890bdf98eca7a2d3ad4f9,,,,,,,,,,,319.5706,1,320.57,320.5701,321.4192,left,0,0.8382,,321.4193,322.4201,3,9,57,6,1,total,1,images/Ex15.jpg,right,training,hard,4,,,,,
,,,,,5d696d1c55742f001af29220,001,22,Female,British,A-Levels,2024-03-06_15h50.43.658,CRL1h,2023.2.3,MacIntel,60.24096386,65e67470ae2fbf2172c317b2,65e890bdf98eca7a2d3ad4f9,,,,,,,,,,,322.4207,0.7,323.1191,323.1191,323.6203,left,0,0.487,,323.6203,324.6201,3,10,58,15,1,total,1,images/Ex16.jpg,right,training,hard,4,,,,,
,,,,,5d696d1c55742f001af29220,001,22,Female,British,A-Levels,2024-03-06_15h50.43.658,CRL1h,2023.2.3,MacIntel,60.24096386,65e67470ae2fbf2172c317b2,65e890bdf98eca7a2d3ad4f9,,,,,,,,,,,324.6208,1.2,325.82,325.8201,326.7535,left,1,0.9205,,326.7536,327.7534,3,11,59,8,1,total,1,images/Ex9.jpg,left,training,hard,4,,,,,
,,,,,5d696d1c55742f001af29220,001,22,Female,British,A-Levels,2024-03-06_15h50.43.658,CRL1h,2023.2.3,MacIntel,60.24096386,65e67470ae2fbf2172c317b2,65e890bdf98eca7a2d3ad4f9,,,,,,,,,,,327.7541,1.1,328.8534,328.8535,329.7532,right,0,0.8964,,329.7533,330.7535,3,12,60,2,1,total,1,images/Ex11.jpg,left,training,hard,4,,,,,
,,,,,5d696d1c55742f001af29220,001,22,Female,British,A-Levels,2024-03-06_15h50.43.658,CRL1h,2023.2.3,MacIntel,60.24096386,65e67470ae2fbf2172c317b2,65e890bdf98eca7a2d3ad4f9,,,,,,,,,,,330.7543,1.4,332.1537,332.1538,334.0692,right,0,1.9029,,334.0693,335.0702,3,13,61,11,1,total,1,images/Ex12.jpg,left,training,hard,4,,,,,
,,,,,5d696d1c55742f001af29220,001,22,Female,British,A-Levels,2024-03-06_15h50.43.658,CRL1h,2023.2.3,MacIntel,60.24096386,65e67470ae2fbf2172c317b2,65e890bdf98eca7a2d3ad4f9,,,,,,,,,,,335.0799,1.4,336.4701,336.4701,337.4034,right,1,0.9202,,337.4035,338.4035,3,14,62,12,1,total,1,images/Ex13.jpg,right,training,hard,4,,,,,
,,,,,5d696d1c55742f001af29220,001,22,Female,British,A-Levels,2024-03-06_15h50.43.658,CRL1h,2023.2.3,MacIntel,60.24096386,65e67470ae2fbf2172c317b2,65e890bdf98eca7a2d3ad4f9,,,,,,,,,,,338.4041,1.2,339.6025,339.6025,340.4034,left,0,0.7875,,340.4035,341.4037,3,15,63,14,1,total,1,images/Ex15.jpg,right,training,hard,4,,,,,
,,,,,5d696d1c55742f001af29220,001,22,Female,British,A-Levels,2024-03-06_15h50.43.658,CRL1h,2023.2.3,MacIntel,60.24096386,65e67470ae2fbf2172c317b2,65e890bdf98eca7a2d3ad4f9,,,,,,,,,,,341.4044,1.1,342.5034,342.5035,343.7693,left,1,1.2585,,343.7694,344.7703,4,0,64,3,1,total,1,images/Ex12.jpg,left,training,hard,4,,,,,
,,,,,5d696d1c55742f001af29220,001,22,Female,British,A-Levels,2024-03-06_15h50.43.658,CRL1h,2023.2.3,MacIntel,60.24096386,65e67470ae2fbf2172c317b2,65e890bdf98eca7a2d3ad4f9,,,,,,,,,,,344.771,1.4,346.1701,346.1701,347.637,right,0,1.4534,,347.6371,348.6368,4,1,65,10,1,total,1,images/Ex11.jpg,left,training,hard,4,,,,,
,,,,,5d696d1c55742f001af29220,001,22,Female,British,A-Levels,2024-03-06_15h50.43.658,CRL1h,2023.2.3,MacIntel,60.24096386,65e67470ae2fbf2172c317b2,65e890bdf98eca7a2d3ad4f9,,,,,,,,,,,348.6375,1.2,349.8369,349.8369,351.1194,right,1,1.2749,,351.1195,352.1195,4,2,66,14,1,total,1,images/Ex15.jpg,right,training,hard,4,,,,,
,,,,,5d696d1c55742f001af29220,001,22,Female,British,A-Levels,2024-03-06_15h50.43.658,CRL1h,2023.2.3,MacIntel,60.24096386,65e67470ae2fbf2172c317b2,65e890bdf98eca7a2d3ad4f9,,,,,,,,,,,352.1202,1,353.1201,353.1202,353.9537,left,1,0.8199,,353.9538,354.9535,4,3,67,8,1,total,1,images/Ex9.jpg,left,training,hard,4,,,,,
,,,,,5d696d1c55742f001af29220,001,22,Female,British,A-Levels,2024-03-06_15h50.43.658,CRL1h,2023.2.3,MacIntel,60.24096386,65e67470ae2fbf2172c317b2,65e890bdf98eca7a2d3ad4f9,,,,,,,,,,,354.9544,1.1,356.0536,356.0536,356.5538,left,1,0.486,,356.5538,357.5536,4,4,68,0,1,total,1,images/Ex9.jpg,left,training,hard,4,,,,,
,,,,,5d696d1c55742f001af29220,001,22,Female,British,A-Levels,2024-03-06_15h50.43.658,CRL1h,2023.2.3,MacIntel,60.24096386,65e67470ae2fbf2172c317b2,65e890bdf98eca7a2d3ad4f9,,,,,,,,,,,357.5543,0.5,358.0536,358.0537,358.4535,left,0,0.3859,,358.4536,359.4532,4,5,69,4,1,total,1,images/Ex13.jpg,right,training,hard,4,,,,,
,,,,,5d696d1c55742f001af29220,001,22,Female,British,A-Levels,2024-03-06_15h50.43.658,CRL1h,2023.2.3,MacIntel,60.24096386,65e67470ae2fbf2172c317b2,65e890bdf98eca7a2d3ad4f9,,,,,,,,,,,359.4539,0.6,360.0535,360.0537,360.9194,left,1,0.8535,,360.9195,361.9203,4,6,70,2,1,total,1,images/Ex11.jpg,left,training,hard,4,,,,,
,,,,,5d696d1c55742f001af29220,001,22,Female,British,A-Levels,2024-03-06_15h50.43.658,CRL1h,2023.2.3,MacIntel,60.24096386,65e67470ae2fbf2172c317b2,65e890bdf98eca7a2d3ad4f9,,,,,,,,,,,361.921,0.6,362.5196,362.5197,364.3537,left,1,1.8245,,364.3539,365.3539,4,7,71,9,1,total,1,images/Ex10.jpg,left,training,hard,4,,,,,
,,,,,5d696d1c55742f001af29220,001,22,Female,British,A-Levels,2024-03-06_15h50.43.658,CRL1h,2023.2.3,MacIntel,60.24096386,65e67470ae2fbf2172c317b2,65e890bdf98eca7a2d3ad4f9,,,,,,,,,,,365.3647,1.3,366.6536,366.6537,367.2037,left,1,0.5403,,367.2038,368.2037,4,8,72,1,1,total,1,images/Ex10.jpg,left,training,hard,4,,,,,
,,,,,5d696d1c55742f001af29220,001,22,Female,British,A-Levels,2024-03-06_15h50.43.658,CRL1h,2023.2.3,MacIntel,60.24096386,65e67470ae2fbf2172c317b2,65e890bdf98eca7a2d3ad4f9,,,,,,,,,,,368.2044,0.8,369.0027,369.0028,369.6871,right,1,0.6712,,369.6871,370.6869,4,9,73,15,1,total,1,images/Ex16.jpg,right,training,hard,4,,,,,
,,,,,5d696d1c55742f001af29220,001,22,Female,British,A-Levels,2024-03-06_15h50.43.658,CRL1h,2023.2.3,MacIntel,60.24096386,65e67470ae2fbf2172c317b2,65e890bdf98eca7a2d3ad4f9,,,,,,,,,,,370.6876,0.8,371.487,371.487,372.2372,right,1,0.7367,,372.2373,373.2371,4,10,74,13,1,total,1,images/Ex14.jpg,right,training,hard,4,,,,,
,,,,,5d696d1c55742f001af29220,001,22,Female,British,A-Levels,2024-03-06_15h50.43.658,CRL1h,2023.2.3,MacIntel,60.24096386,65e67470ae2fbf2172c317b2,65e890bdf98eca7a2d3ad4f9,,,,,,,,,,,373.2377,1.2,374.4371,374.4372,375.3707,right,0,0.9199,,375.3708,376.3705,4,11,75,11,1,total,1,images/Ex12.jpg,left,training,hard,4,,,,,
,,,,,5d696d1c55742f001af29220,001,22,Female,British,A-Levels,2024-03-06_15h50.43.658,CRL1h,2023.2.3,MacIntel,60.24096386,65e67470ae2fbf2172c317b2,65e890bdf98eca7a2d3ad4f9,,,,,,,,,,,376.3712,0.6,376.9704,376.9705,377.6043,right,1,0.62,,377.6043,378.6038,4,12,76,7,1,total,1,images/Ex16.jpg,right,training,hard,4,,,,,
,,,,,5d696d1c55742f001af29220,001,22,Female,British,A-Levels,2024-03-06_15h50.43.658,CRL1h,2023.2.3,MacIntel,60.24096386,65e67470ae2fbf2172c317b2,65e890bdf98eca7a2d3ad4f9,,,,,,,,,,,378.6046,1.1,379.7039,379.7039,380.7204,left,0,1.0133,,380.7205,381.7194,4,13,77,5,1,total,1,images/Ex14.jpg,right,training,hard,4,,,,,
,,,,,5d696d1c55742f001af29220,001,22,Female,British,A-Levels,2024-03-06_15h50.43.658,CRL1h,2023.2.3,MacIntel,60.24096386,65e67470ae2fbf2172c317b2,65e890bdf98eca7a2d3ad4f9,,,,,,,,,,,381.72,0.7,382.4205,382.4205,383.5372,right,1,1.1069,,383.5373,384.5371,4,14,78,6,1,total,1,images/Ex15.jpg,right,training,hard,4,,,,,
,,,,,5d696d1c55742f001af29220,001,22,Female,British,A-Levels,2024-03-06_15h50.43.658,CRL1h,2023.2.3,MacIntel,60.24096386,65e67470ae2fbf2172c317b2,65e890bdf98eca7a2d3ad4f9,,,,,,,,,,,384.5379,1.1,385.637,385.6372,386.2541,right,1,0.6031,,386.2543,387.2542,4,15,79,12,1,total,1,images/Ex13.jpg,right,training,hard,4,,,,,
,,,,,5d696d1c55742f001af29220,001,22,Female,British,A-Levels,2024-03-06_15h50.43.658,CRL1h,2023.2.3,MacIntel,60.24096386,65e67470ae2fbf2172c317b2,65e890bdf98eca7a2d3ad4f9,,,,,,,,,,,387.255,0.6,387.8539,387.854,388.7874,left,1,0.9196,,388.7874,389.7872,5,0,80,2,1,total,1,images/Ex11.jpg,left,training,hard,4,,,,,
,,,,,5d696d1c55742f001af29220,001,22,Female,British,A-Levels,2024-03-06_15h50.43.658,CRL1h,2023.2.3,MacIntel,60.24096386,65e67470ae2fbf2172c317b2,65e890bdf98eca7a2d3ad4f9,,,,,,,,,,,389.7877,0.9,390.6875,390.6875,391.3031,left,0,0.604,,391.3031,392.3039,5,1,81,6,1,total,1,images/Ex15.jpg,right,training,hard,4,,,,,
,,,,,5d696d1c55742f001af29220,001,22,Female,British,A-Levels,2024-03-06_15h50.43.658,CRL1h,2023.2.3,MacIntel,60.24096386,65e67470ae2fbf2172c317b2,65e890bdf98eca7a2d3ad4f9,,,,,,,,,,,392.3047,0.8,393.1039,393.104,394.0374,left,1,0.9198,,394.0375,395.0372,5,2,82,1,1,total,1,images/Ex10.jpg,left,training,hard,4,,,,,
,,,,,5d696d1c55742f001af29220,001,22,Female,British,A-Levels,2024-03-06_15h50.43.658,CRL1h,2023.2.3,MacIntel,60.24096386,65e67470ae2fbf2172c317b2,65e890bdf98eca7a2d3ad4f9,,,,,,,,,,,395.0381,1,396.0372,396.0373,396.9875,right,0,0.9379,,396.9876,397.9871,5,3,83,10,1,total,1,images/Ex11.jpg,left,training,hard,4,,,,,
,,,,,5d696d1c55742f001af29220,001,22,Female,British,A-Levels,2024-03-06_15h50.43.658,CRL1h,2023.2.3,MacIntel,60.24096386,65e67470ae2fbf2172c317b2,65e890bdf98eca7a2d3ad4f9,,,,,,,,,,,397.9879,0.7,398.6863,398.6863,400.254,right,0,1.5543,,400.2542,401.254,5,4,84,3,1,total,1,images/Ex12.jpg,left,training,hard,4,,,,,
,,,,,5d696d1c55742f001af29220,001,22,Female,British,A-Levels,2024-03-06_15h50.43.658,CRL1h,2023.2.3,MacIntel,60.24096386,65e67470ae2fbf2172c317b2,65e890bdf98eca7a2d3ad4f9,,,,,,,,,,,401.2657,0.6,401.8538,401.8538,402.7207,right,1,0.8538,,402.7208,403.7206,5,5,85,4,1,total,1,images/Ex13.jpg,right,training,hard,4,,,,,
,,,,,5d696d1c55742f001af29220,001,22,Female,British,A-Levels,2024-03-06_15h50.43.658,CRL1h,2023.2.3,MacIntel,60.24096386,65e67470ae2fbf2172c317b2,65e890bdf98eca7a2d3ad4f9,,,,,,,,,,,403.7212,1.1,404.82,404.8201,405.4041,left,0,0.5709,,405.4042,406.404,5,6,86,14,1,total,1,images/Ex15.jpg,right,training,hard,4,,,,,
,,,,,5d696d1c55742f001af29220,001,22,Female,British,A-Levels,2024-03-06_15h50.43.658,CRL1h,2023.2.3,MacIntel,60.24096386,65e67470ae2fbf2172c317b2,65e890bdf98eca7a2d3ad4f9,,,,,,,,,,,406.4046,0.6,407.004,407.004,408.6042,right,1,1.5988,,408.6043,409.6039,5,7,87,5,1,total,1,images/Ex14.jpg,right,training,hard,4,,,,,
,,,,,5d696d1c55742f001af29220,001,22,Female,British,A-Levels,2024-03-06_15h50.43.658,CRL1h,2023.2.3,MacIntel,60.24096386,65e67470ae2fbf2172c317b2,65e890bdf98eca7a2d3ad4f9,,,,,,,,,,,409.614,1.1,410.7039,410.7039,411.204,right,1,0.4915,,411.204,412.204,5,8,88,13,1,total,1,images/Ex14.jpg,right,training,hard,4,,,,,
,,,,,5d696d1c55742f001af29220,001,22,Female,British,A-Levels,2024-03-06_15h50.43.658,CRL1h,2023.2.3,MacIntel,60.24096386,65e67470ae2fbf2172c317b2,65e890bdf98eca7a2d3ad4f9,,,,,,,,,,,412.2047,0.7,412.904,412.904,414.0374,left,1,1.1202,,414.0374,415.0374,5,9,89,11,1,total,1,images/Ex12.jpg,left,training,hard,4,,,,,
,,,,,5d696d1c55742f001af29220,001,22,Female,British,A-Levels,2024-03-06_15h50.43.658,CRL1h,2023.2.3,MacIntel,60.24096386,65e67470ae2fbf2172c317b2,65e890bdf98eca7a2d3ad4f9,,,,,,,,,,,415.0381,0.6,415.6373,415.6374,416.421,left,1,0.7702,,416.421,417.4207,5,10,90,8,1,total,1,images/Ex9.jpg,left,training,hard,4,,,,,
,,,,,5d696d1c55742f001af29220,001,22,Female,British,A-Levels,2024-03-06_15h50.43.658,CRL1h,2023.2.3,MacIntel,60.24096386,65e67470ae2fbf2172c317b2,65e890bdf98eca7a2d3ad4f9,,,,,,,,,,,417.4213,1,418.4206,418.4208,419.4542,left,1,1.0189,,419.4542,420.454,5,11,91,9,1,total,1,images/Ex10.jpg,left,training,hard,4,,,,,
,,,,,5d696d1c55742f001af29220,001,22,Female,British,A-Levels,2024-03-06_15h50.43.658,CRL1h,2023.2.3,MacIntel,60.24096386,65e67470ae2fbf2172c317b2,65e890bdf98eca7a2d3ad4f9,,,,,,,,,,,420.4547,0.8,421.254,421.2541,422.0041,right,1,0.737,,422.0042,423.0041,5,12,92,12,1,total,1,images/Ex13.jpg,right,training,hard,4,,,,,
,,,,,5d696d1c55742f001af29220,001,22,Female,British,A-Levels,2024-03-06_15h50.43.658,CRL1h,2023.2.3,MacIntel,60.24096386,65e67470ae2fbf2172c317b2,65e890bdf98eca7a2d3ad4f9,,,,,,,,,,,423.0049,1,424.004,424.0041,424.7042,left,1,0.6905,,424.7042,425.7041,5,13,93,0,1,total,1,images/Ex9.jpg,left,training,hard,4,,,,,
,,,,,5d696d1c55742f001af29220,001,22,Female,British,A-Levels,2024-03-06_15h50.43.658,CRL1h,2023.2.3,MacIntel,60.24096386,65e67470ae2fbf2172c317b2,65e890bdf98eca7a2d3ad4f9,,,,,,,,,,,425.7049,0.9,426.6041,426.6041,427.3709,right,1,0.7533,,427.371,428.3698,5,14,94,15,1,total,1,images/Ex16.jpg,right,training,hard,4,,,,,
,,,,,5d696d1c55742f001af29220,001,22,Female,British,A-Levels,2024-03-06_15h50.43.658,CRL1h,2023.2.3,MacIntel,60.24096386,65e67470ae2fbf2172c317b2,65e890bdf98eca7a2d3ad4f9,,,,,,,,,,,428.3705,1.1,429.4708,429.4708,430.0542,right,1,0.5706,,430.0543,431.0541,5,15,95,7,1,total,1,images/Ex16.jpg,right,training,hard,4,,,,,
,,,,,5d696d1c55742f001af29220,001,22,Female,British,A-Levels,2024-03-06_15h50.43.658,CRL1h,2023.2.3,MacIntel,60.24096386,65e67470ae2fbf2172c317b2,65e890bdf98eca7a2d3ad4f9,,,,,,,,,,,431.0548,1.2,432.2532,432.2532,432.9542,left,1,0.6931,,432.9543,433.9541,6,0,96,0,1,total,1,images/Ex9.jpg,left,training,hard,4,,,,,
,,,,,5d696d1c55742f001af29220,001,22,Female,British,A-Levels,2024-03-06_15h50.43.658,CRL1h,2023.2.3,MacIntel,60.24096386,65e67470ae2fbf2172c317b2,65e890bdf98eca7a2d3ad4f9,,,,,,,,,,,433.9548,1.3,435.2531,435.2532,436.3376,left,0,1.0766,,436.3376,437.3375,6,1,97,14,1,total,1,images/Ex15.jpg,right,training,hard,4,,,,,
,,,,,5d696d1c55742f001af29220,001,22,Female,British,A-Levels,2024-03-06_15h50.43.658,CRL1h,2023.2.3,MacIntel,60.24096386,65e67470ae2fbf2172c317b2,65e890bdf98eca7a2d3ad4f9,,,,,,,,,,,437.3381,0.6,437.9374,437.9375,438.9876,right,1,1.0397,,438.9876,439.9866,6,2,98,13,1,total,1,images/Ex14.jpg,right,training,hard,4,,,,,
,,,,,5d696d1c55742f001af29220,001,22,Female,British,A-Levels,2024-03-06_15h50.43.658,CRL1h,2023.2.3,MacIntel,60.24096386,65e67470ae2fbf2172c317b2,65e890bdf98eca7a2d3ad4f9,,,,,,,,,,,439.9872,1.1,441.0876,441.0876,441.67,right,1,0.5696,,441.6701,442.6709,6,3,99,15,1,total,1,images/Ex16.jpg,right,training,hard,4,,,,,
,,,,,5d696d1c55742f001af29220,001,22,Female,British,A-Levels,2024-03-06_15h50.43.658,CRL1h,2023.2.3,MacIntel,60.24096386,65e67470ae2fbf2172c317b2,65e890bdf98eca7a2d3ad4f9,,,,,,,,,,,442.6716,0.7,443.3709,443.3709,444.5543,left,1,1.17,,444.5543,445.5542,6,4,100,1,1,total,1,images/Ex10.jpg,left,training,hard,4,,,,,
,,,,,5d696d1c55742f001af29220,001,22,Female,British,A-Levels,2024-03-06_15h50.43.658,CRL1h,2023.2.3,MacIntel,60.24096386,65e67470ae2fbf2172c317b2,65e890bdf98eca7a2d3ad4f9,,,,,,,,,,,445.5549,1.4,446.9542,446.9543,447.6368,right,1,0.6728,,447.6368,448.6376,6,5,101,7,1,total,1,images/Ex16.jpg,right,training,hard,4,,,,,
,,,,,5d696d1c55742f001af29220,001,22,Female,British,A-Levels,2024-03-06_15h50.43.658,CRL1h,2023.2.3,MacIntel,60.24096386,65e67470ae2fbf2172c317b2,65e890bdf98eca7a2d3ad4f9,,,,,,,,,,,448.6383,0.8,449.4373,449.4373,450.2711,left,1,0.8245,,450.2712,451.271,6,6,102,11,1,total,1,images/Ex12.jpg,left,training,hard,4,,,,,
,,,,,5d696d1c55742f001af29220,001,22,Female,British,A-Levels,2024-03-06_15h50.43.658,CRL1h,2023.2.3,MacIntel,60.24096386,65e67470ae2fbf2172c317b2,65e890bdf98eca7a2d3ad4f9,,,,,,,,,,,451.2717,1.1,452.3711,452.3711,452.9544,left,1,0.5696,,452.9545,453.954,6,7,103,8,1,total,1,images/Ex9.jpg,left,training,hard,4,,,,,
,,,,,5d696d1c55742f001af29220,001,22,Female,British,A-Levels,2024-03-06_15h50.43.658,CRL1h,2023.2.3,MacIntel,60.24096386,65e67470ae2fbf2172c317b2,65e890bdf98eca7a2d3ad4f9,,,,,,,,,,,453.9548,1.4,455.3541,455.3543,456.2377,right,1,0.8714,,456.2378,457.2377,6,8,104,5,1,total,1,images/Ex14.jpg,right,training,hard,4,,,,,
,,,,,5d696d1c55742f001af29220,001,22,Female,British,A-Levels,2024-03-06_15h50.43.658,CRL1h,2023.2.3,MacIntel,60.24096386,65e67470ae2fbf2172c317b2,65e890bdf98eca7a2d3ad4f9,,,,,,,,,,,457.2385,1.4,458.638,458.6381,459.6044,right,0,0.9566,,459.6045,460.6043,6,9,105,10,1,total,1,images/Ex11.jpg,left,training,hard,4,,,,,
,,,,,5d696d1c55742f001af29220,001,22,Female,British,A-Levels,2024-03-06_15h50.43.658,CRL1h,2023.2.3,MacIntel,60.24096386,65e67470ae2fbf2172c317b2,65e890bdf98eca7a2d3ad4f9,,,,,,,,,,,460.605,0.8,461.4044,461.4044,462.1711,right,1,0.7648,,462.1711,463.1705,6,10,106,6,1,total,1,images/Ex15.jpg,right,training,hard,4,,,,,
,,,,,5d696d1c55742f001af29220,001,22,Female,British,A-Levels,2024-03-06_15h50.43.658,CRL1h,2023.2.3,MacIntel,60.24096386,65e67470ae2fbf2172c317b2,65e890bdf98eca7a2d3ad4f9,,,,,,,,,,,463.1712,0.8,463.9699,463.97,465.5213,right,1,1.5372,,465.5213,466.5211,6,11,107,12,1,total,1,images/Ex13.jpg,right,training,hard,4,,,,,
,,,,,5d696d1c55742f001af29220,001,22,Female,British,A-Levels,2024-03-06_15h50.43.658,CRL1h,2023.2.3,MacIntel,60.24096386,65e67470ae2fbf2172c317b2,65e890bdf98eca7a2d3ad4f9,,,,,,,,,,,466.5219,1.1,467.6211,467.6211,468.488,left,1,0.8538,,468.4881,469.4874,6,12,108,3,1,total,1,images/Ex12.jpg,left,training,hard,4,,,,,
,,,,,5d696d1c55742f001af29220,001,22,Female,British,A-Levels,2024-03-06_15h50.43.658,CRL1h,2023.2.3,MacIntel,60.24096386,65e67470ae2fbf2172c317b2,65e890bdf98eca7a2d3ad4f9,,,,,,,,,,,469.4878,1.1,470.5877,470.5878,471.4036,right,1,0.8037,,471.4037,472.4045,6,13,109,4,1,total,1,images/Ex13.jpg,right,training,hard,4,,,,,
,,,,,5d696d1c55742f001af29220,001,22,Female,British,A-Levels,2024-03-06_15h50.43.658,CRL1h,2023.2.3,MacIntel,60.24096386,65e67470ae2fbf2172c317b2,65e890bdf98eca7a2d3ad4f9,,,,,,,,,,,472.4052,0.9,473.3042,473.3042,474.4546,right,0,1.1392,,474.4547,475.4535,6,14,110,2,1,total,1,images/Ex11.jpg,left,training,hard,4,,,,,
,,,,,5d696d1c55742f001af29220,001,22,Female,British,A-Levels,2024-03-06_15h50.43.658,CRL1h,2023.2.3,MacIntel,60.24096386,65e67470ae2fbf2172c317b2,65e890bdf98eca7a2d3ad4f9,,,,,,,,,,,475.4541,1.1,476.5545,476.5546,477.3879,left,1,0.8197,,477.388,478.3878,6,15,111,9,1,total,1,images/Ex10.jpg,left,training,hard,4,,,,,
,,,,,5d696d1c55742f001af29220,001,22,Female,British,A-Levels,2024-03-06_15h50.43.658,CRL1h,2023.2.3,MacIntel,60.24096386,65e67470ae2fbf2172c317b2,65e890bdf98eca7a2d3ad4f9,,,,,,,,,,,478.3884,0.7,479.0878,479.0878,480.1213,left,1,1.0229,,480.1213,481.1212,7,0,112,11,1,total,1,images/Ex12.jpg,left,training,hard,4,,,,,
,,,,,5d696d1c55742f001af29220,001,22,Female,British,A-Levels,2024-03-06_15h50.43.658,CRL1h,2023.2.3,MacIntel,60.24096386,65e67470ae2fbf2172c317b2,65e890bdf98eca7a2d3ad4f9,,,,,,,,,,,481.1218,1.4,482.5211,482.5212,483.1547,left,1,0.6205,,483.1547,484.1546,7,1,113,8,1,total,1,images/Ex9.jpg,left,training,hard,4,,,,,
,,,,,5d696d1c55742f001af29220,001,22,Female,British,A-Levels,2024-03-06_15h50.43.658,CRL1h,2023.2.3,MacIntel,60.24096386,65e67470ae2fbf2172c317b2,65e890bdf98eca7a2d3ad4f9,,,,,,,,,,,484.1552,1.3,485.4536,485.4536,486.438,left,1,0.9708,,486.438,487.4379,7,2,114,2,1,total,1,images/Ex11.jpg,left,training,hard,4,,,,,
,,,,,5d696d1c55742f001af29220,001,22,Female,British,A-Levels,2024-03-06_15h50.43.658,CRL1h,2023.2.3,MacIntel,60.24096386,65e67470ae2fbf2172c317b2,65e890bdf98eca7a2d3ad4f9,,,,,,,,,,,487.4387,1,488.4378,488.4379,489.0214,right,1,0.572,,489.0215,490.0212,7,3,115,6,1,total,1,images/Ex15.jpg,right,training,hard,4,,,,,
,,,,,5d696d1c55742f001af29220,001,22,Female,British,A-Levels,2024-03-06_15h50.43.658,CRL1h,2023.2.3,MacIntel,60.24096386,65e67470ae2fbf2172c317b2,65e890bdf98eca7a2d3ad4f9,,,,,,,,,,,490.0218,0.6,490.6212,490.6213,491.2213,right,1,0.5904,,491.2213,492.2212,7,4,116,4,1,total,1,images/Ex13.jpg,right,training,hard,4,,,,,
,,,,,5d696d1c55742f001af29220,001,22,Female,British,A-Levels,2024-03-06_15h50.43.658,CRL1h,2023.2.3,MacIntel,60.24096386,65e67470ae2fbf2172c317b2,65e890bdf98eca7a2d3ad4f9,,,,,,,,,,,492.2219,1.5,493.7213,493.7213,495.3714,left,1,1.636,,495.3715,496.3716,7,5,117,1,1,total,1,images/Ex10.jpg,left,training,hard,4,,,,,
,,,,,5d696d1c55742f001af29220,001,22,Female,British,A-Levels,2024-03-06_15h50.43.658,CRL1h,2023.2.3,MacIntel,60.24096386,65e67470ae2fbf2172c317b2,65e890bdf98eca7a2d3ad4f9,,,,,,,,,,,496.3722,1.1,497.4703,497.4704,498.1538,right,1,0.6747,,498.1538,499.1546,7,6,118,12,1,total,1,images/Ex13.jpg,right,training,hard,4,,,,,
,,,,,5d696d1c55742f001af29220,001,22,Female,British,A-Levels,2024-03-06_15h50.43.658,CRL1h,2023.2.3,MacIntel,60.24096386,65e67470ae2fbf2172c317b2,65e890bdf98eca7a2d3ad4f9,,,,,,,,,,,499.1553,0.7,499.8546,499.8546,500.4713,right,1,0.6076,,500.4715,501.4713,7,7,119,7,1,total,1,images/Ex16.jpg,right,training,hard,4,,,,,
,,,,,5d696d1c55742f001af29220,001,22,Female,British,A-Levels,2024-03-06_15h50.43.658,CRL1h,2023.2.3,MacIntel,60.24096386,65e67470ae2fbf2172c317b2,65e890bdf98eca7a2d3ad4f9,,,,,,,,,,,501.4719,1.1,502.5712,502.5713,503.3047,right,1,0.72,,503.3047,504.3046,7,8,120,5,1,total,1,images/Ex14.jpg,right,training,hard,4,,,,,
,,,,,5d696d1c55742f001af29220,001,22,Female,British,A-Levels,2024-03-06_15h50.43.658,CRL1h,2023.2.3,MacIntel,60.24096386,65e67470ae2fbf2172c317b2,65e890bdf98eca7a2d3ad4f9,,,,,,,,,,,504.3053,1.4,505.7043,505.7044,507.4549,left,1,1.7371,,507.4549,508.455,7,9,121,10,1,total,1,images/Ex11.jpg,left,training,hard,4,,,,,
,,,,,5d696d1c55742f001af29220,001,22,Female,British,A-Levels,2024-03-06_15h50.43.658,CRL1h,2023.2.3,MacIntel,60.24096386,65e67470ae2fbf2172c317b2,65e890bdf98eca7a2d3ad4f9,,,,,,,,,,,508.4557,1,509.4547,509.4547,510.1381,left,1,0.6817,,510.1382,511.1379,7,10,122,3,1,total,1,images/Ex12.jpg,left,training,hard,4,,,,,
,,,,,5d696d1c55742f001af29220,001,22,Female,British,A-Levels,2024-03-06_15h50.43.658,CRL1h,2023.2.3,MacIntel,60.24096386,65e67470ae2fbf2172c317b2,65e890bdf98eca7a2d3ad4f9,,,,,,,,,,,511.1385,1,512.1381,512.1382,512.8548,left,1,0.7028,,512.8549,513.8541,7,11,123,0,1,total,1,images/Ex9.jpg,left,training,hard,4,,,,,
,,,,,5d696d1c55742f001af29220,001,22,Female,British,A-Levels,2024-03-06_15h50.43.658,CRL1h,2023.2.3,MacIntel,60.24096386,65e67470ae2fbf2172c317b2,65e890bdf98eca7a2d3ad4f9,,,,,,,,,,,513.8547,0.5,514.3548,514.3548,515.0882,right,1,0.7235,,515.0882,516.0875,7,12,124,13,1,total,1,images/Ex14.jpg,right,training,hard,4,,,,,
,,,,,5d696d1c55742f001af29220,001,22,Female,British,A-Levels,2024-03-06_15h50.43.658,CRL1h,2023.2.3,MacIntel,60.24096386,65e67470ae2fbf2172c317b2,65e890bdf98eca7a2d3ad4f9,,,,,,,,,,,516.0881,0.6,516.688,516.6881,517.3548,right,1,0.6582,,517.3549,518.3548,7,13,125,14,1,total,1,images/Ex15.jpg,right,training,hard,4,,,,,
,,,,,5d696d1c55742f001af29220,001,22,Female,British,A-Levels,2024-03-06_15h50.43.658,CRL1h,2023.2.3,MacIntel,60.24096386,65e67470ae2fbf2172c317b2,65e890bdf98eca7a2d3ad4f9,,,,,,,,,,,518.3555,1.1,519.4549,519.4549,519.9216,right,1,0.4528,,519.9217,520.9215,7,14,126,15,1,total,1,images/Ex16.jpg,right,training,hard,4,,,,,
,,,,,5d696d1c55742f001af29220,001,22,Female,British,A-Levels,2024-03-06_15h50.43.658,CRL1h,2023.2.3,MacIntel,60.24096386,65e67470ae2fbf2172c317b2,65e890bdf98eca7a2d3ad4f9,,,,,,,,,,,520.9222,0.6,521.5214,521.5215,522.205,left,1,0.6715,,522.205,523.2048,7,15,127,9,1,total,1,images/Ex10.jpg,left,training,hard,4,,,,,
,,,,,5d696d1c55742f001af29220,001,22,Female,British,A-Levels,2024-03-06_15h50.43.658,CRL1h,2023.2.3,MacIntel,60.24096386,65e67470ae2fbf2172c317b2,65e890bdf98eca7a2d3ad4f9,,,,,,,,,,,523.212,0.6,523.805,523.805,524.4716,right,0,0.6588,,524.4716,525.4715,0,0,0,12,1,total,2,images/Ex13.jpg,left,reversed,hard,4,,,,,
,,,,,5d696d1c55742f001af29220,001,22,Female,British,A-Levels,2024-03-06_15h50.43.658,CRL1h,2023.2.3,MacIntel,60.24096386,65e67470ae2fbf2172c317b2,65e890bdf98eca7a2d3ad4f9,,,,,,,,,,,525.4722,0.8,526.2714,526.2715,526.955,right,0,0.6702,,526.9551,527.9548,0,1,1,13,1,total,2,images/Ex14.jpg,left,reversed,hard,4,,,,,
,,,,,5d696d1c55742f001af29220,001,22,Female,British,A-Levels,2024-03-06_15h50.43.658,CRL1h,2023.2.3,MacIntel,60.24096386,65e67470ae2fbf2172c317b2,65e890bdf98eca7a2d3ad4f9,,,,,,,,,,,527.9555,0.5,528.4548,528.4549,529.2883,left,0,0.8202,,529.2884,530.2882,0,2,2,9,1,total,2,images/Ex10.jpg,right,reversed,hard,4,,,,,
,,,,,5d696d1c55742f001af29220,001,22,Female,British,A-Levels,2024-03-06_15h50.43.658,CRL1h,2023.2.3,MacIntel,60.24096386,65e67470ae2fbf2172c317b2,65e890bdf98eca7a2d3ad4f9,,,,,,,,,,,530.2889,0.7,530.9882,530.9882,532.8551,left,0,1.857,,532.8551,533.8548,0,3,3,11,1,total,2,images/Ex12.jpg,right,reversed,hard,4,,,,,
,,,,,5d696d1c55742f001af29220,001,22,Female,British,A-Levels,2024-03-06_15h50.43.658,CRL1h,2023.2.3,MacIntel,60.24096386,65e67470ae2fbf2172c317b2,65e890bdf98eca7a2d3ad4f9,,,,,,,,,,,533.8649,0.8,534.6548,534.6549,535.7717,right,1,1.1033,,535.7717,536.7715,0,4,4,2,1,total,2,images/Ex11.jpg,right,reversed,hard,4,,,,,
,,,,,5d696d1c55742f001af29220,001,22,Female,British,A-Levels,2024-03-06_15h50.43.658,CRL1h,2023.2.3,MacIntel,60.24096386,65e67470ae2fbf2172c317b2,65e890bdf98eca7a2d3ad4f9,,,,,,,,,,,536.7723,1.2,537.9716,537.9717,538.7384,right,1,0.7528,,538.7384,539.7383,0,5,5,8,1,total,2,images/Ex9.jpg,right,reversed,hard,4,,,,,
,,,,,5d696d1c55742f001af29220,001,22,Female,British,A-Levels,2024-03-06_15h50.43.658,CRL1h,2023.2.3,MacIntel,60.24096386,65e67470ae2fbf2172c317b2,65e890bdf98eca7a2d3ad4f9,,,,,,,,,,,539.7389,0.8,540.5383,540.5383,541.4383,right,0,0.8867,,541.4384,542.4382,0,6,6,15,1,total,2,images/Ex16.jpg,left,reversed,hard,4,,,,,
,,,,,5d696d1c55742f001af29220,001,22,Female,British,A-Levels,2024-03-06_15h50.43.658,CRL1h,2023.2.3,MacIntel,60.24096386,65e67470ae2fbf2172c317b2,65e890bdf98eca7a2d3ad4f9,,,,,,,,,,,542.439,0.9,543.3382,543.3383,544.9384,left,1,1.587,,544.9384,545.9383,0,7,7,6,1,total,2,images/Ex15.jpg,left,reversed,hard,4,,,,,
,,,,,5d696d1c55742f001af29220,001,22,Female,British,A-Levels,2024-03-06_15h50.43.658,CRL1h,2023.2.3,MacIntel,60.24096386,65e67470ae2fbf2172c317b2,65e890bdf98eca7a2d3ad4f9,,,,,,,,,,,545.939,0.8,546.7384,546.7384,547.5383,left,1,0.7869,,547.5384,548.5385,0,8,8,7,1,total,2,images/Ex16.jpg,left,reversed,hard,4,,,,,
,,,,,5d696d1c55742f001af29220,001,22,Female,British,A-Levels,2024-03-06_15h50.43.658,CRL1h,2023.2.3,MacIntel,60.24096386,65e67470ae2fbf2172c317b2,65e890bdf98eca7a2d3ad4f9,,,,,,,,,,,548.5391,1.4,549.9384,549.9384,550.8217,left,1,0.8698,,550.8217,551.8218,0,9,9,5,1,total,2,images/Ex14.jpg,left,reversed,hard,4,,,,,
,,,,,5d696d1c55742f001af29220,001,22,Female,British,A-Levels,2024-03-06_15h50.43.658,CRL1h,2023.2.3,MacIntel,60.24096386,65e67470ae2fbf2172c317b2,65e890bdf98eca7a2d3ad4f9,,,,,,,,,,,551.8225,1.1,552.9217,552.9218,553.8049,right,1,0.8746,,553.8049,554.805,0,10,10,1,1,total,2,images/Ex10.jpg,right,reversed,hard,4,,,,,
,,,,,5d696d1c55742f001af29220,001,22,Female,British,A-Levels,2024-03-06_15h50.43.658,CRL1h,2023.2.3,MacIntel,60.24096386,65e67470ae2fbf2172c317b2,65e890bdf98eca7a2d3ad4f9,,,,,,,,,,,554.8057,0.9,555.7045,555.7046,556.5885,right,1,0.8703,,556.5886,557.5883,0,11,11,0,1,total,2,images/Ex9.jpg,right,reversed,hard,4,,,,,
,,,,,5d696d1c55742f001af29220,001,22,Female,British,A-Levels,2024-03-06_15h50.43.658,CRL1h,2023.2.3,MacIntel,60.24096386,65e67470ae2fbf2172c317b2,65e890bdf98eca7a2d3ad4f9,,,,,,,,,,,557.5891,1.4,558.9884,558.9886,559.8884,right,0,0.8884,,559.8885,560.8885,0,12,12,14,1,total,2,images/Ex15.jpg,left,reversed,hard,4,,,,,
,,,,,5d696d1c55742f001af29220,001,22,Female,British,A-Levels,2024-03-06_15h50.43.658,CRL1h,2023.2.3,MacIntel,60.24096386,65e67470ae2fbf2172c317b2,65e890bdf98eca7a2d3ad4f9,,,,,,,,,,,560.8893,1.1,561.9884,561.9884,563.2386,right,0,1.2368,,563.2386,564.2385,0,13,13,4,1,total,2,images/Ex13.jpg,left,reversed,hard,4,,,,,
,,,,,5d696d1c55742f001af29220,001,22,Female,British,A-Levels,2024-03-06_15h50.43.658,CRL1h,2023.2.3,MacIntel,60.24096386,65e67470ae2fbf2172c317b2,65e890bdf98eca7a2d3ad4f9,,,,,,,,,,,564.2392,1.4,565.6385,565.6385,566.7542,right,1,1.1031,,566.7542,567.7551,0,14,14,3,1,total,2,images/Ex12.jpg,right,reversed,hard,4,,,,,
,,,,,5d696d1c55742f001af29220,001,22,Female,British,A-Levels,2024-03-06_15h50.43.658,CRL1h,2023.2.3,MacIntel,60.24096386,65e67470ae2fbf2172c317b2,65e890bdf98eca7a2d3ad4f9,,,,,,,,,,,567.7559,1.5,569.2551,569.2552,571.5552,left,0,2.2917,,571.5552,572.5552,0,15,15,10,1,total,2,images/Ex11.jpg,right,reversed,hard,4,,,,,
,,,,,5d696d1c55742f001af29220,001,22,Female,British,A-Levels,2024-03-06_15h50.43.658,CRL1h,2023.2.3,MacIntel,60.24096386,65e67470ae2fbf2172c317b2,65e890bdf98eca7a2d3ad4f9,,,,,,,,,,,572.5558,1.3,573.8552,573.8553,575.5719,left,1,1.7076,,575.5719,576.5718,1,0,16,5,1,total,2,images/Ex14.jpg,left,reversed,hard,4,,,,,
,,,,,5d696d1c55742f001af29220,001,22,Female,British,A-Levels,2024-03-06_15h50.43.658,CRL1h,2023.2.3,MacIntel,60.24096386,65e67470ae2fbf2172c317b2,65e890bdf98eca7a2d3ad4f9,,,,,,,,,,,576.5725,1.1,577.6719,577.6719,578.4052,left,1,0.7202,,578.4053,579.4052,1,1,17,4,1,total,2,images/Ex13.jpg,left,reversed,hard,4,,,,,
,,,,,5d696d1c55742f001af29220,001,22,Female,British,A-Levels,2024-03-06_15h50.43.658,CRL1h,2023.2.3,MacIntel,60.24096386,65e67470ae2fbf2172c317b2,65e890bdf98eca7a2d3ad4f9,,,,,,,,,,,579.4059,1.1,580.5052,580.5052,581.1211,left,0,0.6133,,581.1212,582.1219,1,2,18,8,1,total,2,images/Ex9.jpg,right,reversed,hard,4,,,,,
,,,,,5d696d1c55742f001af29220,001,22,Female,British,A-Levels,2024-03-06_15h50.43.658,CRL1h,2023.2.3,MacIntel,60.24096386,65e67470ae2fbf2172c317b2,65e890bdf98eca7a2d3ad4f9,,,,,,,,,,,582.1226,0.8,582.9221,582.9222,583.872,left,0,0.9484,,583.872,584.8719,1,3,19,1,1,total,2,images/Ex10.jpg,right,reversed,hard,4,,,,,
,,,,,5d696d1c55742f001af29220,001,22,Female,British,A-Levels,2024-03-06_15h50.43.658,CRL1h,2023.2.3,MacIntel,60.24096386,65e67470ae2fbf2172c317b2,65e890bdf98eca7a2d3ad4f9,,,,,,,,,,,584.8726,1.2,586.0721,586.0722,587.0053,left,1,0.92,,587.0055,588.0052,1,4,20,7,1,total,2,images/Ex16.jpg,left,reversed,hard,4,,,,,
,,,,,5d696d1c55742f001af29220,001,22,Female,British,A-Levels,2024-03-06_15h50.43.658,CRL1h,2023.2.3,MacIntel,60.24096386,65e67470ae2fbf2172c317b2,65e890bdf98eca7a2d3ad4f9,,,,,,,,,,,588.0061,0.5,588.5054,588.5054,591.1554,left,1,2.6373,,591.1555,592.1552,1,5,21,14,1,total,2,images/Ex15.jpg,left,reversed,hard,4,,,,,
,,,,,5d696d1c55742f001af29220,001,22,Female,British,A-Levels,2024-03-06_15h50.43.658,CRL1h,2023.2.3,MacIntel,60.24096386,65e67470ae2fbf2172c317b2,65e890bdf98eca7a2d3ad4f9,,,,,,,,,,,592.1655,0.7,592.8553,592.8554,593.9056,right,1,1.036,,593.9056,594.9055,1,6,22,10,1,total,2,images/Ex11.jpg,right,reversed,hard,4,,,,,
,,,,,5d696d1c55742f001af29220,001,22,Female,British,A-Levels,2024-03-06_15h50.43.658,CRL1h,2023.2.3,MacIntel,60.24096386,65e67470ae2fbf2172c317b2,65e890bdf98eca7a2d3ad4f9,,,,,,,,,,,594.9063,1.1,596.0053,596.0054,597.1388,left,1,1.1201,,597.1389,598.1377,1,7,23,12,1,total,2,images/Ex13.jpg,left,reversed,hard,4,,,,,
,,,,,5d696d1c55742f001af29220,001,22,Female,British,A-Levels,2024-03-06_15h50.43.658,CRL1h,2023.2.3,MacIntel,60.24096386,65e67470ae2fbf2172c317b2,65e890bdf98eca7a2d3ad4f9,,,,,,,,,,,598.1383,1.3,599.4387,599.4388,600.4717,right,1,1.0232,,600.4717,601.472,1,8,24,3,1,total,2,images/Ex12.jpg,right,reversed,hard,4,,,,,
,,,,,5d696d1c55742f001af29220,001,22,Female,British,A-Levels,2024-03-06_15h50.43.658,CRL1h,2023.2.3,MacIntel,60.24096386,65e67470ae2fbf2172c317b2,65e890bdf98eca7a2d3ad4f9,,,,,,,,,,,601.4729,1.3,602.7721,602.7722,603.7891,left,1,1.003,,603.7892,604.7888,1,9,25,6,1,total,2,images/Ex15.jpg,left,reversed,hard,4,,,,,
,,,,,5d696d1c55742f001af29220,001,22,Female,British,A-Levels,2024-03-06_15h50.43.658,CRL1h,2023.2.3,MacIntel,60.24096386,65e67470ae2fbf2172c317b2,65e890bdf98eca7a2d3ad4f9,,,,,,,,,,,604.7895,0.6,605.3877,605.3877,606.1555,right,1,0.7542,,606.1556,607.1547,1,10,26,0,1,total,2,images/Ex9.jpg,right,reversed,hard,4,,,,,
,,,,,5d696d1c55742f001af29220,001,22,Female,British,A-Levels,2024-03-06_15h50.43.658,CRL1h,2023.2.3,MacIntel,60.24096386,65e67470ae2fbf2172c317b2,65e890bdf98eca7a2d3ad4f9,,,,,,,,,,,607.1553,0.9,608.0554,608.0555,609.0889,right,1,1.0204,,609.0889,610.0887,1,11,27,9,1,total,2,images/Ex10.jpg,right,reversed,hard,4,,,,,
,,,,,5d696d1c55742f001af29220,001,22,Female,British,A-Levels,2024-03-06_15h50.43.658,CRL1h,2023.2.3,MacIntel,60.24096386,65e67470ae2fbf2172c317b2,65e890bdf98eca7a2d3ad4f9,,,,,,,,,,,610.0895,0.7,610.7887,610.7887,611.8711,left,1,1.0702,,611.8711,612.8711,1,12,28,15,1,total,2,images/Ex16.jpg,left,reversed,hard,4,,,,,
,,,,,5d696d1c55742f001af29220,001,22,Female,British,A-Levels,2024-03-06_15h50.43.658,CRL1h,2023.2.3,MacIntel,60.24096386,65e67470ae2fbf2172c317b2,65e890bdf98eca7a2d3ad4f9,,,,,,,,,,,612.8716,1.1,613.9711,613.9712,615.189,right,1,1.2042,,615.189,616.1889,1,13,29,2,1,total,2,images/Ex11.jpg,right,reversed,hard,4,,,,,
,,,,,5d696d1c55742f001af29220,001,22,Female,British,A-Levels,2024-03-06_15h50.43.658,CRL1h,2023.2.3,MacIntel,60.24096386,65e67470ae2fbf2172c317b2,65e890bdf98eca7a2d3ad4f9,,,,,,,,,,,616.1896,1.5,617.6889,617.6889,618.6879,right,1,0.9867,,618.688,619.6888,1,14,30,11,1,total,2,images/Ex12.jpg,right,reversed,hard,4,,,,,
,,,,,5d696d1c55742f001af29220,001,22,Female,British,A-Levels,2024-03-06_15h50.43.658,CRL1h,2023.2.3,MacIntel,60.24096386,65e67470ae2fbf2172c317b2,65e890bdf98eca7a2d3ad4f9,,,,,,,,,,,619.6896,0.7,620.3879,620.3879,622.0226,left,1,1.6211,,622.0227,623.0221,1,15,31,13,1,total,2,images/Ex14.jpg,left,reversed,hard,4,,,,,
,,,,,5d696d1c55742f001af29220,001,22,Female,British,A-Levels,2024-03-06_15h50.43.658,CRL1h,2023.2.3,MacIntel,60.24096386,65e67470ae2fbf2172c317b2,65e890bdf98eca7a2d3ad4f9,,,,,,,,,,,623.0228,1.3,624.3222,624.3223,625.039,left,1,0.7031,,625.039,626.039,2,0,32,7,1,total,2,images/Ex16.jpg,left,reversed,hard,4,,,,,
,,,,,5d696d1c55742f001af29220,001,22,Female,British,A-Levels,2024-03-06_15h50.43.658,CRL1h,2023.2.3,MacIntel,60.24096386,65e67470ae2fbf2172c317b2,65e890bdf98eca7a2d3ad4f9,,,,,,,,,,,626.0398,0.5,626.5391,626.5392,627.2724,right,1,0.7217,,627.2724,628.2722,2,1,33,10,1,total,2,images/Ex11.jpg,right,reversed,hard,4,,,,,
,,,,,5d696d1c55742f001af29220,001,22,Female,British,A-Levels,2024-03-06_15h50.43.658,CRL1h,2023.2.3,MacIntel,60.24096386,65e67470ae2fbf2172c317b2,65e890bdf98eca7a2d3ad4f9,,,,,,,,,,,628.2729,0.9,629.1724,629.1725,629.8386,left,1,0.6545,,629.8387,630.8389,2,2,34,4,1,total,2,images/Ex13.jpg,left,reversed,hard,4,,,,,
,,,,,5d696d1c55742f001af29220,001,22,Female,British,A-Levels,2024-03-06_15h50.43.658,CRL1h,2023.2.3,MacIntel,60.24096386,65e67470ae2fbf2172c317b2,65e890bdf98eca7a2d3ad4f9,,,,,,,,,,,630.8396,0.8,631.6389,631.639,632.5386,left,0,0.8865,,632.5387,633.5381,2,3,35,11,1,total,2,images/Ex12.jpg,right,reversed,hard,4,,,,,
,,,,,5d696d1c55742f001af29220,001,22,Female,British,A-Levels,2024-03-06_15h50.43.658,CRL1h,2023.2.3,MacIntel,60.24096386,65e67470ae2fbf2172c317b2,65e890bdf98eca7a2d3ad4f9,,,,,,,,,,,633.5386,0.8,634.339,634.339,636.3392,left,1,1.9867,,636.3392,637.3389,2,4,36,14,1,total,2,images/Ex15.jpg,left,reversed,hard,4,,,,,
,,,,,5d696d1c55742f001af29220,001,22,Female,British,A-Levels,2024-03-06_15h50.43.658,CRL1h,2023.2.3,MacIntel,60.24096386,65e67470ae2fbf2172c317b2,65e890bdf98eca7a2d3ad4f9,,,,,,,,,,,637.3484,0.6,637.939,637.939,638.5889,right,1,0.6366,,638.589,639.589,2,5,37,2,1,total,2,images/Ex11.jpg,right,reversed,hard,4,,,,,
,,,,,5d696d1c55742f001af29220,001,22,Female,British,A-Levels,2024-03-06_15h50.43.658,CRL1h,2023.2.3,MacIntel,60.24096386,65e67470ae2fbf2172c317b2,65e890bdf98eca7a2d3ad4f9,,,,,,,,,,,639.5896,1.2,640.789,640.789,642.1058,right,1,1.3147,,642.1058,643.1056,2,6,38,1,1,total,2,images/Ex10.jpg,right,reversed,hard,4,,,,,
,,,,,5d696d1c55742f001af29220,001,22,Female,British,A-Levels,2024-03-06_15h50.43.658,CRL1h,2023.2.3,MacIntel,60.24096386,65e67470ae2fbf2172c317b2,65e890bdf98eca7a2d3ad4f9,,,,,,,,,,,643.1064,0.9,644.0046,644.0047,644.8722,left,1,0.8658,,644.8723,645.8724,2,7,39,13,1,total,2,images/Ex14.jpg,left,reversed,hard,4,,,,,
,,,,,5d696d1c55742f001af29220,001,22,Female,British,A-Levels,2024-03-06_15h50.43.658,CRL1h,2023.2.3,MacIntel,60.24096386,65e67470ae2fbf2172c317b2,65e890bdf98eca7a2d3ad4f9,,,,,,,,,,,645.8731,1.1,646.9723,646.9725,649.2056,left,1,2.2213,,649.2057,650.2059,2,8,40,6,1,total,2,images/Ex15.jpg,left,reversed,hard,4,,,,,
,,,,,5d696d1c55742f001af29220,001,22,Female,British,A-Levels,2024-03-06_15h50.43.658,CRL1h,2023.2.3,MacIntel,60.24096386,65e67470ae2fbf2172c317b2,65e890bdf98eca7a2d3ad4f9,,,,,,,,,,,650.2153,0.6,650.8057,650.8058,651.805,right,1,0.9974,,651.805,652.8057,2,9,41,3,1,total,2,images/Ex12.jpg,right,reversed,hard,4,,,,,
,,,,,5d696d1c55742f001af29220,001,22,Female,British,A-Levels,2024-03-06_15h50.43.658,CRL1h,2023.2.3,MacIntel,60.24096386,65e67470ae2fbf2172c317b2,65e890bdf98eca7a2d3ad4f9,,,,,,,,,,,652.8064,1.1,653.9057,653.9058,654.9058,left,1,0.9868,,654.9059,655.9058,2,10,42,5,1,total,2,images/Ex14.jpg,left,reversed,hard,4,,,,,
,,,,,5d696d1c55742f001af29220,001,22,Female,British,A-Levels,2024-03-06_15h50.43.658,CRL1h,2023.2.3,MacIntel,60.24096386,65e67470ae2fbf2172c317b2,65e890bdf98eca7a2d3ad4f9,,,,,,,,,,,655.9065,0.8,656.7059,656.7059,657.5548,right,1,0.8353,,657.5548,658.5557,2,11,43,0,1,total,2,images/Ex9.jpg,right,reversed,hard,4,,,,,
,,,,,5d696d1c55742f001af29220,001,22,Female,British,A-Levels,2024-03-06_15h50.43.658,CRL1h,2023.2.3,MacIntel,60.24096386,65e67470ae2fbf2172c317b2,65e890bdf98eca7a2d3ad4f9,,,,,,,,,,,658.5564,1.1,659.6558,659.6558,661.0392,left,1,1.3694,,661.0393,662.0392,2,12,44,15,1,total,2,images/Ex16.jpg,left,reversed,hard,4,,,,,
,,,,,5d696d1c55742f001af29220,001,22,Female,British,A-Levels,2024-03-06_15h50.43.658,CRL1h,2023.2.3,MacIntel,60.24096386,65e67470ae2fbf2172c317b2,65e890bdf98eca7a2d3ad4f9,,,,,,,,,,,662.0399,0.9,662.9393,662.9393,664.0056,left,1,1.0531,,664.0058,665.0059,2,13,45,12,1,total,2,images/Ex13.jpg,left,reversed,hard,4,,,,,
,,,,,5d696d1c55742f001af29220,001,22,Female,British,A-Levels,2024-03-06_15h50.43.658,CRL1h,2023.2.3,MacIntel,60.24096386,65e67470ae2fbf2172c317b2,65e890bdf98eca7a2d3ad4f9,,,,,,,,,,,665.0067,1,666.0058,666.0059,666.6893,right,1,0.67,,666.6894,667.6882,2,14,46,8,1,total,2,images/Ex9.jpg,right,reversed,hard,4,,,,,
,,,,,5d696d1c55742f001af29220,001,22,Female,British,A-Levels,2024-03-06_15h50.43.658,CRL1h,2023.2.3,MacIntel,60.24096386,65e67470ae2fbf2172c317b2,65e890bdf98eca7a2d3ad4f9,,,,,,,,,,,667.6888,0.8,668.4892,668.4893,669.4723,right,1,0.9741,,669.4723,670.4726,2,15,47,9,1,total,2,images/Ex10.jpg,right,reversed,hard,4,,,,,
,,,,,5d696d1c55742f001af29220,001,22,Female,British,A-Levels,2024-03-06_15h50.43.658,CRL1h,2023.2.3,MacIntel,60.24096386,65e67470ae2fbf2172c317b2,65e890bdf98eca7a2d3ad4f9,,,,,,,,,,,670.4732,0.7,671.1724,671.1725,671.906,left,1,0.7203,,671.9061,672.905,3,0,48,7,1,total,2,images/Ex16.jpg,left,reversed,hard,4,,,,,
,,,,,5d696d1c55742f001af29220,001,22,Female,British,A-Levels,2024-03-06_15h50.43.658,CRL1h,2023.2.3,MacIntel,60.24096386,65e67470ae2fbf2172c317b2,65e890bdf98eca7a2d3ad4f9,,,,,,,,,,,672.9055,0.9,673.8059,673.806,674.705,right,1,0.8864,,674.705,675.706,3,1,49,9,1,total,2,images/Ex10.jpg,right,reversed,hard,4,,,,,
,,,,,5d696d1c55742f001af29220,001,22,Female,British,A-Levels,2024-03-06_15h50.43.658,CRL1h,2023.2.3,MacIntel,60.24096386,65e67470ae2fbf2172c317b2,65e890bdf98eca7a2d3ad4f9,,,,,,,,,,,675.7067,0.7,676.406,676.406,677.2724,right,1,0.8543,,677.2725,678.2716,3,2,50,3,1,total,2,images/Ex12.jpg,right,reversed,hard,4,,,,,
,,,,,5d696d1c55742f001af29220,001,22,Female,British,A-Levels,2024-03-06_15h50.43.658,CRL1h,2023.2.3,MacIntel,60.24096386,65e67470ae2fbf2172c317b2,65e890bdf98eca7a2d3ad4f9,,,,,,,,,,,678.2723,1.1,679.3725,679.3726,680.0385,right,1,0.6639,,680.0386,681.0393,3,3,51,0,1,total,2,images/Ex9.jpg,right,reversed,hard,4,,,,,
,,,,,5d696d1c55742f001af29220,001,22,Female,British,A-Levels,2024-03-06_15h50.43.658,CRL1h,2023.2.3,MacIntel,60.24096386,65e67470ae2fbf2172c317b2,65e890bdf98eca7a2d3ad4f9,,,,,,,,,,,681.0401,0.8,681.8393,681.8394,683.3227,left,0,1.473,,683.3228,684.3221,3,4,52,2,1,total,2,images/Ex11.jpg,right,reversed,hard,4,,,,,
,,,,,5d696d1c55742f001af29220,001,22,Female,British,A-Levels,2024-03-06_15h50.43.658,CRL1h,2023.2.3,MacIntel,60.24096386,65e67470ae2fbf2172c317b2,65e890bdf98eca7a2d3ad4f9,,,,,,,,,,,684.3227,0.7,685.0226,685.0226,685.5728,right,1,0.5373,,685.573,686.5727,3,5,53,10,1,total,2,images/Ex11.jpg,right,reversed,hard,4,,,,,
,,,,,5d696d1c55742f001af29220,001,22,Female,British,A-Levels,2024-03-06_15h50.43.658,CRL1h,2023.2.3,MacIntel,60.24096386,65e67470ae2fbf2172c317b2,65e890bdf98eca7a2d3ad4f9,,,,,,,,,,,686.5734,0.7,687.2726,687.2726,688.5394,right,1,1.2571,,688.5394,689.5394,3,6,54,1,1,total,2,images/Ex10.jpg,right,reversed,hard,4,,,,,
,,,,,5d696d1c55742f001af29220,001,22,Female,British,A-Levels,2024-03-06_15h50.43.658,CRL1h,2023.2.3,MacIntel,60.24096386,65e67470ae2fbf2172c317b2,65e890bdf98eca7a2d3ad4f9,,,,,,,,,,,689.5401,1.3,690.8395,690.8395,691.7062,left,1,0.8565,,691.7062,692.7058,3,7,55,5,1,total,2,images/Ex14.jpg,left,reversed,hard,4,,,,,
,,,,,5d696d1c55742f001af29220,001,22,Female,British,A-Levels,2024-03-06_15h50.43.658,CRL1h,2023.2.3,MacIntel,60.24096386,65e67470ae2fbf2172c317b2,65e890bdf98eca7a2d3ad4f9,,,,,,,,,,,692.7065,1.1,693.806,693.8061,694.5061,right,0,0.6867,,694.5061,695.506,3,8,56,15,1,total,2,images/Ex16.jpg,left,reversed,hard,4,,,,,
,,,,,5d696d1c55742f001af29220,001,22,Female,British,A-Levels,2024-03-06_15h50.43.658,CRL1h,2023.2.3,MacIntel,60.24096386,65e67470ae2fbf2172c317b2,65e890bdf98eca7a2d3ad4f9,,,,,,,,,,,695.5068,0.8,696.3061,696.3062,697.1052,right,1,0.7862,,697.1052,698.1053,3,9,57,11,1,total,2,images/Ex12.jpg,right,reversed,hard,4,,,,,
,,,,,5d696d1c55742f001af29220,001,22,Female,British,A-Levels,2024-03-06_15h50.43.658,CRL1h,2023.2.3,MacIntel,60.24096386,65e67470ae2fbf2172c317b2,65e890bdf98eca7a2d3ad4f9,,,,,,,,,,,698.1059,0.7,698.8061,698.8062,700.5064,left,1,1.6869,,700.5064,701.5061,3,10,58,14,1,total,2,images/Ex15.jpg,left,reversed,hard,4,,,,,
,,,,,5d696d1c55742f001af29220,001,22,Female,British,A-Levels,2024-03-06_15h50.43.658,CRL1h,2023.2.3,MacIntel,60.24096386,65e67470ae2fbf2172c317b2,65e890bdf98eca7a2d3ad4f9,,,,,,,,,,,701.5161,1.4,702.9052,702.9052,703.4561,left,1,0.5475,,703.4562,704.4551,3,11,59,13,1,total,2,images/Ex14.jpg,left,reversed,hard,4,,,,,
,,,,,5d696d1c55742f001af29220,001,22,Female,British,A-Levels,2024-03-06_15h50.43.658,CRL1h,2023.2.3,MacIntel,60.24096386,65e67470ae2fbf2172c317b2,65e890bdf98eca7a2d3ad4f9,,,,,,,,,,,704.4557,1.5,705.9561,705.9562,706.7064,right,1,0.7368,,706.7066,707.7061,3,12,60,8,1,total,2,images/Ex9.jpg,right,reversed,hard,4,,,,,
,,,,,5d696d1c55742f001af29220,001,22,Female,British,A-Levels,2024-03-06_15h50.43.658,CRL1h,2023.2.3,MacIntel,60.24096386,65e67470ae2fbf2172c317b2,65e890bdf98eca7a2d3ad4f9,,,,,,,,,,,707.7069,0.6,708.3062,708.3063,708.8897,left,1,0.57,,708.8898,709.8895,3,13,61,12,1,total,2,images/Ex13.jpg,left,reversed,hard,4,,,,,
,,,,,5d696d1c55742f001af29220,001,22,Female,British,A-Levels,2024-03-06_15h50.43.658,CRL1h,2023.2.3,MacIntel,60.24096386,65e67470ae2fbf2172c317b2,65e890bdf98eca7a2d3ad4f9,,,,,,,,,,,709.8903,0.5,710.3894,710.3895,710.8896,left,1,0.4878,,710.8896,711.8895,3,14,62,4,1,total,2,images/Ex13.jpg,left,reversed,hard,4,,,,,
,,,,,5d696d1c55742f001af29220,001,22,Female,British,A-Levels,2024-03-06_15h50.43.658,CRL1h,2023.2.3,MacIntel,60.24096386,65e67470ae2fbf2172c317b2,65e890bdf98eca7a2d3ad4f9,,,,,,,,,,,711.8903,0.6,712.4895,712.4896,713.1395,right,0,0.6483,,713.1396,714.1395,3,15,63,6,1,total,2,images/Ex15.jpg,left,reversed,hard,4,,,,,
,,,,,5d696d1c55742f001af29220,001,22,Female,British,A-Levels,2024-03-06_15h50.43.658,CRL1h,2023.2.3,MacIntel,60.24096386,65e67470ae2fbf2172c317b2,65e890bdf98eca7a2d3ad4f9,,,,,,714.1409,781.3558,space,67.1986,,781.3708,0.8,782.1733,782.1735,783.5728,left,0,1.3877,,783.573,784.5734,0,0,0,12,1,partial,1,images/Ex5.jpg,right,training,hard,4,,,,,
,,,,,5d696d1c55742f001af29220,001,22,Female,British,A-Levels,2024-03-06_15h50.43.658,CRL1h,2023.2.3,MacIntel,60.24096386,65e67470ae2fbf2172c317b2,65e890bdf98eca7a2d3ad4f9,,,,,,,,,,,784.5742,1.4,785.9734,785.9735,787.0409,right,0,1.0544,,787.041,788.04,0,1,1,1,1,partial,1,images/Ex2.jpg,left,training,hard,4,,,,,
,,,,,5d696d1c55742f001af29220,001,22,Female,British,A-Levels,2024-03-06_15h50.43.658,CRL1h,2023.2.3,MacIntel,60.24096386,65e67470ae2fbf2172c317b2,65e890bdf98eca7a2d3ad4f9,,,,,,,,,,,788.0408,0.8,788.84,788.84,789.8409,right,1,0.9879,,789.841,790.8392,0,2,2,7,1,partial,1,images/Ex8.jpg,right,training,hard,4,,,,,
,,,,,5d696d1c55742f001af29220,001,22,Female,British,A-Levels,2024-03-06_15h50.43.658,CRL1h,2023.2.3,MacIntel,60.24096386,65e67470ae2fbf2172c317b2,65e890bdf98eca7a2d3ad4f9,,,,,,,,,,,790.8398,1.4,792.2391,792.2392,793.174,right,1,0.9322,,793.174,794.1734,0,3,3,6,1,partial,1,images/Ex7.jpg,right,training,hard,4,,,,,
,,,,,5d696d1c55742f001af29220,001,22,Female,British,A-Levels,2024-03-06_15h50.43.658,CRL1h,2023.2.3,MacIntel,60.24096386,65e67470ae2fbf2172c317b2,65e890bdf98eca7a2d3ad4f9,,,,,,,,,,,794.1742,1.4,795.5734,795.5735,796.7409,right,1,1.1542,,796.741,797.7402,0,4,4,4,1,partial,1,images/Ex5.jpg,right,training,hard,4,,,,,
,,,,,5d696d1c55742f001af29220,001,22,Female,British,A-Levels,2024-03-06_15h50.43.658,CRL1h,2023.2.3,MacIntel,60.24096386,65e67470ae2fbf2172c317b2,65e890bdf98eca7a2d3ad4f9,,,,,,,,,,,797.7409,1,798.7401,798.7402,799.8243,right,0,1.0706,,799.8243,800.8225,0,5,5,3,1,partial,1,images/Ex4.jpg,left,training,hard,4,,,,,
,,,,,5d696d1c55742f001af29220,001,22,Female,British,A-Levels,2024-03-06_15h50.43.658,CRL1h,2023.2.3,MacIntel,60.24096386,65e67470ae2fbf2172c317b2,65e890bdf98eca7a2d3ad4f9,,,,,,,,,,,800.8233,1,801.8235,801.8236,803.2243,left,1,1.3867,,803.2243,804.2227,0,6,6,0,1,partial,1,images/Ex1.jpg,left,training,hard,4,,,,,
,,,,,5d696d1c55742f001af29220,001,22,Female,British,A-Levels,2024-03-06_15h50.43.658,CRL1h,2023.2.3,MacIntel,60.24096386,65e67470ae2fbf2172c317b2,65e890bdf98eca7a2d3ad4f9,,,,,,,,,,,804.2234,0.8,805.0226,805.0226,806.0576,right,1,1.0234,,806.0576,807.057,0,7,7,14,1,partial,1,images/Ex7.jpg,right,training,hard,4,,,,,
,,,,,5d696d1c55742f001af29220,001,22,Female,British,A-Levels,2024-03-06_15h50.43.658,CRL1h,2023.2.3,MacIntel,60.24096386,65e67470ae2fbf2172c317b2,65e890bdf98eca7a2d3ad4f9,,,,,,,,,,,807.0578,1.1,808.1558,808.1559,809.5077,right,1,1.339,,809.5078,810.5069,0,8,8,5,1,partial,1,images/Ex6.jpg,right,training,hard,4,,,,,
,,,,,5d696d1c55742f001af29220,001,22,Female,British,A-Levels,2024-03-06_15h50.43.658,CRL1h,2023.2.3,MacIntel,60.24096386,65e67470ae2fbf2172c317b2,65e890bdf98eca7a2d3ad4f9,,,,,,,,,,,810.5077,1.3,811.807,811.807,812.5443,left,1,0.7334,,812.5444,813.5392,0,9,9,9,1,partial,1,images/Ex2.jpg,left,training,hard,4,,,,,
,,,,,5d696d1c55742f001af29220,001,22,Female,British,A-Levels,2024-03-06_15h50.43.658,CRL1h,2023.2.3,MacIntel,60.24096386,65e67470ae2fbf2172c317b2,65e890bdf98eca7a2d3ad4f9,,,,,,,,,,,813.5399,1.5,815.0404,815.0404,815.8576,right,0,0.8047,,815.8576,816.8569,0,10,10,2,1,partial,1,images/Ex3.jpg,left,training,hard,4,,,,,
,,,,,5d696d1c55742f001af29220,001,22,Female,British,A-Levels,2024-03-06_15h50.43.658,CRL1h,2023.2.3,MacIntel,60.24096386,65e67470ae2fbf2172c317b2,65e890bdf98eca7a2d3ad4f9,,,,,,,,,,,816.8577,0.8,817.6569,817.657,819.4091,left,1,1.7477,,819.4092,820.4069,0,11,11,8,1,partial,1,images/Ex1.jpg,left,training,hard,4,,,,,
,,,,,5d696d1c55742f001af29220,001,22,Female,British,A-Levels,2024-03-06_15h50.43.658,CRL1h,2023.2.3,MacIntel,60.24096386,65e67470ae2fbf2172c317b2,65e890bdf98eca7a2d3ad4f9,,,,,,,,,,,820.4077,1.2,821.6069,821.607,822.8289,left,0,1.2176,,822.829,823.8237,0,12,12,13,1,partial,1,images/Ex6.jpg,right,training,hard,4,,,,,
,,,,,5d696d1c55742f001af29220,001,22,Female,British,A-Levels,2024-03-06_15h50.43.658,CRL1h,2023.2.3,MacIntel,60.24096386,65e67470ae2fbf2172c317b2,65e890bdf98eca7a2d3ad4f9,,,,,,,,,,,823.8244,1,824.8236,824.8237,826.4244,left,1,1.5874,,826.4245,827.4236,0,13,13,10,1,partial,1,images/Ex3.jpg,left,training,hard,4,,,,,
,,,,,5d696d1c55742f001af29220,001,22,Female,British,A-Levels,2024-03-06_15h50.43.658,CRL1h,2023.2.3,MacIntel,60.24096386,65e67470ae2fbf2172c317b2,65e890bdf98eca7a2d3ad4f9,,,,,,,,,,,827.436,1.1,828.5403,828.5403,829.4735,right,0,0.9237,,829.4735,830.4737,0,14,14,11,1,partial,1,images/Ex4.jpg,left,training,hard,4,,,,,
,,,,,5d696d1c55742f001af29220,001,22,Female,British,A-Levels,2024-03-06_15h50.43.658,CRL1h,2023.2.3,MacIntel,60.24096386,65e67470ae2fbf2172c317b2,65e890bdf98eca7a2d3ad4f9,,,,,,,,,,,830.4745,0.7,831.1737,831.1737,832.5781,left,0,1.4001,,832.5782,833.5736,0,15,15,15,1,partial,1,images/Ex8.jpg,right,training,hard,4,,,,,
,,,,,5d696d1c55742f001af29220,001,22,Female,British,A-Levels,2024-03-06_15h50.43.658,CRL1h,2023.2.3,MacIntel,60.24096386,65e67470ae2fbf2172c317b2,65e890bdf98eca7a2d3ad4f9,,,,,,,,,,,833.5859,1,834.5737,834.5737,835.8616,left,1,1.2842,,835.8616,836.8572,1,0,16,8,1,partial,1,images/Ex1.jpg,left,training,hard,4,,,,,
,,,,,5d696d1c55742f001af29220,001,22,Female,British,A-Levels,2024-03-06_15h50.43.658,CRL1h,2023.2.3,MacIntel,60.24096386,65e67470ae2fbf2172c317b2,65e890bdf98eca7a2d3ad4f9,,,,,,,,,,,836.8579,1.2,838.0571,838.0572,838.661,right,1,0.6002,,838.661,839.6571,1,1,17,4,1,partial,1,images/Ex5.jpg,right,training,hard,4,,,,,
,,,,,5d696d1c55742f001af29220,001,22,Female,British,A-Levels,2024-03-06_15h50.43.658,CRL1h,2023.2.3,MacIntel,60.24096386,65e67470ae2fbf2172c317b2,65e890bdf98eca7a2d3ad4f9,,,,,,,,,,,839.6578,1.3,840.9571,840.9572,841.7114,left,1,0.7505,,841.7115,842.7071,1,2,18,9,1,partial,1,images/Ex2.jpg,left,training,hard,4,,,,,
,,,,,5d696d1c55742f001af29220,001,22,Female,British,A-Levels,2024-03-06_15h50.43.658,CRL1h,2023.2.3,MacIntel,60.24096386,65e67470ae2fbf2172c317b2,65e890bdf98eca7a2d3ad4f9,,,,,,,,,,,842.7078,0.7,843.4072,843.4072,844.0406,right,1,0.6204,,844.0407,845.0405,1,3,19,14,1,partial,1,images/Ex7.jpg,right,training,hard,4,,,,,
,,,,,5d696d1c55742f001af29220,001,22,Female,British,A-Levels,2024-03-06_15h50.43.658,CRL1h,2023.2.3,MacIntel,60.24096386,65e67470ae2fbf2172c317b2,65e890bdf98eca7a2d3ad4f9,,,,,,,,,,,845.0415,0.7,845.7406,845.7406,847.028,left,1,1.2835,,847.0281,848.0239,1,4,20,3,1,partial,1,images/Ex4.jpg,left,training,hard,4,,,,,
,,,,,5d696d1c55742f001af29220,001,22,Female,British,A-Levels,2024-03-06_15h50.43.658,CRL1h,2023.2.3,MacIntel,60.24096386,65e67470ae2fbf2172c317b2,65e890bdf98eca7a2d3ad4f9,,,,,,,,,,,848.0247,1.2,849.2239,849.2239,850.2751,left,0,1.037,,850.2752,851.2738,1,5,21,12,1,partial,1,images/Ex5.jpg,right,training,hard,4,,,,,
,,,,,5d696d1c55742f001af29220,001,22,Female,British,A-Levels,2024-03-06_15h50.43.658,CRL1h,2023.2.3,MacIntel,60.24096386,65e67470ae2fbf2172c317b2,65e890bdf98eca7a2d3ad4f9,,,,,,,,,,,851.2747,1.4,852.6739,852.6739,853.3577,left,1,0.6702,,853.3578,854.3572,1,6,22,1,1,partial,1,images/Ex2.jpg,left,training,hard,4,,,,,
,,,,,5d696d1c55742f001af29220,001,22,Female,British,A-Levels,2024-03-06_15h50.43.658,CRL1h,2023.2.3,MacIntel,60.24096386,65e67470ae2fbf2172c317b2,65e890bdf98eca7a2d3ad4f9,,,,,,,,,,,854.3579,0.7,855.0572,855.0573,855.6739,right,1,0.6044,,855.674,856.674,1,7,23,6,1,partial,1,images/Ex7.jpg,right,training,hard,4,,,,,
,,,,,5d696d1c55742f001af29220,001,22,Female,British,A-Levels,2024-03-06_15h50.43.658,CRL1h,2023.2.3,MacIntel,60.24096386,65e67470ae2fbf2172c317b2,65e890bdf98eca7a2d3ad4f9,,,,,,,,,,,856.6747,1.1,857.7731,857.7731,858.7246,left,1,0.9386,,858.7247,859.724,1,8,24,2,1,partial,1,images/Ex3.jpg,left,training,hard,4,,,,,
,,,,,5d696d1c55742f001af29220,001,22,Female,British,A-Levels,2024-03-06_15h50.43.658,CRL1h,2023.2.3,MacIntel,60.24096386,65e67470ae2fbf2172c317b2,65e890bdf98eca7a2d3ad4f9,,,,,,,,,,,859.7247,0.6,860.3235,860.3236,860.8405,left,1,0.506,,860.8406,861.8401,1,9,25,10,1,partial,1,images/Ex3.jpg,left,training,hard,4,,,,,
,,,,,5d696d1c55742f001af29220,001,22,Female,British,A-Levels,2024-03-06_15h50.43.658,CRL1h,2023.2.3,MacIntel,60.24096386,65e67470ae2fbf2172c317b2,65e890bdf98eca7a2d3ad4f9,,,,,,,,,,,861.8406,1.3,863.1407,863.1407,863.925,right,0,0.771,,863.925,864.924,1,10,26,0,1,partial,1,images/Ex1.jpg,left,training,hard,4,,,,,
,,,,,5d696d1c55742f001af29220,001,22,Female,British,A-Levels,2024-03-06_15h50.43.658,CRL1h,2023.2.3,MacIntel,60.24096386,65e67470ae2fbf2172c317b2,65e890bdf98eca7a2d3ad4f9,,,,,,,,,,,864.9247,0.8,865.7241,865.7241,867.1085,right,1,1.3708,,867.1086,868.1072,1,11,27,13,1,partial,1,images/Ex6.jpg,right,training,hard,4,,,,,
,,,,,5d696d1c55742f001af29220,001,22,Female,British,A-Levels,2024-03-06_15h50.43.658,CRL1h,2023.2.3,MacIntel,60.24096386,65e67470ae2fbf2172c317b2,65e890bdf98eca7a2d3ad4f9,,,,,,,,,,,868.1078,1.2,869.3071,869.3071,869.8261,right,1,0.5152,,869.8262,870.8233,1,12,28,5,1,partial,1,images/Ex6.jpg,right,training,hard,4,,,,,
,,,,,5d696d1c55742f001af29220,001,22,Female,British,A-Levels,2024-03-06_15h50.43.658,CRL1h,2023.2.3,MacIntel,60.24096386,65e67470ae2fbf2172c317b2,65e890bdf98eca7a2d3ad4f9,,,,,,,,,,,870.824,0.9,871.7231,871.7231,872.7914,right,0,1.0544,,872.7916,873.7907,1,13,29,11,1,partial,1,images/Ex4.jpg,left,training,hard,4,,,,,
,,,,,5d696d1c55742f001af29220,001,22,Female,British,A-Levels,2024-03-06_15h50.43.658,CRL1h,2023.2.3,MacIntel,60.24096386,65e67470ae2fbf2172c317b2,65e890bdf98eca7a2d3ad4f9,,,,,,,,,,,873.7915,0.5,874.2907,874.2908,875.5446,left,0,1.2499,,875.5447,876.5406,1,14,30,15,1,partial,1,images/Ex8.jpg,right,training,hard,4,,,,,
,,,,,5d696d1c55742f001af29220,001,22,Female,British,A-Levels,2024-03-06_15h50.43.658,CRL1h,2023.2.3,MacIntel,60.24096386,65e67470ae2fbf2172c317b2,65e890bdf98eca7a2d3ad4f9,,,,,,,,,,,876.5413,0.8,877.3407,877.3408,878.0407,right,1,0.6875,,878.0407,879.0407,1,15,31,7,1,partial,1,images/Ex8.jpg,right,training,hard,4,,,,,
,,,,,5d696d1c55742f001af29220,001,22,Female,British,A-Levels,2024-03-06_15h50.43.658,CRL1h,2023.2.3,MacIntel,60.24096386,65e67470ae2fbf2172c317b2,65e890bdf98eca7a2d3ad4f9,,,,,,,,,,,879.0416,1.2,880.2407,880.2408,880.9615,right,0,0.7169,,880.9615,881.9573,2,0,32,3,1,partial,1,images/Ex4.jpg,left,training,hard,4,,,,,
,,,,,5d696d1c55742f001af29220,001,22,Female,British,A-Levels,2024-03-06_15h50.43.658,CRL1h,2023.2.3,MacIntel,60.24096386,65e67470ae2fbf2172c317b2,65e890bdf98eca7a2d3ad4f9,,,,,,,,,,,881.958,1.5,883.4564,883.4565,884.4617,right,1,1.0015,,884.4617,885.4575,2,1,33,12,1,partial,1,images/Ex5.jpg,right,training,hard,4,,,,,
,,,,,5d696d1c55742f001af29220,001,22,Female,British,A-Levels,2024-03-06_15h50.43.658,CRL1h,2023.2.3,MacIntel,60.24096386,65e67470ae2fbf2172c317b2,65e890bdf98eca7a2d3ad4f9,,,,,,,,,,,885.4583,1.2,886.6575,886.6575,887.1915,right,1,0.5214,,887.1917,888.1909,2,2,34,4,1,partial,1,images/Ex5.jpg,right,training,hard,4,,,,,
,,,,,5d696d1c55742f001af29220,001,22,Female,British,A-Levels,2024-03-06_15h50.43.658,CRL1h,2023.2.3,MacIntel,60.24096386,65e67470ae2fbf2172c317b2,65e890bdf98eca7a2d3ad4f9,,,,,,,,,,,888.1918,1.5,889.6908,889.6908,891.141,left,0,1.4417,,891.1411,892.1409,2,3,35,7,1,partial,1,images/Ex8.jpg,right,training,hard,4,,,,,
,,,,,5d696d1c55742f001af29220,001,22,Female,British,A-Levels,2024-03-06_15h50.43.658,CRL1h,2023.2.3,MacIntel,60.24096386,65e67470ae2fbf2172c317b2,65e890bdf98eca7a2d3ad4f9,,,,,,,,,,,892.1417,0.6,892.7399,892.74,893.4076,left,0,0.654,,893.4077,894.4076,2,4,36,13,1,partial,1,images/Ex6.jpg,right,training,hard,4,,,,,
,,,,,5d696d1c55742f001af29220,001,22,Female,British,A-Levels,2024-03-06_15h50.43.658,CRL1h,2023.2.3,MacIntel,60.24096386,65e67470ae2fbf2172c317b2,65e890bdf98eca7a2d3ad4f9,,,,,,,,,,,894.4084,1.2,895.6075,895.6076,896.3606,left,1,0.7513,,896.3607,897.3572,2,5,37,2,1,partial,1,images/Ex3.jpg,left,training,hard,4,,,,,
,,,,,5d696d1c55742f001af29220,001,22,Female,British,A-Levels,2024-03-06_15h50.43.658,CRL1h,2023.2.3,MacIntel,60.24096386,65e67470ae2fbf2172c317b2,65e890bdf98eca7a2d3ad4f9,,,,,,,,,,,897.3579,1,898.3575,898.3577,899.0446,right,1,0.683,,899.0446,900.0399,2,6,38,5,1,partial,1,images/Ex6.jpg,right,training,hard,4,,,,,
,,,,,5d696d1c55742f001af29220,001,22,Female,British,A-Levels,2024-03-06_15h50.43.658,CRL1h,2023.2.3,MacIntel,60.24096386,65e67470ae2fbf2172c317b2,65e890bdf98eca7a2d3ad4f9,,,,,,,,,,,900.0407,1.2,901.2409,901.2409,902.2251,left,1,0.9712,,902.2252,903.2242,2,7,39,8,1,partial,1,images/Ex1.jpg,left,training,hard,4,,,,,
,,,,,5d696d1c55742f001af29220,001,22,Female,British,A-Levels,2024-03-06_15h50.43.658,CRL1h,2023.2.3,MacIntel,60.24096386,65e67470ae2fbf2172c317b2,65e890bdf98eca7a2d3ad4f9,,,,,,,,,,,903.2248,1.1,904.3243,904.3244,904.925,right,1,0.5875,,904.9251,905.9242,2,8,40,6,1,partial,1,images/Ex7.jpg,right,training,hard,4,,,,,
,,,,,5d696d1c55742f001af29220,001,22,Female,British,A-Levels,2024-03-06_15h50.43.658,CRL1h,2023.2.3,MacIntel,60.24096386,65e67470ae2fbf2172c317b2,65e890bdf98eca7a2d3ad4f9,,,,,,,,,,,905.9249,0.6,906.5242,906.5243,907.3234,left,1,0.7926,,907.3236,908.3243,2,9,41,10,1,partial,1,images/Ex3.jpg,left,training,hard,4,,,,,
,,,,,5d696d1c55742f001af29220,001,22,Female,British,A-Levels,2024-03-06_15h50.43.658,CRL1h,2023.2.3,MacIntel,60.24096386,65e67470ae2fbf2172c317b2,65e890bdf98eca7a2d3ad4f9,,,,,,,,,,,908.3251,0.9,909.2242,909.2244,910.0073,right,0,0.7712,,910.0074,911.0077,2,10,42,11,1,partial,1,images/Ex4.jpg,left,training,hard,4,,,,,
,,,,,5d696d1c55742f001af29220,001,22,Female,British,A-Levels,2024-03-06_15h50.43.658,CRL1h,2023.2.3,MacIntel,60.24096386,65e67470ae2fbf2172c317b2,65e890bdf98eca7a2d3ad4f9,,,,,,,,,,,911.0085,1.1,912.1076,912.1077,912.8111,left,1,0.6995,,912.8112,913.8076,2,11,43,9,1,partial,1,images/Ex2.jpg,left,training,hard,4,,,,,
,,,,,5d696d1c55742f001af29220,001,22,Female,British,A-Levels,2024-03-06_15h50.43.658,CRL1h,2023.2.3,MacIntel,60.24096386,65e67470ae2fbf2172c317b2,65e890bdf98eca7a2d3ad4f9,,,,,,,,,,,913.8082,1,914.8077,914.8077,915.5583,left,1,0.7378,,915.5584,916.5576,2,12,44,0,1,partial,1,images/Ex1.jpg,left,training,hard,4,,,,,
,,,,,5d696d1c55742f001af29220,001,22,Female,British,A-Levels,2024-03-06_15h50.43.658,CRL1h,2023.2.3,MacIntel,60.24096386,65e67470ae2fbf2172c317b2,65e890bdf98eca7a2d3ad4f9,,,,,,,,,,,916.5583,1.2,917.7577,917.7578,918.3906,left,1,0.6209,,918.3906,919.3911,2,13,45,1,1,partial,1,images/Ex2.jpg,left,training,hard,4,,,,,
,,,,,5d696d1c55742f001af29220,001,22,Female,British,A-Levels,2024-03-06_15h50.43.658,CRL1h,2023.2.3,MacIntel,60.24096386,65e67470ae2fbf2172c317b2,65e890bdf98eca7a2d3ad4f9,,,,,,,,,,,919.3918,0.8,920.191,920.1911,920.8246,right,1,0.6199,,920.8248,921.8244,2,14,46,14,1,partial,1,images/Ex7.jpg,right,training,hard,4,,,,,
,,,,,5d696d1c55742f001af29220,001,22,Female,British,A-Levels,2024-03-06_15h50.43.658,CRL1h,2023.2.3,MacIntel,60.24096386,65e67470ae2fbf2172c317b2,65e890bdf98eca7a2d3ad4f9,,,,,,,,,,,921.8251,0.6,922.4243,922.4243,922.9746,left,0,0.5487,,922.9746,923.9738,2,15,47,15,1,partial,1,images/Ex8.jpg,right,training,hard,4,,,,,
,,,,,5d696d1c55742f001af29220,001,22,Female,British,A-Levels,2024-03-06_15h50.43.658,CRL1h,2023.2.3,MacIntel,60.24096386,65e67470ae2fbf2172c317b2,65e890bdf98eca7a2d3ad4f9,,,,,,,,,,,923.9747,0.6,924.5744,924.5744,925.1734,left,1,0.5964,,925.1734,926.1744,3,0,48,9,1,partial,1,images/Ex2.jpg,left,training,hard,4,,,,,
,,,,,5d696d1c55742f001af29220,001,22,Female,British,A-Levels,2024-03-06_15h50.43.658,CRL1h,2023.2.3,MacIntel,60.24096386,65e67470ae2fbf2172c317b2,65e890bdf98eca7a2d3ad4f9,,,,,,,,,,,926.1752,1.3,927.4743,927.4744,928.6292,right,1,1.1513,,928.6293,929.6236,3,1,49,7,1,partial,1,images/Ex8.jpg,right,training,hard,4,,,,,
,,,,,5d696d1c55742f001af29220,001,22,Female,British,A-Levels,2024-03-06_15h50.43.658,CRL1h,2023.2.3,MacIntel,60.24096386,65e67470ae2fbf2172c317b2,65e890bdf98eca7a2d3ad4f9,,,,,,,,,,,929.6242,0.7,930.3246,930.3247,930.7737,right,1,0.4368,,930.7737,931.7744,3,2,50,15,1,partial,1,images/Ex8.jpg,right,training,hard,4,,,,,
,,,,,5d696d1c55742f001af29220,001,22,Female,British,A-Levels,2024-03-06_15h50.43.658,CRL1h,2023.2.3,MacIntel,60.24096386,65e67470ae2fbf2172c317b2,65e890bdf98eca7a2d3ad4f9,,,,,,,,,,,931.7751,0.6,932.3744,932.3745,933.0244,right,1,0.637,,933.0245,934.0245,3,3,51,5,1,partial,1,images/Ex6.jpg,right,training,hard,4,,,,,
,,,,,5d696d1c55742f001af29220,001,22,Female,British,A-Levels,2024-03-06_15h50.43.658,CRL1h,2023.2.3,MacIntel,60.24096386,65e67470ae2fbf2172c317b2,65e890bdf98eca7a2d3ad4f9,,,,,,,,,,,934.0252,0.8,934.8245,934.8246,935.558,left,1,0.7199,,935.558,936.5569,3,4,52,2,1,partial,1,images/Ex3.jpg,left,training,hard,4,,,,,
,,,,,5d696d1c55742f001af29220,001,22,Female,British,A-Levels,2024-03-06_15h50.43.658,CRL1h,2023.2.3,MacIntel,60.24096386,65e67470ae2fbf2172c317b2,65e890bdf98eca7a2d3ad4f9,,,,,,,,,,,936.5576,1.3,937.8569,937.8569,938.6795,right,1,0.8188,,938.6796,939.6747,3,5,53,4,1,partial,1,images/Ex5.jpg,right,training,hard,4,,,,,
,,,,,5d696d1c55742f001af29220,001,22,Female,British,A-Levels,2024-03-06_15h50.43.658,CRL1h,2023.2.3,MacIntel,60.24096386,65e67470ae2fbf2172c317b2,65e890bdf98eca7a2d3ad4f9,,,,,,,,,,,939.6755,0.5,940.1746,940.1746,940.8077,right,1,0.6225,,940.8077,941.808,3,6,54,13,1,partial,1,images/Ex6.jpg,right,training,hard,4,,,,,
,,,,,5d696d1c55742f001af29220,001,22,Female,British,A-Levels,2024-03-06_15h50.43.658,CRL1h,2023.2.3,MacIntel,60.24096386,65e67470ae2fbf2172c317b2,65e890bdf98eca7a2d3ad4f9,,,,,,,,,,,941.8087,1.1,942.9071,942.9072,943.6279,left,1,0.7171,,943.6279,944.6245,3,7,55,10,1,partial,1,images/Ex3.jpg,left,training,hard,4,,,,,
,,,,,5d696d1c55742f001af29220,001,22,Female,British,A-Levels,2024-03-06_15h50.43.658,CRL1h,2023.2.3,MacIntel,60.24096386,65e67470ae2fbf2172c317b2,65e890bdf98eca7a2d3ad4f9,,,,,,,,,,,944.6253,1.1,945.7244,945.7245,946.3955,left,1,0.667,,946.3956,947.3913,3,8,56,0,1,partial,1,images/Ex1.jpg,left,training,hard,4,,,,,
,,,,,5d696d1c55742f001af29220,001,22,Female,British,A-Levels,2024-03-06_15h50.43.658,CRL1h,2023.2.3,MacIntel,60.24096386,65e67470ae2fbf2172c317b2,65e890bdf98eca7a2d3ad4f9,,,,,,,,,,,947.392,0.8,948.1912,948.1913,948.807,right,1,0.6034,,948.807,949.808,3,9,57,6,1,partial,1,images/Ex7.jpg,right,training,hard,4,,,,,
,,,,,5d696d1c55742f001af29220,001,22,Female,British,A-Levels,2024-03-06_15h50.43.658,CRL1h,2023.2.3,MacIntel,60.24096386,65e67470ae2fbf2172c317b2,65e890bdf98eca7a2d3ad4f9,,,,,,,,,,,949.8087,0.9,950.7079,950.7079,951.1914,right,0,0.4708,,951.1915,952.1913,3,10,58,11,1,partial,1,images/Ex4.jpg,left,training,hard,4,,,,,
,,,,,5d696d1c55742f001af29220,001,22,Female,British,A-Levels,2024-03-06_15h50.43.658,CRL1h,2023.2.3,MacIntel,60.24096386,65e67470ae2fbf2172c317b2,65e890bdf98eca7a2d3ad4f9,,,,,,,,,,,952.1921,0.8,952.9913,952.9913,953.6415,right,1,0.6369,,953.6415,954.6413,3,11,59,12,1,partial,1,images/Ex5.jpg,right,training,hard,4,,,,,
,,,,,5d696d1c55742f001af29220,001,22,Female,British,A-Levels,2024-03-06_15h50.43.658,CRL1h,2023.2.3,MacIntel,60.24096386,65e67470ae2fbf2172c317b2,65e890bdf98eca7a2d3ad4f9,,,,,,,,,,,954.6421,1.4,956.0413,956.0414,956.825,left,1,0.7708,,956.8251,957.8247,3,12,60,3,1,partial,1,images/Ex4.jpg,left,training,hard,4,,,,,
,,,,,5d696d1c55742f001af29220,001,22,Female,British,A-Levels,2024-03-06_15h50.43.658,CRL1h,2023.2.3,MacIntel,60.24096386,65e67470ae2fbf2172c317b2,65e890bdf98eca7a2d3ad4f9,,,,,,,,,,,957.8255,1.5,959.3247,959.3247,960.8909,right,0,1.5534,,960.891,961.8914,3,13,61,8,1,partial,1,images/Ex1.jpg,left,training,hard,4,,,,,
,,,,,5d696d1c55742f001af29220,001,22,Female,British,A-Levels,2024-03-06_15h50.43.658,CRL1h,2023.2.3,MacIntel,60.24096386,65e67470ae2fbf2172c317b2,65e890bdf98eca7a2d3ad4f9,,,,,,,,,,,961.9025,1,962.8914,962.8914,963.5086,left,1,0.6078,,963.5087,964.508,3,14,62,1,1,partial,1,images/Ex2.jpg,left,training,hard,4,,,,,
,,,,,5d696d1c55742f001af29220,001,22,Female,British,A-Levels,2024-03-06_15h50.43.658,CRL1h,2023.2.3,MacIntel,60.24096386,65e67470ae2fbf2172c317b2,65e890bdf98eca7a2d3ad4f9,,,,,,,,,,,964.5086,0.5,965.008,965.0081,965.6571,right,1,0.6366,,965.6572,966.658,3,15,63,14,1,partial,1,images/Ex7.jpg,right,training,hard,4,,,,,
,,,,,5d696d1c55742f001af29220,001,22,Female,British,A-Levels,2024-03-06_15h50.43.658,CRL1h,2023.2.3,MacIntel,60.24096386,65e67470ae2fbf2172c317b2,65e890bdf98eca7a2d3ad4f9,,,,,,,,,,,966.6587,0.6,967.2583,967.2583,968.0082,right,1,0.7362,,968.0083,969.0081,4,0,64,12,1,partial,1,images/Ex5.jpg,right,training,hard,4,,,,,
,,,,,5d696d1c55742f001af29220,001,22,Female,British,A-Levels,2024-03-06_15h50.43.658,CRL1h,2023.2.3,MacIntel,60.24096386,65e67470ae2fbf2172c317b2,65e890bdf98eca7a2d3ad4f9,,,,,,,,,,,969.0089,1,970.008,970.008,970.5081,right,1,0.4873,,970.5082,971.508,4,1,65,4,1,partial,1,images/Ex5.jpg,right,training,hard,4,,,,,
,,,,,5d696d1c55742f001af29220,001,22,Female,British,A-Levels,2024-03-06_15h50.43.658,CRL1h,2023.2.3,MacIntel,60.24096386,65e67470ae2fbf2172c317b2,65e890bdf98eca7a2d3ad4f9,,,,,,,,,,,971.5088,1,972.5081,972.5081,973.0748,right,1,0.5584,,973.0748,974.0748,4,2,66,14,1,partial,1,images/Ex7.jpg,right,training,hard,4,,,,,
,,,,,5d696d1c55742f001af29220,001,22,Female,British,A-Levels,2024-03-06_15h50.43.658,CRL1h,2023.2.3,MacIntel,60.24096386,65e67470ae2fbf2172c317b2,65e890bdf98eca7a2d3ad4f9,,,,,,,,,,,974.0755,0.6,974.6747,974.6747,975.1748,left,1,0.488,,975.1749,976.1748,4,3,67,8,1,partial,1,images/Ex1.jpg,left,training,hard,4,,,,,
,,,,,5d696d1c55742f001af29220,001,22,Female,British,A-Levels,2024-03-06_15h50.43.658,CRL1h,2023.2.3,MacIntel,60.24096386,65e67470ae2fbf2172c317b2,65e890bdf98eca7a2d3ad4f9,,,,,,,,,,,976.1756,1.3,977.4748,977.4748,978.2092,left,1,0.721,,978.2092,979.208,4,4,68,10,1,partial,1,images/Ex3.jpg,left,training,hard,4,,,,,
,,,,,5d696d1c55742f001af29220,001,22,Female,British,A-Levels,2024-03-06_15h50.43.658,CRL1h,2023.2.3,MacIntel,60.24096386,65e67470ae2fbf2172c317b2,65e890bdf98eca7a2d3ad4f9,,,,,,,,,,,979.2086,1.1,980.3082,980.3082,980.7749,right,0,0.4582,,980.775,981.7749,4,5,69,3,1,partial,1,images/Ex4.jpg,left,training,hard,4,,,,,
,,,,,5d696d1c55742f001af29220,001,22,Female,British,A-Levels,2024-03-06_15h50.43.658,CRL1h,2023.2.3,MacIntel,60.24096386,65e67470ae2fbf2172c317b2,65e890bdf98eca7a2d3ad4f9,,,,,,,,,,,981.7756,1.4,983.1747,983.1748,983.7586,right,1,0.5707,,983.7586,984.7582,4,6,70,6,1,partial,1,images/Ex7.jpg,right,training,hard,4,,,,,
,,,,,5d696d1c55742f001af29220,001,22,Female,British,A-Levels,2024-03-06_15h50.43.658,CRL1h,2023.2.3,MacIntel,60.24096386,65e67470ae2fbf2172c317b2,65e890bdf98eca7a2d3ad4f9,,,,,,,,,,,984.7589,1.4,986.157,986.1571,987.1254,left,1,0.9561,,987.1255,988.125,4,7,71,2,1,partial,1,images/Ex3.jpg,left,training,hard,4,,,,,
,,,,,5d696d1c55742f001af29220,001,22,Female,British,A-Levels,2024-03-06_15h50.43.658,CRL1h,2023.2.3,MacIntel,60.24096386,65e67470ae2fbf2172c317b2,65e890bdf98eca7a2d3ad4f9,,,,,,,,,,,988.1257,1.1,989.2249,989.2249,989.8586,left,1,0.6214,,989.8586,990.8583,4,8,72,9,1,partial,1,images/Ex2.jpg,left,training,hard,4,,,,,
,,,,,5d696d1c55742f001af29220,001,22,Female,British,A-Levels,2024-03-06_15h50.43.658,CRL1h,2023.2.3,MacIntel,60.24096386,65e67470ae2fbf2172c317b2,65e890bdf98eca7a2d3ad4f9,,,,,,,,,,,990.8592,0.8,991.6582,991.6582,992.559,left,1,0.8869,,992.5591,993.5582,4,9,73,0,1,partial,1,images/Ex1.jpg,left,training,hard,4,,,,,
,,,,,5d696d1c55742f001af29220,001,22,Female,British,A-Levels,2024-03-06_15h50.43.658,CRL1h,2023.2.3,MacIntel,60.24096386,65e67470ae2fbf2172c317b2,65e890bdf98eca7a2d3ad4f9,,,,,,,,,,,993.559,1.3,994.8583,994.8583,995.5258,right,1,0.6581,,995.5259,996.5249,4,10,74,7,1,partial,1,images/Ex8.jpg,right,training,hard,4,,,,,
,,,,,5d696d1c55742f001af29220,001,22,Female,British,A-Levels,2024-03-06_15h50.43.658,CRL1h,2023.2.3,MacIntel,60.24096386,65e67470ae2fbf2172c317b2,65e890bdf98eca7a2d3ad4f9,,,,,,,,,,,996.5257,0.5,997.0243,997.0244,997.5086,right,1,0.4708,,997.5087,998.5082,4,11,75,5,1,partial,1,images/Ex6.jpg,right,training,hard,4,,,,,
,,,,,5d696d1c55742f001af29220,001,22,Female,British,A-Levels,2024-03-06_15h50.43.658,CRL1h,2023.2.3,MacIntel,60.24096386,65e67470ae2fbf2172c317b2,65e890bdf98eca7a2d3ad4f9,,,,,,,,,,,998.5088,1.4,999.9083,999.9084,1000.559,left,1,0.6373,,1000.559,1001.5584,4,12,76,1,1,partial,1,images/Ex2.jpg,left,training,hard,4,,,,,
,,,,,5d696d1c55742f001af29220,001,22,Female,British,A-Levels,2024-03-06_15h50.43.658,CRL1h,2023.2.3,MacIntel,60.24096386,65e67470ae2fbf2172c317b2,65e890bdf98eca7a2d3ad4f9,,,,,,,,,,,1001.5593,0.6,1002.1582,1002.1583,1002.9585,right,1,0.7872,,1002.9586,1003.9583,4,13,77,13,1,partial,1,images/Ex6.jpg,right,training,hard,4,,,,,
,,,,,5d696d1c55742f001af29220,001,22,Female,British,A-Levels,2024-03-06_15h50.43.658,CRL1h,2023.2.3,MacIntel,60.24096386,65e67470ae2fbf2172c317b2,65e890bdf98eca7a2d3ad4f9,,,,,,,,,,,1003.9591,1.1,1005.0583,1005.0584,1005.9424,left,1,0.8728,,1005.9424,1006.9417,4,14,78,11,1,partial,1,images/Ex4.jpg,left,training,hard,4,,,,,
,,,,,5d696d1c55742f001af29220,001,22,Female,British,A-Levels,2024-03-06_15h50.43.658,CRL1h,2023.2.3,MacIntel,60.24096386,65e67470ae2fbf2172c317b2,65e890bdf98eca7a2d3ad4f9,,,,,,,,,,,1006.9424,0.5,1007.4417,1007.4418,1008.0586,right,1,0.6037,,1008.0586,1009.0584,4,15,79,15,1,partial,1,images/Ex8.jpg,right,training,hard,4,,,,,
,,,,,5d696d1c55742f001af29220,001,22,Female,British,A-Levels,2024-03-06_15h50.43.658,CRL1h,2023.2.3,MacIntel,60.24096386,65e67470ae2fbf2172c317b2,65e890bdf98eca7a2d3ad4f9,,,,,,,,,,,1009.0591,0.5,1009.5583,1009.5584,1010.0909,right,1,0.5208,,1010.0909,1011.0916,5,0,80,15,1,partial,1,images/Ex8.jpg,right,training,hard,4,,,,,
,,,,,5d696d1c55742f001af29220,001,22,Female,British,A-Levels,2024-03-06_15h50.43.658,CRL1h,2023.2.3,MacIntel,60.24096386,65e67470ae2fbf2172c317b2,65e890bdf98eca7a2d3ad4f9,,,,,,,,,,,1011.0924,1,1012.0917,1012.0918,1012.5251,right,1,0.4203,,1012.5251,1013.5251,5,1,81,14,1,partial,1,images/Ex7.jpg,right,training,hard,4,,,,,
,,,,,5d696d1c55742f001af29220,001,22,Female,British,A-Levels,2024-03-06_15h50.43.658,CRL1h,2023.2.3,MacIntel,60.24096386,65e67470ae2fbf2172c317b2,65e890bdf98eca7a2d3ad4f9,,,,,,,,,,,1013.5258,1.2,1014.7251,1014.7252,1015.1946,right,1,0.4658,,1015.1947,1016.1918,5,2,82,6,1,partial,1,images/Ex7.jpg,right,training,hard,4,,,,,
,,,,,5d696d1c55742f001af29220,001,22,Female,British,A-Levels,2024-03-06_15h50.43.658,CRL1h,2023.2.3,MacIntel,60.24096386,65e67470ae2fbf2172c317b2,65e890bdf98eca7a2d3ad4f9,,,,,,,,,,,1016.1926,1.3,1017.4917,1017.4918,1018.1913,left,1,0.6874,,1018.1913,1019.1918,5,3,83,3,1,partial,1,images/Ex4.jpg,left,training,hard,4,,,,,
,,,,,5d696d1c55742f001af29220,001,22,Female,British,A-Levels,2024-03-06_15h50.43.658,CRL1h,2023.2.3,MacIntel,60.24096386,65e67470ae2fbf2172c317b2,65e890bdf98eca7a2d3ad4f9,,,,,,,,,,,1019.1925,0.9,1020.0917,1020.0918,1020.658,left,1,0.5555,,1020.6581,1021.6574,5,4,84,1,1,partial,1,images/Ex2.jpg,left,training,hard,4,,,,,
,,,,,5d696d1c55742f001af29220,001,22,Female,British,A-Levels,2024-03-06_15h50.43.658,CRL1h,2023.2.3,MacIntel,60.24096386,65e67470ae2fbf2172c317b2,65e890bdf98eca7a2d3ad4f9,,,,,,,,,,,1021.6578,1.3,1022.9584,1022.9585,1023.6424,right,1,0.6714,,1023.6425,1024.6418,5,5,85,4,1,partial,1,images/Ex5.jpg,right,training,hard,4,,,,,
,,,,,5d696d1c55742f001af29220,001,22,Female,British,A-Levels,2024-03-06_15h50.43.658,CRL1h,2023.2.3,MacIntel,60.24096386,65e67470ae2fbf2172c317b2,65e890bdf98eca7a2d3ad4f9,,,,,,,,,,,1024.6425,0.6,1025.2419,1025.2419,1025.8252,right,0,0.5721,,1025.8253,1026.8252,5,6,86,11,1,partial,1,images/Ex4.jpg,left,training,hard,4,,,,,
,,,,,5d696d1c55742f001af29220,001,22,Female,British,A-Levels,2024-03-06_15h50.43.658,CRL1h,2023.2.3,MacIntel,60.24096386,65e67470ae2fbf2172c317b2,65e890bdf98eca7a2d3ad4f9,,,,,,,,,,,1026.8258,0.6,1027.4252,1027.4252,1028.0086,left,1,0.5704,,1028.0087,1029.0085,5,7,87,9,1,partial,1,images/Ex2.jpg,left,training,hard,4,,,,,
,,,,,5d696d1c55742f001af29220,001,22,Female,British,A-Levels,2024-03-06_15h50.43.658,CRL1h,2023.2.3,MacIntel,60.24096386,65e67470ae2fbf2172c317b2,65e890bdf98eca7a2d3ad4f9,,,,,,,,,,,1029.0093,1.2,1030.2085,1030.2085,1030.9792,left,1,0.7672,,1030.9793,1031.9756,5,8,88,0,1,partial,1,images/Ex1.jpg,left,training,hard,4,,,,,
,,,,,5d696d1c55742f001af29220,001,22,Female,British,A-Levels,2024-03-06_15h50.43.658,CRL1h,2023.2.3,MacIntel,60.24096386,65e67470ae2fbf2172c317b2,65e890bdf98eca7a2d3ad4f9,,,,,,,,,,,1031.9764,0.5,1032.4752,1032.4753,1033.0916,left,1,0.6037,,1033.0917,1034.0918,5,9,89,10,1,partial,1,images/Ex3.jpg,left,training,hard,4,,,,,
,,,,,5d696d1c55742f001af29220,001,22,Female,British,A-Levels,2024-03-06_15h50.43.658,CRL1h,2023.2.3,MacIntel,60.24096386,65e67470ae2fbf2172c317b2,65e890bdf98eca7a2d3ad4f9,,,,,,,,,,,1034.0926,1.3,1035.3918,1035.3919,1035.8752,right,1,0.4708,,1035.8752,1036.8752,5,10,90,7,1,partial,1,images/Ex8.jpg,right,training,hard,4,,,,,
,,,,,5d696d1c55742f001af29220,001,22,Female,British,A-Levels,2024-03-06_15h50.43.658,CRL1h,2023.2.3,MacIntel,60.24096386,65e67470ae2fbf2172c317b2,65e890bdf98eca7a2d3ad4f9,,,,,,,,,,,1036.8759,0.7,1037.5752,1037.5754,1038.3586,left,1,0.7705,,1038.3586,1039.3585,5,11,91,8,1,partial,1,images/Ex1.jpg,left,training,hard,4,,,,,
,,,,,5d696d1c55742f001af29220,001,22,Female,British,A-Levels,2024-03-06_15h50.43.658,CRL1h,2023.2.3,MacIntel,60.24096386,65e67470ae2fbf2172c317b2,65e890bdf98eca7a2d3ad4f9,,,,,,,,,,,1039.3593,1.1,1040.4585,1040.4586,1041.0949,right,1,0.6327,,1041.095,1042.092,5,12,92,5,1,partial,1,images/Ex6.jpg,right,training,hard,4,,,,,
,,,,,5d696d1c55742f001af29220,001,22,Female,British,A-Levels,2024-03-06_15h50.43.658,CRL1h,2023.2.3,MacIntel,60.24096386,65e67470ae2fbf2172c317b2,65e890bdf98eca7a2d3ad4f9,,,,,,,,,,,1042.0927,1.3,1043.3921,1043.3921,1043.8469,right,1,0.451,,1043.847,1044.8419,5,13,93,13,1,partial,1,images/Ex6.jpg,right,training,hard,4,,,,,
,,,,,5d696d1c55742f001af29220,001,22,Female,British,A-Levels,2024-03-06_15h50.43.658,CRL1h,2023.2.3,MacIntel,60.24096386,65e67470ae2fbf2172c317b2,65e890bdf98eca7a2d3ad4f9,,,,,,,,,,,1044.8425,1.2,1046.042,1046.0421,1046.7252,right,0,0.6795,,1046.7253,1047.7253,5,14,94,2,1,partial,1,images/Ex3.jpg,left,training,hard,4,,,,,
,,,,,5d696d1c55742f001af29220,001,22,Female,British,A-Levels,2024-03-06_15h50.43.658,CRL1h,2023.2.3,MacIntel,60.24096386,65e67470ae2fbf2172c317b2,65e890bdf98eca7a2d3ad4f9,,,,,,,,,,,1047.726,1.5,1049.2245,1049.2245,1050.1929,right,1,0.9559,,1050.1929,1051.1919,5,15,95,12,1,partial,1,images/Ex5.jpg,right,training,hard,4,,,,,
,,,,,5d696d1c55742f001af29220,001,22,Female,British,A-Levels,2024-03-06_15h50.43.658,CRL1h,2023.2.3,MacIntel,60.24096386,65e67470ae2fbf2172c317b2,65e890bdf98eca7a2d3ad4f9,,,,,,,,,,,1051.1928,1.4,1052.5921,1052.5921,1053.4928,left,1,0.8868,,1053.4928,1054.4921,6,0,96,3,1,partial,1,images/Ex4.jpg,left,training,hard,4,,,,,
,,,,,5d696d1c55742f001af29220,001,22,Female,British,A-Levels,2024-03-06_15h50.43.658,CRL1h,2023.2.3,MacIntel,60.24096386,65e67470ae2fbf2172c317b2,65e890bdf98eca7a2d3ad4f9,,,,,,,,,,,1054.4929,1,1055.492,1055.4921,1056.2751,left,1,0.771,,1056.2752,1057.2754,6,1,97,10,1,partial,1,images/Ex3.jpg,left,training,hard,4,,,,,
,,,,,5d696d1c55742f001af29220,001,22,Female,British,A-Levels,2024-03-06_15h50.43.658,CRL1h,2023.2.3,MacIntel,60.24096386,65e67470ae2fbf2172c317b2,65e890bdf98eca7a2d3ad4f9,,,,,,,,,,,1057.2761,0.7,1057.9754,1057.9754,1058.6096,right,1,0.6324,,1058.6096,1059.6086,6,2,98,13,1,partial,1,images/Ex6.jpg,right,training,hard,4,,,,,
,,,,,5d696d1c55742f001af29220,001,22,Female,British,A-Levels,2024-03-06_15h50.43.658,CRL1h,2023.2.3,MacIntel,60.24096386,65e67470ae2fbf2172c317b2,65e890bdf98eca7a2d3ad4f9,,,,,,,,,,,1059.6095,1.1,1060.7077,1060.7078,1061.2631,left,1,0.5518,,1061.2632,1062.2586,6,3,99,1,1,partial,1,images/Ex2.jpg,left,training,hard,4,,,,,
,,,,,5d696d1c55742f001af29220,001,22,Female,British,A-Levels,2024-03-06_15h50.43.658,CRL1h,2023.2.3,MacIntel,60.24096386,65e67470ae2fbf2172c317b2,65e890bdf98eca7a2d3ad4f9,,,,,,,,,,,1062.2593,1.2,1063.4586,1063.4588,1064.1761,left,0,0.7064,,1064.1761,1065.1755,6,4,100,4,1,partial,1,images/Ex5.jpg,right,training,hard,4,,,,,
,,,,,5d696d1c55742f001af29220,001,22,Female,British,A-Levels,2024-03-06_15h50.43.658,CRL1h,2023.2.3,MacIntel,60.24096386,65e67470ae2fbf2172c317b2,65e890bdf98eca7a2d3ad4f9,,,,,,,,,,,1065.1763,1.4,1066.5755,1066.5756,1067.1927,right,1,0.6057,,1067.1928,1068.1922,6,5,101,12,1,partial,1,images/Ex5.jpg,right,training,hard,4,,,,,
,,,,,5d696d1c55742f001af29220,001,22,Female,British,A-Levels,2024-03-06_15h50.43.658,CRL1h,2023.2.3,MacIntel,60.24096386,65e67470ae2fbf2172c317b2,65e890bdf98eca7a2d3ad4f9,,,,,,,,,,,1068.1928,1,1069.1921,1069.1922,1069.7755,right,1,0.5742,,1069.7756,1070.7754,6,6,102,7,1,partial,1,images/Ex8.jpg,right,training,hard,4,,,,,
,,,,,5d696d1c55742f001af29220,001,22,Female,British,A-Levels,2024-03-06_15h50.43.658,CRL1h,2023.2.3,MacIntel,60.24096386,65e67470ae2fbf2172c317b2,65e890bdf98eca7a2d3ad4f9,,,,,,,,,,,1070.7759,0.5,1071.2745,1071.2745,1071.8255,left,1,0.5416,,1071.8256,1072.8255,6,7,103,9,1,partial,1,images/Ex2.jpg,left,training,hard,4,,,,,
,,,,,5d696d1c55742f001af29220,001,22,Female,British,A-Levels,2024-03-06_15h50.43.658,CRL1h,2023.2.3,MacIntel,60.24096386,65e67470ae2fbf2172c317b2,65e890bdf98eca7a2d3ad4f9,,,,,,,,,,,1072.8263,1.1,1073.9255,1073.9255,1075.3928,right,1,1.4542,,1075.3928,1076.3921,6,8,104,15,1,partial,1,images/Ex8.jpg,right,training,hard,4,,,,,
,,,,,5d696d1c55742f001af29220,001,22,Female,British,A-Levels,2024-03-06_15h50.43.658,CRL1h,2023.2.3,MacIntel,60.24096386,65e67470ae2fbf2172c317b2,65e890bdf98eca7a2d3ad4f9,,,,,,,,,,,1076.3928,1.4,1077.7918,1077.7919,1078.5616,left,1,0.7653,,1078.5617,1079.5589,6,9,105,0,1,partial,1,images/Ex1.jpg,left,training,hard,4,,,,,
,,,,,5d696d1c55742f001af29220,001,22,Female,British,A-Levels,2024-03-06_15h50.43.658,CRL1h,2023.2.3,MacIntel,60.24096386,65e67470ae2fbf2172c317b2,65e890bdf98eca7a2d3ad4f9,,,,,,,,,,,1079.5598,1,1080.5589,1080.5589,1081.1594,right,1,0.5876,,1081.1595,1082.1589,6,10,106,6,1,partial,1,images/Ex7.jpg,right,training,hard,4,,,,,
,,,,,5d696d1c55742f001af29220,001,22,Female,British,A-Levels,2024-03-06_15h50.43.658,CRL1h,2023.2.3,MacIntel,60.24096386,65e67470ae2fbf2172c317b2,65e890bdf98eca7a2d3ad4f9,,,,,,,,,,,1082.1595,1.4,1083.5589,1083.559,1084.3592,left,1,0.7908,,1084.3593,1085.359,6,11,107,2,1,partial,1,images/Ex3.jpg,left,training,hard,4,,,,,
,,,,,5d696d1c55742f001af29220,001,22,Female,British,A-Levels,2024-03-06_15h50.43.658,CRL1h,2023.2.3,MacIntel,60.24096386,65e67470ae2fbf2172c317b2,65e890bdf98eca7a2d3ad4f9,,,,,,,,,,,1085.3597,1.4,1086.7589,1086.759,1087.3482,right,1,0.5853,,1087.3482,1088.3423,6,12,108,14,1,partial,1,images/Ex7.jpg,right,training,hard,4,,,,,
,,,,,5d696d1c55742f001af29220,001,22,Female,British,A-Levels,2024-03-06_15h50.43.658,CRL1h,2023.2.3,MacIntel,60.24096386,65e67470ae2fbf2172c317b2,65e890bdf98eca7a2d3ad4f9,,,,,,,,,,,1088.343,0.8,1089.1422,1089.1424,1089.709,left,1,0.554,,1089.709,1090.709,6,13,109,8,1,partial,1,images/Ex1.jpg,left,training,hard,4,,,,,
,,,,,5d696d1c55742f001af29220,001,22,Female,British,A-Levels,2024-03-06_15h50.43.658,CRL1h,2023.2.3,MacIntel,60.24096386,65e67470ae2fbf2172c317b2,65e890bdf98eca7a2d3ad4f9,,,,,,,,,,,1090.7097,1,1091.7089,1091.709,1093.093,left,1,1.3713,,1093.0931,1094.0924,6,14,110,11,1,partial,1,images/Ex4.jpg,left,training,hard,4,,,,,
,,,,,5d696d1c55742f001af29220,001,22,Female,British,A-Levels,2024-03-06_15h50.43.658,CRL1h,2023.2.3,MacIntel,60.24096386,65e67470ae2fbf2172c317b2,65e890bdf98eca7a2d3ad4f9,,,,,,,,,,,1094.0932,1.4,1095.4924,1095.4924,1096.0429,right,1,0.5375,,1096.0429,1097.0422,6,15,111,5,1,partial,1,images/Ex6.jpg,right,training,hard,4,,,,,
,,,,,5d696d1c55742f001af29220,001,22,Female,British,A-Levels,2024-03-06_15h50.43.658,CRL1h,2023.2.3,MacIntel,60.24096386,65e67470ae2fbf2172c317b2,65e890bdf98eca7a2d3ad4f9,,,,,,,,,,,1097.0429,1.2,1098.2424,1098.2424,1098.8983,left,1,0.6522,,1098.8984,1099.8924,7,0,112,1,1,partial,1,images/Ex2.jpg,left,training,hard,4,,,,,
,,,,,5d696d1c55742f001af29220,001,22,Female,British,A-Levels,2024-03-06_15h50.43.658,CRL1h,2023.2.3,MacIntel,60.24096386,65e67470ae2fbf2172c317b2,65e890bdf98eca7a2d3ad4f9,,,,,,,,,,,1099.8932,0.8,1100.6923,1100.6924,1101.1925,right,1,0.4894,,1101.1925,1102.1922,7,1,113,6,1,partial,1,images/Ex7.jpg,right,training,hard,4,,,,,
,,,,,5d696d1c55742f001af29220,001,22,Female,British,A-Levels,2024-03-06_15h50.43.658,CRL1h,2023.2.3,MacIntel,60.24096386,65e67470ae2fbf2172c317b2,65e890bdf98eca7a2d3ad4f9,,,,,,,,,,,1102.1928,1.1,1103.2924,1103.2925,1103.9763,left,0,0.673,,1103.9764,1104.9758,7,2,114,15,1,partial,1,images/Ex8.jpg,right,training,hard,4,,,,,
,,,,,5d696d1c55742f001af29220,001,22,Female,British,A-Levels,2024-03-06_15h50.43.658,CRL1h,2023.2.3,MacIntel,60.24096386,65e67470ae2fbf2172c317b2,65e890bdf98eca7a2d3ad4f9,,,,,,,,,,,1104.9765,0.8,1105.7755,1105.7755,1106.3758,left,1,0.591,,1106.3758,1107.3759,7,3,115,0,1,partial,1,images/Ex1.jpg,left,training,hard,4,,,,,
,,,,,5d696d1c55742f001af29220,001,22,Female,British,A-Levels,2024-03-06_15h50.43.658,CRL1h,2023.2.3,MacIntel,60.24096386,65e67470ae2fbf2172c317b2,65e890bdf98eca7a2d3ad4f9,,,,,,,,,,,1107.3766,1.4,1108.7751,1108.7752,1109.3441,right,1,0.5649,,1109.3442,1110.3416,7,4,116,12,1,partial,1,images/Ex5.jpg,right,training,hard,4,,,,,
,,,,,5d696d1c55742f001af29220,001,22,Female,British,A-Levels,2024-03-06_15h50.43.658,CRL1h,2023.2.3,MacIntel,60.24096386,65e67470ae2fbf2172c317b2,65e890bdf98eca7a2d3ad4f9,,,,,,,,,,,1110.3423,1,1111.3425,1111.3426,1112.0766,right,0,0.7212,,1112.0767,1113.0757,7,5,117,3,1,partial,1,images/Ex4.jpg,left,training,hard,4,,,,,
,,,,,5d696d1c55742f001af29220,001,22,Female,British,A-Levels,2024-03-06_15h50.43.658,CRL1h,2023.2.3,MacIntel,60.24096386,65e67470ae2fbf2172c317b2,65e890bdf98eca7a2d3ad4f9,,,,,,,,,,,1113.0764,0.9,1113.9759,1113.9759,1114.6796,right,1,0.6998,,1114.6797,1115.6758,7,6,118,14,1,partial,1,images/Ex7.jpg,right,training,hard,4,,,,,
