infCons.started,infCons.stopped,resp_consent.keys,resp_consent.rt,resp_consent.duration,participant,session,Age?,Gender?,Nationality?,Highest Educational Degree?,date,expName,psychopyVersion,OS,frameRate,STUDY_ID,SESSION_ID,instructions.started,instructions.stopped,resp_instructions.keys,resp_instructions.rt,resp_instructions.duration,nextTask.started,nextTask.stopped,ready_task.keys,ready_task.rt,ready_task.duration,fixation.started,ITI,fixation.stopped,stim.started,stim.stopped,response.keys,response.corr,response.rt,response.duration,feedback.started,feedback.stopped,trials.thisRepN,trials.thisTrialN,trials.thisN,trials.thisIndex,trials.ran,task,phase,Exemplars,r_correct,condition,difficulty,set,end.started,end.stopped,resp_end.keys,resp_end.rt,resp_end.duration
1E-04,121.6381,space,121.6217,,5f75d01a857e4e27a575f7ca,001,42,female,British,Bachelors Degree,2024-03-06_15h05.05.880,CRL1h,2023.2.3,Win32,74.07407407,65e67470ae2fbf2172c317b2,65e885b59df01e3e2177f9af,,,,,,,,,,,,,,,,,,,,,,,,,,,,,,,,,,,,,,
,,,,,5f75d01a857e4e27a575f7ca,001,42,female,British,Bachelors Degree,2024-03-06_15h05.05.880,CRL1h,2023.2.3,Win32,74.07407407,65e67470ae2fbf2172c317b2,65e885b59df01e3e2177f9af,121.6382,206.5494,space,84.889,,,,,,,,,,,,,,,,,,,,,,,,,,,,,,,,,,
,,,,,5f75d01a857e4e27a575f7ca,001,42,female,British,Bachelors Degree,2024-03-06_15h05.05.880,CRL1h,2023.2.3,Win32,74.07407407,65e67470ae2fbf2172c317b2,65e885b59df01e3e2177f9af,,,,,,206.5577,210.991,space,4.4167,,210.9989,1.3,212.2974,212.2976,216.4058,left,1,4.0941,,216.4115,217.4058,0,0,0,2,1,partial,1,images/Ex3.jpg,left,training,hard,4,,,,,
,,,,,5f75d01a857e4e27a575f7ca,001,42,female,British,Bachelors Degree,2024-03-06_15h05.05.880,CRL1h,2023.2.3,Win32,74.07407407,65e67470ae2fbf2172c317b2,65e885b59df01e3e2177f9af,,,,,,,,,,,217.4062,0.6,218.0058,218.0058,219.8203,right,0,1.8023,,219.8203,220.8204,0,1,1,3,1,partial,1,images/Ex4.jpg,left,training,hard,4,,,,,
,,,,,5f75d01a857e4e27a575f7ca,001,42,female,British,Bachelors Degree,2024-03-06_15h05.05.880,CRL1h,2023.2.3,Win32,74.07407407,65e67470ae2fbf2172c317b2,65e885b59df01e3e2177f9af,,,,,,,,,,,220.8209,0.9,221.7138,221.7138,223.9418,left,0,2.217,,223.9419,224.9419,0,2,2,6,1,partial,1,images/Ex7.jpg,right,training,hard,4,,,,,
,,,,,5f75d01a857e4e27a575f7ca,001,42,female,British,Bachelors Degree,2024-03-06_15h05.05.880,CRL1h,2023.2.3,Win32,74.07407407,65e67470ae2fbf2172c317b2,65e885b59df01e3e2177f9af,,,,,,,,,,,224.9483,0.7,225.6484,225.6485,227.743,right,0,2.0868,,227.743,228.7431,0,3,3,8,1,partial,1,images/Ex1.jpg,left,training,hard,4,,,,,
,,,,,5f75d01a857e4e27a575f7ca,001,42,female,British,Bachelors Degree,2024-03-06_15h05.05.880,CRL1h,2023.2.3,Win32,74.07407407,65e67470ae2fbf2172c317b2,65e885b59df01e3e2177f9af,,,,,,,,,,,228.7496,0.7,229.4503,229.4504,232.2776,left,0,2.8257,,232.2776,233.2783,0,4,4,13,1,partial,1,images/Ex6.jpg,right,training,hard,4,,,,,
,,,,,5f75d01a857e4e27a575f7ca,001,42,female,British,Bachelors Degree,2024-03-06_15h05.05.880,CRL1h,2023.2.3,Win32,74.07407407,65e67470ae2fbf2172c317b2,65e885b59df01e3e2177f9af,,,,,,,,,,,233.2842,1.5,234.7855,234.7855,236.0128,left,0,1.2156,,236.0129,237.0129,0,5,5,15,1,partial,1,images/Ex8.jpg,right,training,hard,4,,,,,
,,,,,5f75d01a857e4e27a575f7ca,001,42,female,British,Bachelors Degree,2024-03-06_15h05.05.880,CRL1h,2023.2.3,Win32,74.07407407,65e67470ae2fbf2172c317b2,65e885b59df01e3e2177f9af,,,,,,,,,,,237.0133,0.5,237.5065,237.5065,240.3209,left,0,2.8089,,240.321,241.3213,0,6,6,14,1,partial,1,images/Ex7.jpg,right,training,hard,4,,,,,
,,,,,5f75d01a857e4e27a575f7ca,001,42,female,British,Bachelors Degree,2024-03-06_15h05.05.880,CRL1h,2023.2.3,Win32,74.07407407,65e67470ae2fbf2172c317b2,65e885b59df01e3e2177f9af,,,,,,,,,,,241.3277,0.7,242.0279,242.0279,243.5889,right,0,1.5486,,243.5891,244.589,0,7,7,1,1,partial,1,images/Ex2.jpg,left,training,hard,4,,,,,
,,,,,5f75d01a857e4e27a575f7ca,001,42,female,British,Bachelors Degree,2024-03-06_15h05.05.880,CRL1h,2023.2.3,Win32,74.07407407,65e67470ae2fbf2172c317b2,65e885b59df01e3e2177f9af,,,,,,,,,,,244.5959,0.6,245.1893,245.1893,246.4429,left,0,1.2481,,246.4429,247.4432,0,8,8,7,1,partial,1,images/Ex8.jpg,right,training,hard,4,,,,,
,,,,,5f75d01a857e4e27a575f7ca,001,42,female,British,Bachelors Degree,2024-03-06_15h05.05.880,CRL1h,2023.2.3,Win32,74.07407407,65e67470ae2fbf2172c317b2,65e885b59df01e3e2177f9af,,,,,,,,,,,247.4438,1,248.4436,248.4436,251.1515,right,1,2.7016,,251.1516,252.1524,0,9,9,12,1,partial,1,images/Ex5.jpg,right,training,hard,4,,,,,
,,,,,5f75d01a857e4e27a575f7ca,001,42,female,British,Bachelors Degree,2024-03-06_15h05.05.880,CRL1h,2023.2.3,Win32,74.07407407,65e67470ae2fbf2172c317b2,65e885b59df01e3e2177f9af,,,,,,,,,,,252.1593,1.1,253.2591,253.2591,254.059,right,1,0.7954,,254.059,255.0599,0,10,10,5,1,partial,1,images/Ex6.jpg,right,training,hard,4,,,,,
,,,,,5f75d01a857e4e27a575f7ca,001,42,female,British,Bachelors Degree,2024-03-06_15h05.05.880,CRL1h,2023.2.3,Win32,74.07407407,65e67470ae2fbf2172c317b2,65e885b59df01e3e2177f9af,,,,,,,,,,,255.0605,0.5,255.553,255.5531,256.727,right,0,1.1666,,256.727,257.7269,0,11,11,0,1,partial,1,images/Ex1.jpg,left,training,hard,4,,,,,
,,,,,5f75d01a857e4e27a575f7ca,001,42,female,British,Bachelors Degree,2024-03-06_15h05.05.880,CRL1h,2023.2.3,Win32,74.07407407,65e67470ae2fbf2172c317b2,65e885b59df01e3e2177f9af,,,,,,,,,,,257.7271,1.3,259.0213,259.0213,260.9819,right,1,1.9497,,260.982,261.9822,0,12,12,4,1,partial,1,images/Ex5.jpg,right,training,hard,4,,,,,
,,,,,5f75d01a857e4e27a575f7ca,001,42,female,British,Bachelors Degree,2024-03-06_15h05.05.880,CRL1h,2023.2.3,Win32,74.07407407,65e67470ae2fbf2172c317b2,65e885b59df01e3e2177f9af,,,,,,,,,,,261.9828,1.1,263.0755,263.0755,265.0101,right,0,1.9285,,265.0101,266.01,0,13,13,9,1,partial,1,images/Ex2.jpg,left,training,hard,4,,,,,
,,,,,5f75d01a857e4e27a575f7ca,001,42,female,British,Bachelors Degree,2024-03-06_15h05.05.880,CRL1h,2023.2.3,Win32,74.07407407,65e67470ae2fbf2172c317b2,65e885b59df01e3e2177f9af,,,,,,,,,,,266.0104,1.1,267.104,267.1041,269.1982,left,1,2.0876,,269.1982,270.1986,0,14,14,11,1,partial,1,images/Ex4.jpg,left,training,hard,4,,,,,
,,,,,5f75d01a857e4e27a575f7ca,001,42,female,British,Bachelors Degree,2024-03-06_15h05.05.880,CRL1h,2023.2.3,Win32,74.07407407,65e67470ae2fbf2172c317b2,65e885b59df01e3e2177f9af,,,,,,,,,,,270.1991,1.3,271.4922,271.4923,272.7457,right,0,1.2472,,272.7458,273.7461,0,15,15,10,1,partial,1,images/Ex3.jpg,left,training,hard,4,,,,,
,,,,,5f75d01a857e4e27a575f7ca,001,42,female,British,Bachelors Degree,2024-03-06_15h05.05.880,CRL1h,2023.2.3,Win32,74.07407407,65e67470ae2fbf2172c317b2,65e885b59df01e3e2177f9af,,,,,,,,,,,273.7465,1,274.7465,274.7466,276.0138,left,1,1.2644,,276.0138,277.0144,1,0,16,11,1,partial,1,images/Ex4.jpg,left,training,hard,4,,,,,
,,,,,5f75d01a857e4e27a575f7ca,001,42,female,British,Bachelors Degree,2024-03-06_15h05.05.880,CRL1h,2023.2.3,Win32,74.07407407,65e67470ae2fbf2172c317b2,65e885b59df01e3e2177f9af,,,,,,,,,,,277.015,1.2,278.2174,278.2174,279.202,left,0,0.9784,,279.2021,280.2021,1,1,17,13,1,partial,1,images/Ex6.jpg,right,training,hard,4,,,,,
,,,,,5f75d01a857e4e27a575f7ca,001,42,female,British,Bachelors Degree,2024-03-06_15h05.05.880,CRL1h,2023.2.3,Win32,74.07407407,65e67470ae2fbf2172c317b2,65e885b59df01e3e2177f9af,,,,,,,,,,,280.2026,1.4,281.6029,281.6029,283.6969,left,0,2.0889,,283.6969,284.6971,1,2,18,6,1,partial,1,images/Ex7.jpg,right,training,hard,4,,,,,
,,,,,5f75d01a857e4e27a575f7ca,001,42,female,British,Bachelors Degree,2024-03-06_15h05.05.880,CRL1h,2023.2.3,Win32,74.07407407,65e67470ae2fbf2172c317b2,65e885b59df01e3e2177f9af,,,,,,,,,,,284.7031,0.7,285.404,285.4041,286.7646,right,1,1.3516,,286.7647,287.7649,1,3,19,15,1,partial,1,images/Ex8.jpg,right,training,hard,4,,,,,
,,,,,5f75d01a857e4e27a575f7ca,001,42,female,British,Bachelors Degree,2024-03-06_15h05.05.880,CRL1h,2023.2.3,Win32,74.07407407,65e67470ae2fbf2172c317b2,65e885b59df01e3e2177f9af,,,,,,,,,,,287.7653,1.1,288.8586,288.8586,289.6193,right,0,0.753,,289.6193,290.6193,1,4,20,10,1,partial,1,images/Ex3.jpg,left,training,hard,4,,,,,
,,,,,5f75d01a857e4e27a575f7ca,001,42,female,British,Bachelors Degree,2024-03-06_15h05.05.880,CRL1h,2023.2.3,Win32,74.07407407,65e67470ae2fbf2172c317b2,65e885b59df01e3e2177f9af,,,,,,,,,,,290.6197,0.5,291.1129,291.1129,292.0997,right,0,0.9846,,292.0997,293.1003,1,5,21,8,1,partial,1,images/Ex1.jpg,left,training,hard,4,,,,,
,,,,,5f75d01a857e4e27a575f7ca,001,42,female,British,Bachelors Degree,2024-03-06_15h05.05.880,CRL1h,2023.2.3,Win32,74.07407407,65e67470ae2fbf2172c317b2,65e885b59df01e3e2177f9af,,,,,,,,,,,293.1007,0.8,293.9005,293.9005,295.3012,right,1,1.3911,,295.3012,296.3015,1,6,22,4,1,partial,1,images/Ex5.jpg,right,training,hard,4,,,,,
,,,,,5f75d01a857e4e27a575f7ca,001,42,female,British,Bachelors Degree,2024-03-06_15h05.05.880,CRL1h,2023.2.3,Win32,74.07407407,65e67470ae2fbf2172c317b2,65e885b59df01e3e2177f9af,,,,,,,,,,,296.3019,1.2,297.5019,297.5019,299.4758,left,0,1.9644,,299.4758,300.476,1,7,23,14,1,partial,1,images/Ex7.jpg,right,training,hard,4,,,,,
,,,,,5f75d01a857e4e27a575f7ca,001,42,female,British,Bachelors Degree,2024-03-06_15h05.05.880,CRL1h,2023.2.3,Win32,74.07407407,65e67470ae2fbf2172c317b2,65e885b59df01e3e2177f9af,,,,,,,,,,,300.4763,1.4,301.8766,301.8766,303.6108,right,0,1.7247,,303.6109,304.611,1,8,24,1,1,partial,1,images/Ex2.jpg,left,training,hard,4,,,,,
,,,,,5f75d01a857e4e27a575f7ca,001,42,female,British,Bachelors Degree,2024-03-06_15h05.05.880,CRL1h,2023.2.3,Win32,74.07407407,65e67470ae2fbf2172c317b2,65e885b59df01e3e2177f9af,,,,,,,,,,,304.6115,0.7,305.3047,305.3047,306.372,left,1,1.0592,,306.3721,307.3721,1,9,25,9,1,partial,1,images/Ex2.jpg,left,training,hard,4,,,,,
,,,,,5f75d01a857e4e27a575f7ca,001,42,female,British,Bachelors Degree,2024-03-06_15h05.05.880,CRL1h,2023.2.3,Win32,74.07407407,65e67470ae2fbf2172c317b2,65e885b59df01e3e2177f9af,,,,,,,,,,,307.3725,1.4,308.7724,308.7724,310.7336,left,1,1.9519,,310.7336,311.7336,1,10,26,3,1,partial,1,images/Ex4.jpg,left,training,hard,4,,,,,
,,,,,5f75d01a857e4e27a575f7ca,001,42,female,British,Bachelors Degree,2024-03-06_15h05.05.880,CRL1h,2023.2.3,Win32,74.07407407,65e67470ae2fbf2172c317b2,65e885b59df01e3e2177f9af,,,,,,,,,,,311.7341,0.8,312.534,312.534,314.7083,left,1,2.1625,,314.7083,315.7085,1,11,27,0,1,partial,1,images/Ex1.jpg,left,training,hard,4,,,,,
,,,,,5f75d01a857e4e27a575f7ca,001,42,female,British,Bachelors Degree,2024-03-06_15h05.05.880,CRL1h,2023.2.3,Win32,74.07407407,65e67470ae2fbf2172c317b2,65e885b59df01e3e2177f9af,,,,,,,,,,,315.7146,1.4,317.1089,317.1089,318.1095,left,0,0.9882,,318.1096,319.1095,1,12,28,7,1,partial,1,images/Ex8.jpg,right,training,hard,4,,,,,
,,,,,5f75d01a857e4e27a575f7ca,001,42,female,British,Bachelors Degree,2024-03-06_15h05.05.880,CRL1h,2023.2.3,Win32,74.07407407,65e67470ae2fbf2172c317b2,65e885b59df01e3e2177f9af,,,,,,,,,,,319.1098,1.4,320.5103,320.5103,322.0043,left,0,1.4825,,322.0045,323.0044,1,13,29,5,1,partial,1,images/Ex6.jpg,right,training,hard,4,,,,,
,,,,,5f75d01a857e4e27a575f7ca,001,42,female,British,Bachelors Degree,2024-03-06_15h05.05.880,CRL1h,2023.2.3,Win32,74.07407407,65e67470ae2fbf2172c317b2,65e885b59df01e3e2177f9af,,,,,,,,,,,323.0106,0.8,323.8046,323.8046,325.0183,left,0,1.2071,,325.0184,326.019,1,14,30,12,1,partial,1,images/Ex5.jpg,right,training,hard,4,,,,,
,,,,,5f75d01a857e4e27a575f7ca,001,42,female,British,Bachelors Degree,2024-03-06_15h05.05.880,CRL1h,2023.2.3,Win32,74.07407407,65e67470ae2fbf2172c317b2,65e885b59df01e3e2177f9af,,,,,,,,,,,326.0193,1.3,327.3129,327.313,328.66,left,1,1.3406,,328.6601,329.6606,1,15,31,2,1,partial,1,images/Ex3.jpg,left,training,hard,4,,,,,
,,,,,5f75d01a857e4e27a575f7ca,001,42,female,British,Bachelors Degree,2024-03-06_15h05.05.880,CRL1h,2023.2.3,Win32,74.07407407,65e67470ae2fbf2172c317b2,65e885b59df01e3e2177f9af,,,,,,,,,,,329.661,1.2,330.8612,330.8612,332.2877,right,1,1.4172,,332.2878,333.2884,2,0,32,5,1,partial,1,images/Ex6.jpg,right,training,hard,4,,,,,
,,,,,5f75d01a857e4e27a575f7ca,001,42,female,British,Bachelors Degree,2024-03-06_15h05.05.880,CRL1h,2023.2.3,Win32,74.07407407,65e67470ae2fbf2172c317b2,65e885b59df01e3e2177f9af,,,,,,,,,,,333.2888,1.4,334.6884,334.6885,335.8094,right,1,1.1169,,335.8095,336.8094,2,1,33,7,1,partial,1,images/Ex8.jpg,right,training,hard,4,,,,,
,,,,,5f75d01a857e4e27a575f7ca,001,42,female,British,Bachelors Degree,2024-03-06_15h05.05.880,CRL1h,2023.2.3,Win32,74.07407407,65e67470ae2fbf2172c317b2,65e885b59df01e3e2177f9af,,,,,,,,,,,336.8164,1.4,338.2107,338.2107,339.1172,right,0,0.901,,339.1173,340.1175,2,2,34,9,1,partial,1,images/Ex2.jpg,left,training,hard,4,,,,,
,,,,,5f75d01a857e4e27a575f7ca,001,42,female,British,Bachelors Degree,2024-03-06_15h05.05.880,CRL1h,2023.2.3,Win32,74.07407407,65e67470ae2fbf2172c317b2,65e885b59df01e3e2177f9af,,,,,,,,,,,340.1178,0.9,341.0112,341.0112,341.531,left,1,0.5188,,341.531,342.5317,2,3,35,1,1,partial,1,images/Ex2.jpg,left,training,hard,4,,,,,
,,,,,5f75d01a857e4e27a575f7ca,001,42,female,British,Bachelors Degree,2024-03-06_15h05.05.880,CRL1h,2023.2.3,Win32,74.07407407,65e67470ae2fbf2172c317b2,65e885b59df01e3e2177f9af,,,,,,,,,,,342.532,0.6,343.1317,343.1317,345.1724,left,0,2.0393,,345.1724,346.1732,2,4,36,4,1,partial,1,images/Ex5.jpg,right,training,hard,4,,,,,
,,,,,5f75d01a857e4e27a575f7ca,001,42,female,British,Bachelors Degree,2024-03-06_15h05.05.880,CRL1h,2023.2.3,Win32,74.07407407,65e67470ae2fbf2172c317b2,65e885b59df01e3e2177f9af,,,,,,,,,,,346.1735,0.9,347.0663,347.0663,348.467,right,1,1.3992,,348.467,349.4676,2,5,37,6,1,partial,1,images/Ex7.jpg,right,training,hard,4,,,,,
,,,,,5f75d01a857e4e27a575f7ca,001,42,female,British,Bachelors Degree,2024-03-06_15h05.05.880,CRL1h,2023.2.3,Win32,74.07407407,65e67470ae2fbf2172c317b2,65e885b59df01e3e2177f9af,,,,,,,,,,,349.4681,1,350.4679,350.4679,351.242,right,0,0.7692,,351.242,352.242,2,6,38,2,1,partial,1,images/Ex3.jpg,left,training,hard,4,,,,,
,,,,,5f75d01a857e4e27a575f7ca,001,42,female,British,Bachelors Degree,2024-03-06_15h05.05.880,CRL1h,2023.2.3,Win32,74.07407407,65e67470ae2fbf2172c317b2,65e885b59df01e3e2177f9af,,,,,,,,,,,352.2425,1.1,353.3355,353.3356,354.5898,right,0,1.2483,,354.5899,355.5899,2,7,39,3,1,partial,1,images/Ex4.jpg,left,training,hard,4,,,,,
,,,,,5f75d01a857e4e27a575f7ca,001,42,female,British,Bachelors Degree,2024-03-06_15h05.05.880,CRL1h,2023.2.3,Win32,74.07407407,65e67470ae2fbf2172c317b2,65e885b59df01e3e2177f9af,,,,,,,,,,,355.5904,1.3,356.8838,356.8839,359.2044,left,1,2.3102,,359.2045,360.2045,2,8,40,0,1,partial,1,images/Ex1.jpg,left,training,hard,4,,,,,
,,,,,5f75d01a857e4e27a575f7ca,001,42,female,British,Bachelors Degree,2024-03-06_15h05.05.880,CRL1h,2023.2.3,Win32,74.07407407,65e67470ae2fbf2172c317b2,65e885b59df01e3e2177f9af,,,,,,,,,,,360.2048,1.3,361.4988,361.499,362.9393,left,1,1.4305,,362.9393,363.9397,2,9,41,11,1,partial,1,images/Ex4.jpg,left,training,hard,4,,,,,
,,,,,5f75d01a857e4e27a575f7ca,001,42,female,British,Bachelors Degree,2024-03-06_15h05.05.880,CRL1h,2023.2.3,Win32,74.07407407,65e67470ae2fbf2172c317b2,65e885b59df01e3e2177f9af,,,,,,,,,,,363.9403,1.2,365.1434,365.1434,366.2739,left,1,1.1222,,366.274,367.2738,2,10,42,8,1,partial,1,images/Ex1.jpg,left,training,hard,4,,,,,
,,,,,5f75d01a857e4e27a575f7ca,001,42,female,British,Bachelors Degree,2024-03-06_15h05.05.880,CRL1h,2023.2.3,Win32,74.07407407,65e67470ae2fbf2172c317b2,65e885b59df01e3e2177f9af,,,,,,,,,,,367.2745,0.6,367.8741,367.8741,368.8879,left,0,1.0023,,368.8879,369.8884,2,11,43,12,1,partial,1,images/Ex5.jpg,right,training,hard,4,,,,,
,,,,,5f75d01a857e4e27a575f7ca,001,42,female,British,Bachelors Degree,2024-03-06_15h05.05.880,CRL1h,2023.2.3,Win32,74.07407407,65e67470ae2fbf2172c317b2,65e885b59df01e3e2177f9af,,,,,,,,,,,369.8891,0.6,370.4884,370.4885,371.3957,left,0,0.9021,,371.3958,372.3957,2,12,44,14,1,partial,1,images/Ex7.jpg,right,training,hard,4,,,,,
,,,,,5f75d01a857e4e27a575f7ca,001,42,female,British,Bachelors Degree,2024-03-06_15h05.05.880,CRL1h,2023.2.3,Win32,74.07407407,65e67470ae2fbf2172c317b2,65e885b59df01e3e2177f9af,,,,,,,,,,,372.3961,0.6,372.9959,372.9959,374.3703,right,1,1.3627,,374.3703,375.37,2,13,45,13,1,partial,1,images/Ex6.jpg,right,training,hard,4,,,,,
,,,,,5f75d01a857e4e27a575f7ca,001,42,female,British,Bachelors Degree,2024-03-06_15h05.05.880,CRL1h,2023.2.3,Win32,74.07407407,65e67470ae2fbf2172c317b2,65e885b59df01e3e2177f9af,,,,,,,,,,,375.3703,0.6,375.9708,375.9708,376.5041,right,1,0.5289,,376.5041,377.5045,2,14,46,15,1,partial,1,images/Ex8.jpg,right,training,hard,4,,,,,
,,,,,5f75d01a857e4e27a575f7ca,001,42,female,British,Bachelors Degree,2024-03-06_15h05.05.880,CRL1h,2023.2.3,Win32,74.07407407,65e67470ae2fbf2172c317b2,65e885b59df01e3e2177f9af,,,,,,,,,,,377.5048,1.1,378.5983,378.5983,379.1185,right,0,0.5169,,379.1186,380.1189,2,15,47,10,1,partial,1,images/Ex3.jpg,left,training,hard,4,,,,,
,,,,,5f75d01a857e4e27a575f7ca,001,42,female,British,Bachelors Degree,2024-03-06_15h05.05.880,CRL1h,2023.2.3,Win32,74.07407407,65e67470ae2fbf2172c317b2,65e885b59df01e3e2177f9af,,,,,,,,,,,380.1195,1.5,381.6125,381.6127,382.3862,left,0,0.7698,,382.3862,383.3869,3,0,48,12,1,partial,1,images/Ex5.jpg,right,training,hard,4,,,,,
,,,,,5f75d01a857e4e27a575f7ca,001,42,female,British,Bachelors Degree,2024-03-06_15h05.05.880,CRL1h,2023.2.3,Win32,74.07407407,65e67470ae2fbf2172c317b2,65e885b59df01e3e2177f9af,,,,,,,,,,,383.3873,1.2,384.587,384.587,385.4275,right,0,0.8288,,385.4276,386.4275,3,1,49,0,1,partial,1,images/Ex1.jpg,left,training,hard,4,,,,,
,,,,,5f75d01a857e4e27a575f7ca,001,42,female,British,Bachelors Degree,2024-03-06_15h05.05.880,CRL1h,2023.2.3,Win32,74.07407407,65e67470ae2fbf2172c317b2,65e885b59df01e3e2177f9af,,,,,,,,,,,386.4277,1.4,387.8283,387.8283,388.4956,left,0,0.6622,,388.4957,389.4953,3,2,50,6,1,partial,1,images/Ex7.jpg,right,training,hard,4,,,,,
,,,,,5f75d01a857e4e27a575f7ca,001,42,female,British,Bachelors Degree,2024-03-06_15h05.05.880,CRL1h,2023.2.3,Win32,74.07407407,65e67470ae2fbf2172c317b2,65e885b59df01e3e2177f9af,,,,,,,,,,,389.4958,0.8,390.2957,390.2957,391.3762,left,1,1.076,,391.3762,392.3764,3,3,51,9,1,partial,1,images/Ex2.jpg,left,training,hard,4,,,,,
,,,,,5f75d01a857e4e27a575f7ca,001,42,female,British,Bachelors Degree,2024-03-06_15h05.05.880,CRL1h,2023.2.3,Win32,74.07407407,65e67470ae2fbf2172c317b2,65e885b59df01e3e2177f9af,,,,,,,,,,,392.3768,1.5,393.8705,393.8706,394.6707,left,0,0.7884,,394.6707,395.6711,3,4,52,4,1,partial,1,images/Ex5.jpg,right,training,hard,4,,,,,
,,,,,5f75d01a857e4e27a575f7ca,001,42,female,British,Bachelors Degree,2024-03-06_15h05.05.880,CRL1h,2023.2.3,Win32,74.07407407,65e67470ae2fbf2172c317b2,65e885b59df01e3e2177f9af,,,,,,,,,,,395.6715,1.2,396.8717,396.8718,398.2187,right,1,1.3438,,398.2187,399.2192,3,5,53,7,1,partial,1,images/Ex8.jpg,right,training,hard,4,,,,,
,,,,,5f75d01a857e4e27a575f7ca,001,42,female,British,Bachelors Degree,2024-03-06_15h05.05.880,CRL1h,2023.2.3,Win32,74.07407407,65e67470ae2fbf2172c317b2,65e885b59df01e3e2177f9af,,,,,,,,,,,399.2197,0.8,400.0194,400.0195,400.8065,right,0,0.7824,,400.8065,401.8065,3,6,54,2,1,partial,1,images/Ex3.jpg,left,training,hard,4,,,,,
,,,,,5f75d01a857e4e27a575f7ca,001,42,female,British,Bachelors Degree,2024-03-06_15h05.05.880,CRL1h,2023.2.3,Win32,74.07407407,65e67470ae2fbf2172c317b2,65e885b59df01e3e2177f9af,,,,,,,,,,,401.8069,0.9,402.7005,402.7005,403.3275,left,1,0.6251,,403.3276,404.3277,3,7,55,3,1,partial,1,images/Ex4.jpg,left,training,hard,4,,,,,
,,,,,5f75d01a857e4e27a575f7ca,001,42,female,British,Bachelors Degree,2024-03-06_15h05.05.880,CRL1h,2023.2.3,Win32,74.07407407,65e67470ae2fbf2172c317b2,65e885b59df01e3e2177f9af,,,,,,,,,,,404.3281,1.2,405.5279,405.5279,406.3415,left,0,0.8125,,406.3415,407.3418,3,8,56,14,1,partial,1,images/Ex7.jpg,right,training,hard,4,,,,,
,,,,,5f75d01a857e4e27a575f7ca,001,42,female,British,Bachelors Degree,2024-03-06_15h05.05.880,CRL1h,2023.2.3,Win32,74.07407407,65e67470ae2fbf2172c317b2,65e885b59df01e3e2177f9af,,,,,,,,,,,407.3421,1.2,408.5426,408.5426,409.5298,left,1,0.9827,,409.5299,410.5297,3,9,57,10,1,partial,1,images/Ex3.jpg,left,training,hard,4,,,,,
,,,,,5f75d01a857e4e27a575f7ca,001,42,female,British,Bachelors Degree,2024-03-06_15h05.05.880,CRL1h,2023.2.3,Win32,74.07407407,65e67470ae2fbf2172c317b2,65e885b59df01e3e2177f9af,,,,,,,,,,,410.5301,1.2,411.7308,411.7308,412.3974,left,0,0.6547,,412.3975,413.3979,3,10,58,13,1,partial,1,images/Ex6.jpg,right,training,hard,4,,,,,
,,,,,5f75d01a857e4e27a575f7ca,001,42,female,British,Bachelors Degree,2024-03-06_15h05.05.880,CRL1h,2023.2.3,Win32,74.07407407,65e67470ae2fbf2172c317b2,65e885b59df01e3e2177f9af,,,,,,,,,,,413.3983,0.9,414.292,414.2921,415.0384,left,1,0.735,,415.0384,416.0383,3,11,59,11,1,partial,1,images/Ex4.jpg,left,training,hard,4,,,,,
,,,,,5f75d01a857e4e27a575f7ca,001,42,female,British,Bachelors Degree,2024-03-06_15h05.05.880,CRL1h,2023.2.3,Win32,74.07407407,65e67470ae2fbf2172c317b2,65e885b59df01e3e2177f9af,,,,,,,,,,,416.0387,1.5,417.5325,417.5326,418.626,left,1,1.0852,,418.6261,419.6268,3,12,60,8,1,partial,1,images/Ex1.jpg,left,training,hard,4,,,,,
,,,,,5f75d01a857e4e27a575f7ca,001,42,female,British,Bachelors Degree,2024-03-06_15h05.05.880,CRL1h,2023.2.3,Win32,74.07407407,65e67470ae2fbf2172c317b2,65e885b59df01e3e2177f9af,,,,,,,,,,,419.6272,1.3,420.9202,420.9202,421.8275,left,1,0.8957,,421.8275,422.8277,3,13,61,1,1,partial,1,images/Ex2.jpg,left,training,hard,4,,,,,
,,,,,5f75d01a857e4e27a575f7ca,001,42,female,British,Bachelors Degree,2024-03-06_15h05.05.880,CRL1h,2023.2.3,Win32,74.07407407,65e67470ae2fbf2172c317b2,65e885b59df01e3e2177f9af,,,,,,,,,,,422.8283,1,423.8282,423.8282,424.7484,left,0,0.9174,,424.7484,425.7488,3,14,62,5,1,partial,1,images/Ex6.jpg,right,training,hard,4,,,,,
,,,,,5f75d01a857e4e27a575f7ca,001,42,female,British,Bachelors Degree,2024-03-06_15h05.05.880,CRL1h,2023.2.3,Win32,74.07407407,65e67470ae2fbf2172c317b2,65e885b59df01e3e2177f9af,,,,,,,,,,,425.7493,0.6,426.3492,426.3492,427.7763,left,0,1.4182,,427.7763,428.7763,3,15,63,15,1,partial,1,images/Ex8.jpg,right,training,hard,4,,,,,
,,,,,5f75d01a857e4e27a575f7ca,001,42,female,British,Bachelors Degree,2024-03-06_15h05.05.880,CRL1h,2023.2.3,Win32,74.07407407,65e67470ae2fbf2172c317b2,65e885b59df01e3e2177f9af,,,,,,,,,,,428.7767,0.6,429.3769,429.3769,430.1103,left,1,0.7323,,430.1103,431.1109,4,0,64,8,1,partial,1,images/Ex1.jpg,left,training,hard,4,,,,,
,,,,,5f75d01a857e4e27a575f7ca,001,42,female,British,Bachelors Degree,2024-03-06_15h05.05.880,CRL1h,2023.2.3,Win32,74.07407407,65e67470ae2fbf2172c317b2,65e885b59df01e3e2177f9af,,,,,,,,,,,431.1114,0.7,431.8045,431.8045,432.8448,left,1,1.0357,,432.8449,433.8454,4,1,65,11,1,partial,1,images/Ex4.jpg,left,training,hard,4,,,,,
,,,,,5f75d01a857e4e27a575f7ca,001,42,female,British,Bachelors Degree,2024-03-06_15h05.05.880,CRL1h,2023.2.3,Win32,74.07407407,65e67470ae2fbf2172c317b2,65e885b59df01e3e2177f9af,,,,,,,,,,,433.8457,0.8,434.6452,434.6452,435.2725,left,0,0.6227,,435.2726,436.2731,4,2,66,15,1,partial,1,images/Ex8.jpg,right,training,hard,4,,,,,
,,,,,5f75d01a857e4e27a575f7ca,001,42,female,British,Bachelors Degree,2024-03-06_15h05.05.880,CRL1h,2023.2.3,Win32,74.07407407,65e67470ae2fbf2172c317b2,65e885b59df01e3e2177f9af,,,,,,,,,,,436.2734,0.9,437.1662,437.1663,437.9801,right,1,0.8079,,437.9802,438.9805,4,3,67,7,1,partial,1,images/Ex8.jpg,right,training,hard,4,,,,,
,,,,,5f75d01a857e4e27a575f7ca,001,42,female,British,Bachelors Degree,2024-03-06_15h05.05.880,CRL1h,2023.2.3,Win32,74.07407407,65e67470ae2fbf2172c317b2,65e885b59df01e3e2177f9af,,,,,,,,,,,438.9809,1.2,440.1809,440.1809,440.9542,right,0,0.7718,,440.9542,441.9547,4,4,68,10,1,partial,1,images/Ex3.jpg,left,training,hard,4,,,,,
,,,,,5f75d01a857e4e27a575f7ca,001,42,female,British,Bachelors Degree,2024-03-06_15h05.05.880,CRL1h,2023.2.3,Win32,74.07407407,65e67470ae2fbf2172c317b2,65e885b59df01e3e2177f9af,,,,,,,,,,,441.955,1.5,443.4487,443.4487,444.4757,right,1,1.021,,444.4758,445.4759,4,5,69,14,1,partial,1,images/Ex7.jpg,right,training,hard,4,,,,,
,,,,,5f75d01a857e4e27a575f7ca,001,42,female,British,Bachelors Degree,2024-03-06_15h05.05.880,CRL1h,2023.2.3,Win32,74.07407407,65e67470ae2fbf2172c317b2,65e885b59df01e3e2177f9af,,,,,,,,,,,445.4763,0.6,446.0765,446.0766,447.0765,right,1,0.9949,,447.0765,448.0773,4,6,70,12,1,partial,1,images/Ex5.jpg,right,training,hard,4,,,,,
,,,,,5f75d01a857e4e27a575f7ca,001,42,female,British,Bachelors Degree,2024-03-06_15h05.05.880,CRL1h,2023.2.3,Win32,74.07407407,65e67470ae2fbf2172c317b2,65e885b59df01e3e2177f9af,,,,,,,,,,,448.0776,0.9,448.9708,448.9708,449.8512,right,0,0.8685,,449.8512,450.8517,4,7,71,9,1,partial,1,images/Ex2.jpg,left,training,hard,4,,,,,
,,,,,5f75d01a857e4e27a575f7ca,001,42,female,British,Bachelors Degree,2024-03-06_15h05.05.880,CRL1h,2023.2.3,Win32,74.07407407,65e67470ae2fbf2172c317b2,65e885b59df01e3e2177f9af,,,,,,,,,,,450.8521,1.5,452.3454,452.3454,454.2659,left,1,1.9088,,454.266,455.2662,4,8,72,0,1,partial,1,images/Ex1.jpg,left,training,hard,4,,,,,
,,,,,5f75d01a857e4e27a575f7ca,001,42,female,British,Bachelors Degree,2024-03-06_15h05.05.880,CRL1h,2023.2.3,Win32,74.07407407,65e67470ae2fbf2172c317b2,65e885b59df01e3e2177f9af,,,,,,,,,,,455.272,0.8,456.0669,456.0669,457.0812,right,1,1.007,,457.0812,458.0808,4,9,73,6,1,partial,1,images/Ex7.jpg,right,training,hard,4,,,,,
,,,,,5f75d01a857e4e27a575f7ca,001,42,female,British,Bachelors Degree,2024-03-06_15h05.05.880,CRL1h,2023.2.3,Win32,74.07407407,65e67470ae2fbf2172c317b2,65e885b59df01e3e2177f9af,,,,,,,,,,,458.0811,0.8,458.8811,458.8812,460.6818,left,0,1.7963,,460.6819,461.6822,4,10,74,13,1,partial,1,images/Ex6.jpg,right,training,hard,4,,,,,
,,,,,5f75d01a857e4e27a575f7ca,001,42,female,British,Bachelors Degree,2024-03-06_15h05.05.880,CRL1h,2023.2.3,Win32,74.07407407,65e67470ae2fbf2172c317b2,65e885b59df01e3e2177f9af,,,,,,,,,,,461.6826,0.8,462.4825,462.4825,463.4829,right,1,0.991,,463.4829,464.4828,4,11,75,5,1,partial,1,images/Ex6.jpg,right,training,hard,4,,,,,
,,,,,5f75d01a857e4e27a575f7ca,001,42,female,British,Bachelors Degree,2024-03-06_15h05.05.880,CRL1h,2023.2.3,Win32,74.07407407,65e67470ae2fbf2172c317b2,65e885b59df01e3e2177f9af,,,,,,,,,,,464.4831,0.7,465.1768,465.1768,466.7638,right,1,1.5797,,466.7638,467.7645,4,12,76,4,1,partial,1,images/Ex5.jpg,right,training,hard,4,,,,,
,,,,,5f75d01a857e4e27a575f7ca,001,42,female,British,Bachelors Degree,2024-03-06_15h05.05.880,CRL1h,2023.2.3,Win32,74.07407407,65e67470ae2fbf2172c317b2,65e885b59df01e3e2177f9af,,,,,,,,,,,467.7651,0.6,468.3644,468.3644,469.4847,right,0,1.1177,,469.4848,470.4854,4,13,77,3,1,partial,1,images/Ex4.jpg,left,training,hard,4,,,,,
,,,,,5f75d01a857e4e27a575f7ca,001,42,female,British,Bachelors Degree,2024-03-06_15h05.05.880,CRL1h,2023.2.3,Win32,74.07407407,65e67470ae2fbf2172c317b2,65e885b59df01e3e2177f9af,,,,,,,,,,,470.4857,0.9,471.379,471.379,472.233,right,0,0.8442,,472.233,473.2329,4,14,78,2,1,partial,1,images/Ex3.jpg,left,training,hard,4,,,,,
,,,,,5f75d01a857e4e27a575f7ca,001,42,female,British,Bachelors Degree,2024-03-06_15h05.05.880,CRL1h,2023.2.3,Win32,74.07407407,65e67470ae2fbf2172c317b2,65e885b59df01e3e2177f9af,,,,,,,,,,,473.2333,1.1,474.3264,474.3264,475.8207,right,0,1.4892,,475.8208,476.8215,4,15,79,1,1,partial,1,images/Ex2.jpg,left,training,hard,4,,,,,
,,,,,5f75d01a857e4e27a575f7ca,001,42,female,British,Bachelors Degree,2024-03-06_15h05.05.880,CRL1h,2023.2.3,Win32,74.07407407,65e67470ae2fbf2172c317b2,65e885b59df01e3e2177f9af,,,,,,,,,,,476.8276,0.6,477.421,477.421,478.2083,right,1,0.7756,,478.2083,479.2085,5,0,80,14,1,partial,1,images/Ex7.jpg,right,training,hard,4,,,,,
,,,,,5f75d01a857e4e27a575f7ca,001,42,female,British,Bachelors Degree,2024-03-06_15h05.05.880,CRL1h,2023.2.3,Win32,74.07407407,65e67470ae2fbf2172c317b2,65e885b59df01e3e2177f9af,,,,,,,,,,,479.2089,0.8,480.0088,480.0089,481.7561,left,1,1.7387,,481.7561,482.7563,5,1,81,1,1,partial,1,images/Ex2.jpg,left,training,hard,4,,,,,
,,,,,5f75d01a857e4e27a575f7ca,001,42,female,British,Bachelors Degree,2024-03-06_15h05.05.880,CRL1h,2023.2.3,Win32,74.07407407,65e67470ae2fbf2172c317b2,65e885b59df01e3e2177f9af,,,,,,,,,,,482.7567,1.3,484.0509,484.0509,484.6374,left,1,0.5814,,484.6375,485.6375,5,2,82,9,1,partial,1,images/Ex2.jpg,left,training,hard,4,,,,,
,,,,,5f75d01a857e4e27a575f7ca,001,42,female,British,Bachelors Degree,2024-03-06_15h05.05.880,CRL1h,2023.2.3,Win32,74.07407407,65e67470ae2fbf2172c317b2,65e885b59df01e3e2177f9af,,,,,,,,,,,485.6378,0.8,486.4378,486.4379,488.185,left,0,1.7418,,488.185,489.1852,5,3,83,7,1,partial,1,images/Ex8.jpg,right,training,hard,4,,,,,
,,,,,5f75d01a857e4e27a575f7ca,001,42,female,British,Bachelors Degree,2024-03-06_15h05.05.880,CRL1h,2023.2.3,Win32,74.07407407,65e67470ae2fbf2172c317b2,65e885b59df01e3e2177f9af,,,,,,,,,,,489.1916,1.2,490.3857,490.3857,491.2267,left,1,0.8378,,491.2267,492.2264,5,4,84,11,1,partial,1,images/Ex4.jpg,left,training,hard,4,,,,,
,,,,,5f75d01a857e4e27a575f7ca,001,42,female,British,Bachelors Degree,2024-03-06_15h05.05.880,CRL1h,2023.2.3,Win32,74.07407407,65e67470ae2fbf2172c317b2,65e885b59df01e3e2177f9af,,,,,,,,,,,492.2266,0.7,492.9203,492.9203,493.9338,right,1,1.0025,,493.9339,494.9342,5,5,85,4,1,partial,1,images/Ex5.jpg,right,training,hard,4,,,,,
,,,,,5f75d01a857e4e27a575f7ca,001,42,female,British,Bachelors Degree,2024-03-06_15h05.05.880,CRL1h,2023.2.3,Win32,74.07407407,65e67470ae2fbf2172c317b2,65e885b59df01e3e2177f9af,,,,,,,,,,,494.9346,0.6,495.5345,495.5345,496.2817,right,1,0.7375,,496.2818,497.2819,5,6,86,12,1,partial,1,images/Ex5.jpg,right,training,hard,4,,,,,
,,,,,5f75d01a857e4e27a575f7ca,001,42,female,British,Bachelors Degree,2024-03-06_15h05.05.880,CRL1h,2023.2.3,Win32,74.07407407,65e67470ae2fbf2172c317b2,65e885b59df01e3e2177f9af,,,,,,,,,,,497.2823,0.5,497.775,497.7751,498.7492,left,0,0.9668,,498.7492,499.7494,5,7,87,6,1,partial,1,images/Ex7.jpg,right,training,hard,4,,,,,
,,,,,5f75d01a857e4e27a575f7ca,001,42,female,British,Bachelors Degree,2024-03-06_15h05.05.880,CRL1h,2023.2.3,Win32,74.07407407,65e67470ae2fbf2172c317b2,65e885b59df01e3e2177f9af,,,,,,,,,,,499.7497,0.9,500.643,500.6431,501.3103,right,0,0.6573,,501.3103,502.3103,5,8,88,8,1,partial,1,images/Ex1.jpg,left,training,hard,4,,,,,
,,,,,5f75d01a857e4e27a575f7ca,001,42,female,British,Bachelors Degree,2024-03-06_15h05.05.880,CRL1h,2023.2.3,Win32,74.07407407,65e67470ae2fbf2172c317b2,65e885b59df01e3e2177f9af,,,,,,,,,,,502.3107,1,503.3107,503.3107,503.804,left,1,0.4851,,503.8041,504.8046,5,9,89,0,1,partial,1,images/Ex1.jpg,left,training,hard,4,,,,,
,,,,,5f75d01a857e4e27a575f7ca,001,42,female,British,Bachelors Degree,2024-03-06_15h05.05.880,CRL1h,2023.2.3,Win32,74.07407407,65e67470ae2fbf2172c317b2,65e885b59df01e3e2177f9af,,,,,,,,,,,504.805,1.3,506.0984,506.0984,506.9254,left,0,0.8163,,506.9255,507.9255,5,10,90,13,1,partial,1,images/Ex6.jpg,right,training,hard,4,,,,,
,,,,,5f75d01a857e4e27a575f7ca,001,42,female,British,Bachelors Degree,2024-03-06_15h05.05.880,CRL1h,2023.2.3,Win32,74.07407407,65e67470ae2fbf2172c317b2,65e885b59df01e3e2177f9af,,,,,,,,,,,507.9258,1.2,509.1258,509.1258,510.1533,left,1,1.0268,,510.1534,511.1535,5,11,91,3,1,partial,1,images/Ex4.jpg,left,training,hard,4,,,,,
,,,,,5f75d01a857e4e27a575f7ca,001,42,female,British,Bachelors Degree,2024-03-06_15h05.05.880,CRL1h,2023.2.3,Win32,74.07407407,65e67470ae2fbf2172c317b2,65e885b59df01e3e2177f9af,,,,,,,,,,,511.1538,1.5,512.6475,512.6475,513.4608,right,0,0.8111,,513.4608,514.4612,5,12,92,10,1,partial,1,images/Ex3.jpg,left,training,hard,4,,,,,
,,,,,5f75d01a857e4e27a575f7ca,001,42,female,British,Bachelors Degree,2024-03-06_15h05.05.880,CRL1h,2023.2.3,Win32,74.07407407,65e67470ae2fbf2172c317b2,65e885b59df01e3e2177f9af,,,,,,,,,,,514.4616,1.4,515.8625,515.8626,516.8092,left,0,0.9413,,516.8092,517.8095,5,13,93,5,1,partial,1,images/Ex6.jpg,right,training,hard,4,,,,,
,,,,,5f75d01a857e4e27a575f7ca,001,42,female,British,Bachelors Degree,2024-03-06_15h05.05.880,CRL1h,2023.2.3,Win32,74.07407407,65e67470ae2fbf2172c317b2,65e885b59df01e3e2177f9af,,,,,,,,,,,517.8098,1.2,519.0099,519.01,519.7299,right,1,0.7114,,519.7299,520.7303,5,14,94,15,1,partial,1,images/Ex8.jpg,right,training,hard,4,,,,,
,,,,,5f75d01a857e4e27a575f7ca,001,42,female,British,Bachelors Degree,2024-03-06_15h05.05.880,CRL1h,2023.2.3,Win32,74.07407407,65e67470ae2fbf2172c317b2,65e885b59df01e3e2177f9af,,,,,,,,,,,520.7307,0.9,521.6239,521.6239,522.518,right,0,0.8841,,522.5181,523.5181,5,15,95,2,1,partial,1,images/Ex3.jpg,left,training,hard,4,,,,,
,,,,,5f75d01a857e4e27a575f7ca,001,42,female,British,Bachelors Degree,2024-03-06_15h05.05.880,CRL1h,2023.2.3,Win32,74.07407407,65e67470ae2fbf2172c317b2,65e885b59df01e3e2177f9af,,,,,,,,,,,523.5184,1.2,524.7185,524.7187,525.4523,left,1,0.7239,,525.4523,526.4525,6,0,96,11,1,partial,1,images/Ex4.jpg,left,training,hard,4,,,,,
,,,,,5f75d01a857e4e27a575f7ca,001,42,female,British,Bachelors Degree,2024-03-06_15h05.05.880,CRL1h,2023.2.3,Win32,74.07407407,65e67470ae2fbf2172c317b2,65e885b59df01e3e2177f9af,,,,,,,,,,,526.4529,0.6,527.053,527.0531,527.4796,left,0,0.4209,,527.4798,528.4798,6,1,97,5,1,partial,1,images/Ex6.jpg,right,training,hard,4,,,,,
,,,,,5f75d01a857e4e27a575f7ca,001,42,female,British,Bachelors Degree,2024-03-06_15h05.05.880,CRL1h,2023.2.3,Win32,74.07407407,65e67470ae2fbf2172c317b2,65e885b59df01e3e2177f9af,,,,,,,,,,,528.4802,1.5,529.9737,529.9737,530.9876,right,1,1.0029,,530.9876,531.9881,6,2,98,15,1,partial,1,images/Ex8.jpg,right,training,hard,4,,,,,
,,,,,5f75d01a857e4e27a575f7ca,001,42,female,British,Bachelors Degree,2024-03-06_15h05.05.880,CRL1h,2023.2.3,Win32,74.07407407,65e67470ae2fbf2172c317b2,65e885b59df01e3e2177f9af,,,,,,,,,,,531.9885,1.5,533.4819,533.4819,534.3889,right,0,0.8953,,534.389,535.3888,6,3,99,2,1,partial,1,images/Ex3.jpg,left,training,hard,4,,,,,
,,,,,5f75d01a857e4e27a575f7ca,001,42,female,British,Bachelors Degree,2024-03-06_15h05.05.880,CRL1h,2023.2.3,Win32,74.07407407,65e67470ae2fbf2172c317b2,65e885b59df01e3e2177f9af,,,,,,,,,,,535.3892,0.6,535.9892,535.9893,537.3232,left,1,1.3312,,537.3232,538.3234,6,4,100,8,1,partial,1,images/Ex1.jpg,left,training,hard,4,,,,,
,,,,,5f75d01a857e4e27a575f7ca,001,42,female,British,Bachelors Degree,2024-03-06_15h05.05.880,CRL1h,2023.2.3,Win32,74.07407407,65e67470ae2fbf2172c317b2,65e885b59df01e3e2177f9af,,,,,,,,,,,538.3237,0.6,538.9238,538.9238,539.7912,left,1,0.8597,,539.7912,540.7915,6,5,101,1,1,partial,1,images/Ex2.jpg,left,training,hard,4,,,,,
,,,,,5f75d01a857e4e27a575f7ca,001,42,female,British,Bachelors Degree,2024-03-06_15h05.05.880,CRL1h,2023.2.3,Win32,74.07407407,65e67470ae2fbf2172c317b2,65e885b59df01e3e2177f9af,,,,,,,,,,,540.7919,1,541.7916,541.7916,543.0985,right,1,1.2979,,543.0985,544.099,6,6,102,7,1,partial,1,images/Ex8.jpg,right,training,hard,4,,,,,
,,,,,5f75d01a857e4e27a575f7ca,001,42,female,British,Bachelors Degree,2024-03-06_15h05.05.880,CRL1h,2023.2.3,Win32,74.07407407,65e67470ae2fbf2172c317b2,65e885b59df01e3e2177f9af,,,,,,,,,,,544.0993,1.2,545.2995,545.2995,546.4068,left,0,1.1025,,546.4068,547.4069,6,7,103,14,1,partial,1,images/Ex7.jpg,right,training,hard,4,,,,,
,,,,,5f75d01a857e4e27a575f7ca,001,42,female,British,Bachelors Degree,2024-03-06_15h05.05.880,CRL1h,2023.2.3,Win32,74.07407407,65e67470ae2fbf2172c317b2,65e885b59df01e3e2177f9af,,,,,,,,,,,547.4072,1.5,548.9005,548.9005,549.6746,left,1,0.7687,,549.6746,550.6745,6,8,104,3,1,partial,1,images/Ex4.jpg,left,training,hard,4,,,,,
,,,,,5f75d01a857e4e27a575f7ca,001,42,female,British,Bachelors Degree,2024-03-06_15h05.05.880,CRL1h,2023.2.3,Win32,74.07407407,65e67470ae2fbf2172c317b2,65e885b59df01e3e2177f9af,,,,,,,,,,,550.6749,0.9,551.5685,551.5685,552.8757,right,1,1.2961,,552.8758,553.8758,6,9,105,13,1,partial,1,images/Ex6.jpg,right,training,hard,4,,,,,
,,,,,5f75d01a857e4e27a575f7ca,001,42,female,British,Bachelors Degree,2024-03-06_15h05.05.880,CRL1h,2023.2.3,Win32,74.07407407,65e67470ae2fbf2172c317b2,65e885b59df01e3e2177f9af,,,,,,,,,,,553.8762,0.8,554.676,554.676,555.8767,right,1,1.1958,,555.8768,556.877,6,10,106,12,1,partial,1,images/Ex5.jpg,right,training,hard,4,,,,,
,,,,,5f75d01a857e4e27a575f7ca,001,42,female,British,Bachelors Degree,2024-03-06_15h05.05.880,CRL1h,2023.2.3,Win32,74.07407407,65e67470ae2fbf2172c317b2,65e885b59df01e3e2177f9af,,,,,,,,,,,556.8832,1.4,558.2775,558.2775,558.918,right,1,0.6326,,558.918,559.9179,6,11,107,4,1,partial,1,images/Ex5.jpg,right,training,hard,4,,,,,
,,,,,5f75d01a857e4e27a575f7ca,001,42,female,British,Bachelors Degree,2024-03-06_15h05.05.880,CRL1h,2023.2.3,Win32,74.07407407,65e67470ae2fbf2172c317b2,65e885b59df01e3e2177f9af,,,,,,,,,,,559.9183,1.2,561.1184,561.1184,562.4126,left,0,1.2836,,562.4126,563.4128,6,12,108,6,1,partial,1,images/Ex7.jpg,right,training,hard,4,,,,,
,,,,,5f75d01a857e4e27a575f7ca,001,42,female,British,Bachelors Degree,2024-03-06_15h05.05.880,CRL1h,2023.2.3,Win32,74.07407407,65e67470ae2fbf2172c317b2,65e885b59df01e3e2177f9af,,,,,,,,,,,563.4133,0.9,564.3063,564.3063,565.5067,right,0,1.1958,,565.5068,566.5072,6,13,109,10,1,partial,1,images/Ex3.jpg,left,training,hard,4,,,,,
,,,,,5f75d01a857e4e27a575f7ca,001,42,female,British,Bachelors Degree,2024-03-06_15h05.05.880,CRL1h,2023.2.3,Win32,74.07407407,65e67470ae2fbf2172c317b2,65e885b59df01e3e2177f9af,,,,,,,,,,,566.5075,0.6,567.1073,567.1073,568.1609,left,1,1.0504,,568.1609,569.1615,6,14,110,9,1,partial,1,images/Ex2.jpg,left,training,hard,4,,,,,
,,,,,5f75d01a857e4e27a575f7ca,001,42,female,British,Bachelors Degree,2024-03-06_15h05.05.880,CRL1h,2023.2.3,Win32,74.07407407,65e67470ae2fbf2172c317b2,65e885b59df01e3e2177f9af,,,,,,,,,,,569.1618,0.7,569.8549,569.8549,570.7754,left,1,0.9094,,570.7754,571.7756,6,15,111,0,1,partial,1,images/Ex1.jpg,left,training,hard,4,,,,,
,,,,,5f75d01a857e4e27a575f7ca,001,42,female,British,Bachelors Degree,2024-03-06_15h05.05.880,CRL1h,2023.2.3,Win32,74.07407407,65e67470ae2fbf2172c317b2,65e885b59df01e3e2177f9af,,,,,,,,,,,571.7761,1,572.7761,572.7761,573.8165,left,0,1.0362,,573.8166,574.8171,7,0,112,7,1,partial,1,images/Ex8.jpg,right,training,hard,4,,,,,
,,,,,5f75d01a857e4e27a575f7ca,001,42,female,British,Bachelors Degree,2024-03-06_15h05.05.880,CRL1h,2023.2.3,Win32,74.07407407,65e67470ae2fbf2172c317b2,65e885b59df01e3e2177f9af,,,,,,,,,,,574.8175,1.3,576.1106,576.1106,577.0046,left,0,0.8833,,577.0046,578.0045,7,1,113,5,1,partial,1,images/Ex6.jpg,right,training,hard,4,,,,,
,,,,,5f75d01a857e4e27a575f7ca,001,42,female,British,Bachelors Degree,2024-03-06_15h05.05.880,CRL1h,2023.2.3,Win32,74.07407407,65e67470ae2fbf2172c317b2,65e885b59df01e3e2177f9af,,,,,,,,,,,578.0049,0.9,578.8983,578.8983,579.8454,left,0,0.936,,579.8454,580.8458,7,2,114,14,1,partial,1,images/Ex7.jpg,right,training,hard,4,,,,,
,,,,,5f75d01a857e4e27a575f7ca,001,42,female,British,Bachelors Degree,2024-03-06_15h05.05.880,CRL1h,2023.2.3,Win32,74.07407407,65e67470ae2fbf2172c317b2,65e885b59df01e3e2177f9af,,,,,,,,,,,580.846,1.1,581.9398,581.9398,582.8068,left,0,0.8577,,582.8068,583.8069,7,3,115,4,1,partial,1,images/Ex5.jpg,right,training,hard,4,,,,,
,,,,,5f75d01a857e4e27a575f7ca,001,42,female,British,Bachelors Degree,2024-03-06_15h05.05.880,CRL1h,2023.2.3,Win32,74.07407407,65e67470ae2fbf2172c317b2,65e885b59df01e3e2177f9af,,,,,,,,,,,583.8073,1,584.8073,584.8073,586.0476,left,0,1.2376,,586.0477,587.0482,7,4,116,13,1,partial,1,images/Ex6.jpg,right,training,hard,4,,,,,
,,,,,5f75d01a857e4e27a575f7ca,001,42,female,British,Bachelors Degree,2024-03-06_15h05.05.880,CRL1h,2023.2.3,Win32,74.07407407,65e67470ae2fbf2172c317b2,65e885b59df01e3e2177f9af,,,,,,,,,,,587.0543,0.7,587.755,587.7551,588.4487,left,0,0.6827,,588.4487,589.4491,7,5,117,12,1,partial,1,images/Ex5.jpg,right,training,hard,4,,,,,
,,,,,5f75d01a857e4e27a575f7ca,001,42,female,British,Bachelors Degree,2024-03-06_15h05.05.880,CRL1h,2023.2.3,Win32,74.07407407,65e67470ae2fbf2172c317b2,65e885b59df01e3e2177f9af,,,,,,,,,,,589.4495,1.4,590.8493,590.8494,591.5568,right,0,0.7025,,591.5568,592.557,7,6,118,2,1,partial,1,images/Ex3.jpg,left,training,hard,4,,,,,
,,,,,5f75d01a857e4e27a575f7ca,001,42,female,British,Bachelors Degree,2024-03-06_15h05.05.880,CRL1h,2023.2.3,Win32,74.07407407,65e67470ae2fbf2172c317b2,65e885b59df01e3e2177f9af,,,,,,,,,,,592.5574,1.3,593.8506,593.8506,594.9444,right,1,1.0874,,594.9445,595.9446,7,7,119,6,1,partial,1,images/Ex7.jpg,right,training,hard,4,,,,,
,,,,,5f75d01a857e4e27a575f7ca,001,42,female,British,Bachelors Degree,2024-03-06_15h05.05.880,CRL1h,2023.2.3,Win32,74.07407407,65e67470ae2fbf2172c317b2,65e885b59df01e3e2177f9af,,,,,,,,,,,595.9449,1,596.9448,596.9448,597.5585,right,0,0.6099,,597.5585,598.5588,7,8,120,9,1,partial,1,images/Ex2.jpg,left,training,hard,4,,,,,
,,,,,5f75d01a857e4e27a575f7ca,001,42,female,British,Bachelors Degree,2024-03-06_15h05.05.880,CRL1h,2023.2.3,Win32,74.07407407,65e67470ae2fbf2172c317b2,65e885b59df01e3e2177f9af,,,,,,,,,,,598.5593,1,599.5594,599.5595,600.2262,right,0,0.6643,,600.2263,601.227,7,9,121,10,1,partial,1,images/Ex3.jpg,left,training,hard,4,,,,,
,,,,,5f75d01a857e4e27a575f7ca,001,42,female,British,Bachelors Degree,2024-03-06_15h05.05.880,CRL1h,2023.2.3,Win32,74.07407407,65e67470ae2fbf2172c317b2,65e885b59df01e3e2177f9af,,,,,,,,,,,601.2275,1.2,602.4271,602.4271,603.2008,left,1,0.7624,,603.2008,604.2013,7,10,122,0,1,partial,1,images/Ex1.jpg,left,training,hard,4,,,,,
,,,,,5f75d01a857e4e27a575f7ca,001,42,female,British,Bachelors Degree,2024-03-06_15h05.05.880,CRL1h,2023.2.3,Win32,74.07407407,65e67470ae2fbf2172c317b2,65e885b59df01e3e2177f9af,,,,,,,,,,,604.2017,1.4,605.6014,605.6014,606.2822,left,1,0.6694,,606.2822,607.2822,7,11,123,8,1,partial,1,images/Ex1.jpg,left,training,hard,4,,,,,
,,,,,5f75d01a857e4e27a575f7ca,001,42,female,British,Bachelors Degree,2024-03-06_15h05.05.880,CRL1h,2023.2.3,Win32,74.07407407,65e67470ae2fbf2172c317b2,65e885b59df01e3e2177f9af,,,,,,,,,,,607.2826,0.6,607.8825,607.8825,609.136,left,1,1.2427,,609.1361,610.1365,7,12,124,3,1,partial,1,images/Ex4.jpg,left,training,hard,4,,,,,
,,,,,5f75d01a857e4e27a575f7ca,001,42,female,British,Bachelors Degree,2024-03-06_15h05.05.880,CRL1h,2023.2.3,Win32,74.07407407,65e67470ae2fbf2172c317b2,65e885b59df01e3e2177f9af,,,,,,,,,,,610.1369,1.4,611.5371,611.5371,612.9378,left,0,1.3932,,612.9378,613.9378,7,13,125,15,1,partial,1,images/Ex8.jpg,right,training,hard,4,,,,,
,,,,,5f75d01a857e4e27a575f7ca,001,42,female,British,Bachelors Degree,2024-03-06_15h05.05.880,CRL1h,2023.2.3,Win32,74.07407407,65e67470ae2fbf2172c317b2,65e885b59df01e3e2177f9af,,,,,,,,,,,613.9381,0.8,614.7385,614.7386,615.5251,left,1,0.7754,,615.5251,616.5256,7,14,126,11,1,partial,1,images/Ex4.jpg,left,training,hard,4,,,,,
,,,,,5f75d01a857e4e27a575f7ca,001,42,female,British,Bachelors Degree,2024-03-06_15h05.05.880,CRL1h,2023.2.3,Win32,74.07407407,65e67470ae2fbf2172c317b2,65e885b59df01e3e2177f9af,,,,,,,,,,,616.5261,1.1,617.6194,617.6194,618.4197,left,1,0.7896,,618.4197,619.4201,7,15,127,1,1,partial,1,images/Ex2.jpg,left,training,hard,4,,,,,
,,,,,5f75d01a857e4e27a575f7ca,001,42,female,British,Bachelors Degree,2024-03-06_15h05.05.880,CRL1h,2023.2.3,Win32,74.07407407,65e67470ae2fbf2172c317b2,65e885b59df01e3e2177f9af,,,,,,,,,,,619.4243,1.5,620.9276,620.9276,621.5544,left,1,0.6213,,621.5544,622.555,0,0,0,11,1,partial,2,images/Ex4.jpg,left,nonreversed,hard,4,,,,,
,,,,,5f75d01a857e4e27a575f7ca,001,42,female,British,Bachelors Degree,2024-03-06_15h05.05.880,CRL1h,2023.2.3,Win32,74.07407407,65e67470ae2fbf2172c317b2,65e885b59df01e3e2177f9af,,,,,,,,,,,622.5555,1.1,623.6483,623.6483,624.4484,left,0,0.7913,,624.4484,625.449,0,1,1,0,1,partial,2,images/Ex1.jpg,right,reversed,hard,4,,,,,
,,,,,5f75d01a857e4e27a575f7ca,001,42,female,British,Bachelors Degree,2024-03-06_15h05.05.880,CRL1h,2023.2.3,Win32,74.07407407,65e67470ae2fbf2172c317b2,65e885b59df01e3e2177f9af,,,,,,,,,,,625.4494,1.3,626.7428,626.7429,627.6363,right,1,0.8873,,627.6363,628.6364,0,2,2,12,1,partial,2,images/Ex5.jpg,right,nonreversed,hard,4,,,,,
,,,,,5f75d01a857e4e27a575f7ca,001,42,female,British,Bachelors Degree,2024-03-06_15h05.05.880,CRL1h,2023.2.3,Win32,74.07407407,65e67470ae2fbf2172c317b2,65e885b59df01e3e2177f9af,,,,,,,,,,,628.6366,0.8,629.4369,629.4369,630.3977,left,1,0.9491,,630.3977,631.3977,0,3,3,3,1,partial,2,images/Ex4.jpg,left,nonreversed,hard,4,,,,,
,,,,,5f75d01a857e4e27a575f7ca,001,42,female,British,Bachelors Degree,2024-03-06_15h05.05.880,CRL1h,2023.2.3,Win32,74.07407407,65e67470ae2fbf2172c317b2,65e885b59df01e3e2177f9af,,,,,,,,,,,631.3979,1.2,632.5982,632.5983,633.5449,right,0,0.9452,,633.545,634.5456,0,4,4,10,1,partial,2,images/Ex3.jpg,left,nonreversed,hard,4,,,,,
,,,,,5f75d01a857e4e27a575f7ca,001,42,female,British,Bachelors Degree,2024-03-06_15h05.05.880,CRL1h,2023.2.3,Win32,74.07407407,65e67470ae2fbf2172c317b2,65e885b59df01e3e2177f9af,,,,,,,,,,,634.5458,0.8,635.3456,635.3456,636.2129,left,0,0.856,,636.213,637.2133,0,5,5,9,1,partial,2,images/Ex2.jpg,right,reversed,hard,4,,,,,
,,,,,5f75d01a857e4e27a575f7ca,001,42,female,British,Bachelors Degree,2024-03-06_15h05.05.880,CRL1h,2023.2.3,Win32,74.07407407,65e67470ae2fbf2172c317b2,65e885b59df01e3e2177f9af,,,,,,,,,,,637.2137,1.5,638.7071,638.7072,641.6816,left,0,2.9687,,641.6817,642.682,0,6,6,13,1,partial,2,images/Ex6.jpg,right,nonreversed,hard,4,,,,,
,,,,,5f75d01a857e4e27a575f7ca,001,42,female,British,Bachelors Degree,2024-03-06_15h05.05.880,CRL1h,2023.2.3,Win32,74.07407407,65e67470ae2fbf2172c317b2,65e885b59df01e3e2177f9af,,,,,,,,,,,642.6897,0.6,643.2824,643.2824,644.5624,left,1,1.2717,,644.5625,645.5633,0,7,7,2,1,partial,2,images/Ex3.jpg,left,nonreversed,hard,4,,,,,
,,,,,5f75d01a857e4e27a575f7ca,001,42,female,British,Bachelors Degree,2024-03-06_15h05.05.880,CRL1h,2023.2.3,Win32,74.07407407,65e67470ae2fbf2172c317b2,65e885b59df01e3e2177f9af,,,,,,,,,,,645.5636,1.1,646.6564,646.6565,647.6708,right,0,1.0033,,647.6708,648.6709,0,8,8,14,1,partial,2,images/Ex7.jpg,left,reversed,hard,4,,,,,
,,,,,5f75d01a857e4e27a575f7ca,001,42,female,British,Bachelors Degree,2024-03-06_15h05.05.880,CRL1h,2023.2.3,Win32,74.07407407,65e67470ae2fbf2172c317b2,65e885b59df01e3e2177f9af,,,,,,,,,,,648.6714,1.2,649.8712,649.8712,650.6989,left,0,0.8209,,650.699,651.6985,0,9,9,8,1,partial,2,images/Ex1.jpg,right,reversed,hard,4,,,,,
,,,,,5f75d01a857e4e27a575f7ca,001,42,female,British,Bachelors Degree,2024-03-06_15h05.05.880,CRL1h,2023.2.3,Win32,74.07407407,65e67470ae2fbf2172c317b2,65e885b59df01e3e2177f9af,,,,,,,,,,,651.6989,1,652.6988,652.6988,655.3668,right,1,2.6598,,655.3668,656.3669,0,10,10,1,1,partial,2,images/Ex2.jpg,right,reversed,hard,4,,,,,
,,,,,5f75d01a857e4e27a575f7ca,001,42,female,British,Bachelors Degree,2024-03-06_15h05.05.880,CRL1h,2023.2.3,Win32,74.07407407,65e67470ae2fbf2172c317b2,65e885b59df01e3e2177f9af,,,,,,,,,,,656.3736,1.2,657.5676,657.5676,658.6214,right,0,1.0465,,658.6214,659.6216,0,11,11,6,1,partial,2,images/Ex7.jpg,left,reversed,hard,4,,,,,
,,,,,5f75d01a857e4e27a575f7ca,001,42,female,British,Bachelors Degree,2024-03-06_15h05.05.880,CRL1h,2023.2.3,Win32,74.07407407,65e67470ae2fbf2172c317b2,65e885b59df01e3e2177f9af,,,,,,,,,,,659.622,0.7,660.3149,660.315,661.0622,left,0,0.7432,,661.0622,662.0624,0,12,12,4,1,partial,2,images/Ex5.jpg,right,nonreversed,hard,4,,,,,
,,,,,5f75d01a857e4e27a575f7ca,001,42,female,British,Bachelors Degree,2024-03-06_15h05.05.880,CRL1h,2023.2.3,Win32,74.07407407,65e67470ae2fbf2172c317b2,65e885b59df01e3e2177f9af,,,,,,,,,,,662.0626,1,663.0626,663.0626,664.1032,right,0,1.033,,664.1033,665.1037,0,13,13,15,1,partial,2,images/Ex8.jpg,left,reversed,hard,4,,,,,
,,,,,5f75d01a857e4e27a575f7ca,001,42,female,British,Bachelors Degree,2024-03-06_15h05.05.880,CRL1h,2023.2.3,Win32,74.07407407,65e67470ae2fbf2172c317b2,65e885b59df01e3e2177f9af,,,,,,,,,,,665.1041,0.7,665.7971,665.7971,666.4111,right,1,0.6025,,666.4111,667.4111,0,14,14,5,1,partial,2,images/Ex6.jpg,right,nonreversed,hard,4,,,,,
,,,,,5f75d01a857e4e27a575f7ca,001,42,female,British,Bachelors Degree,2024-03-06_15h05.05.880,CRL1h,2023.2.3,Win32,74.07407407,65e67470ae2fbf2172c317b2,65e885b59df01e3e2177f9af,,,,,,,,,,,667.4114,1,668.4114,668.4115,669.1585,left,1,0.7406,,669.1585,670.1587,0,15,15,7,1,partial,2,images/Ex8.jpg,left,reversed,hard,4,,,,,
,,,,,5f75d01a857e4e27a575f7ca,001,42,female,British,Bachelors Degree,2024-03-06_15h05.05.880,CRL1h,2023.2.3,Win32,74.07407407,65e67470ae2fbf2172c317b2,65e885b59df01e3e2177f9af,,,,,,,,,,,670.1591,0.9,671.0526,671.0526,671.8527,left,1,0.7892,,671.8528,672.853,1,0,16,15,1,partial,2,images/Ex8.jpg,left,reversed,hard,4,,,,,
,,,,,5f75d01a857e4e27a575f7ca,001,42,female,British,Bachelors Degree,2024-03-06_15h05.05.880,CRL1h,2023.2.3,Win32,74.07407407,65e67470ae2fbf2172c317b2,65e885b59df01e3e2177f9af,,,,,,,,,,,672.8533,0.6,673.4533,673.4533,674.8806,left,1,1.422,,674.8806,675.8808,1,1,17,2,1,partial,2,images/Ex3.jpg,left,nonreversed,hard,4,,,,,
,,,,,5f75d01a857e4e27a575f7ca,001,42,female,British,Bachelors Degree,2024-03-06_15h05.05.880,CRL1h,2023.2.3,Win32,74.07407407,65e67470ae2fbf2172c317b2,65e885b59df01e3e2177f9af,,,,,,,,,,,675.8811,1.4,677.2814,677.2814,678.1486,left,0,0.8617,,678.1487,679.1489,1,2,18,5,1,partial,2,images/Ex6.jpg,right,nonreversed,hard,4,,,,,
,,,,,5f75d01a857e4e27a575f7ca,001,42,female,British,Bachelors Degree,2024-03-06_15h05.05.880,CRL1h,2023.2.3,Win32,74.07407407,65e67470ae2fbf2172c317b2,65e885b59df01e3e2177f9af,,,,,,,,,,,679.1492,1.2,680.3489,680.3489,681.2293,right,1,0.8729,,681.2293,682.2302,1,3,19,13,1,partial,2,images/Ex6.jpg,right,nonreversed,hard,4,,,,,
,,,,,5f75d01a857e4e27a575f7ca,001,42,female,British,Bachelors Degree,2024-03-06_15h05.05.880,CRL1h,2023.2.3,Win32,74.07407407,65e67470ae2fbf2172c317b2,65e885b59df01e3e2177f9af,,,,,,,,,,,682.2307,1.3,683.5234,683.5235,685.2042,left,0,1.6789,,685.2042,686.2045,1,4,20,9,1,partial,2,images/Ex2.jpg,right,reversed,hard,4,,,,,
,,,,,5f75d01a857e4e27a575f7ca,001,42,female,British,Bachelors Degree,2024-03-06_15h05.05.880,CRL1h,2023.2.3,Win32,74.07407407,65e67470ae2fbf2172c317b2,65e885b59df01e3e2177f9af,,,,,,,,,,,686.2049,0.6,686.8047,686.8047,687.9384,right,1,1.1291,,687.9384,688.9389,1,5,21,0,1,partial,2,images/Ex1.jpg,right,reversed,hard,4,,,,,
,,,,,5f75d01a857e4e27a575f7ca,001,42,female,British,Bachelors Degree,2024-03-06_15h05.05.880,CRL1h,2023.2.3,Win32,74.07407407,65e67470ae2fbf2172c317b2,65e885b59df01e3e2177f9af,,,,,,,,,,,688.9454,1.1,690.0458,690.0458,691.7402,left,1,1.6848,,691.7403,692.7402,1,6,22,6,1,partial,2,images/Ex7.jpg,left,reversed,hard,4,,,,,
,,,,,5f75d01a857e4e27a575f7ca,001,42,female,British,Bachelors Degree,2024-03-06_15h05.05.880,CRL1h,2023.2.3,Win32,74.07407407,65e67470ae2fbf2172c317b2,65e885b59df01e3e2177f9af,,,,,,,,,,,692.7406,1,693.7409,693.741,694.9278,left,0,1.1757,,694.9278,695.9281,1,7,23,1,1,partial,2,images/Ex2.jpg,right,reversed,hard,4,,,,,
,,,,,5f75d01a857e4e27a575f7ca,001,42,female,British,Bachelors Degree,2024-03-06_15h05.05.880,CRL1h,2023.2.3,Win32,74.07407407,65e67470ae2fbf2172c317b2,65e885b59df01e3e2177f9af,,,,,,,,,,,695.9286,1.5,697.4221,697.4221,698.1957,left,1,0.7678,,698.1958,699.1957,1,8,24,3,1,partial,2,images/Ex4.jpg,left,nonreversed,hard,4,,,,,
,,,,,5f75d01a857e4e27a575f7ca,001,42,female,British,Bachelors Degree,2024-03-06_15h05.05.880,CRL1h,2023.2.3,Win32,74.07407407,65e67470ae2fbf2172c317b2,65e885b59df01e3e2177f9af,,,,,,,,,,,699.1961,1.5,700.6899,700.6899,701.5033,right,0,0.8121,,701.5033,702.5037,1,9,25,10,1,partial,2,images/Ex3.jpg,left,nonreversed,hard,4,,,,,
,,,,,5f75d01a857e4e27a575f7ca,001,42,female,British,Bachelors Degree,2024-03-06_15h05.05.880,CRL1h,2023.2.3,Win32,74.07407407,65e67470ae2fbf2172c317b2,65e885b59df01e3e2177f9af,,,,,,,,,,,702.5041,0.8,703.3042,703.3043,704.2377,left,1,0.9288,,704.2378,705.2383,1,10,26,14,1,partial,2,images/Ex7.jpg,left,reversed,hard,4,,,,,
,,,,,5f75d01a857e4e27a575f7ca,001,42,female,British,Bachelors Degree,2024-03-06_15h05.05.880,CRL1h,2023.2.3,Win32,74.07407407,65e67470ae2fbf2172c317b2,65e885b59df01e3e2177f9af,,,,,,,,,,,705.2386,1,706.2384,706.2384,707.2791,right,0,1.0337,,707.2792,708.2794,1,11,27,7,1,partial,2,images/Ex8.jpg,left,reversed,hard,4,,,,,
,,,,,5f75d01a857e4e27a575f7ca,001,42,female,British,Bachelors Degree,2024-03-06_15h05.05.880,CRL1h,2023.2.3,Win32,74.07407407,65e67470ae2fbf2172c317b2,65e885b59df01e3e2177f9af,,,,,,,,,,,708.2797,0.8,709.0795,709.0795,709.7333,left,1,0.6505,,709.7334,710.7335,1,12,28,11,1,partial,2,images/Ex4.jpg,left,nonreversed,hard,4,,,,,
,,,,,5f75d01a857e4e27a575f7ca,001,42,female,British,Bachelors Degree,2024-03-06_15h05.05.880,CRL1h,2023.2.3,Win32,74.07407407,65e67470ae2fbf2172c317b2,65e885b59df01e3e2177f9af,,,,,,,,,,,710.734,0.9,711.6269,711.627,712.4142,left,0,0.7853,,712.4142,713.4145,1,13,29,12,1,partial,2,images/Ex5.jpg,right,nonreversed,hard,4,,,,,
,,,,,5f75d01a857e4e27a575f7ca,001,42,female,British,Bachelors Degree,2024-03-06_15h05.05.880,CRL1h,2023.2.3,Win32,74.07407407,65e67470ae2fbf2172c317b2,65e885b59df01e3e2177f9af,,,,,,,,,,,713.4149,1.4,714.8148,714.8148,715.8288,right,1,1.0023,,715.8288,716.8289,1,14,30,4,1,partial,2,images/Ex5.jpg,right,nonreversed,hard,4,,,,,
,,,,,5f75d01a857e4e27a575f7ca,001,42,female,British,Bachelors Degree,2024-03-06_15h05.05.880,CRL1h,2023.2.3,Win32,74.07407407,65e67470ae2fbf2172c317b2,65e885b59df01e3e2177f9af,,,,,,,,,,,716.8292,1,717.8295,717.8295,718.8704,right,1,1.029,,718.8705,719.87,1,15,31,8,1,partial,2,images/Ex1.jpg,right,reversed,hard,4,,,,,
,,,,,5f75d01a857e4e27a575f7ca,001,42,female,British,Bachelors Degree,2024-03-06_15h05.05.880,CRL1h,2023.2.3,Win32,74.07407407,65e67470ae2fbf2172c317b2,65e885b59df01e3e2177f9af,,,,,,,,,,,719.8703,0.6,720.4706,720.4706,721.1242,right,1,0.6424,,721.1243,722.1246,2,0,32,0,1,partial,2,images/Ex1.jpg,right,reversed,hard,4,,,,,
,,,,,5f75d01a857e4e27a575f7ca,001,42,female,British,Bachelors Degree,2024-03-06_15h05.05.880,CRL1h,2023.2.3,Win32,74.07407407,65e67470ae2fbf2172c317b2,65e885b59df01e3e2177f9af,,,,,,,,,,,722.125,1.4,723.5247,723.5247,725.3126,left,1,1.7789,,725.3126,726.3129,2,1,33,6,1,partial,2,images/Ex7.jpg,left,reversed,hard,4,,,,,
,,,,,5f75d01a857e4e27a575f7ca,001,42,female,British,Bachelors Degree,2024-03-06_15h05.05.880,CRL1h,2023.2.3,Win32,74.07407407,65e67470ae2fbf2172c317b2,65e885b59df01e3e2177f9af,,,,,,,,,,,726.3131,0.9,727.2061,727.2061,728.073,right,1,0.8651,,728.0731,729.0736,2,2,34,13,1,partial,2,images/Ex6.jpg,right,nonreversed,hard,4,,,,,
,,,,,5f75d01a857e4e27a575f7ca,001,42,female,British,Bachelors Degree,2024-03-06_15h05.05.880,CRL1h,2023.2.3,Win32,74.07407407,65e67470ae2fbf2172c317b2,65e885b59df01e3e2177f9af,,,,,,,,,,,729.0739,1.2,730.274,730.274,731.8478,left,1,1.5627,,731.8478,732.8484,2,3,35,2,1,partial,2,images/Ex3.jpg,left,nonreversed,hard,4,,,,,
,,,,,5f75d01a857e4e27a575f7ca,001,42,female,British,Bachelors Degree,2024-03-06_15h05.05.880,CRL1h,2023.2.3,Win32,74.07407407,65e67470ae2fbf2172c317b2,65e885b59df01e3e2177f9af,,,,,,,,,,,732.8487,0.9,733.7422,733.7422,735.2627,left,0,1.5133,,735.2627,736.263,2,4,36,4,1,partial,2,images/Ex5.jpg,right,nonreversed,hard,4,,,,,
,,,,,5f75d01a857e4e27a575f7ca,001,42,female,British,Bachelors Degree,2024-03-06_15h05.05.880,CRL1h,2023.2.3,Win32,74.07407407,65e67470ae2fbf2172c317b2,65e885b59df01e3e2177f9af,,,,,,,,,,,736.2634,1.1,737.3568,737.3568,738.6372,left,1,1.2697,,738.6373,739.6372,2,5,37,15,1,partial,2,images/Ex8.jpg,left,reversed,hard,4,,,,,
,,,,,5f75d01a857e4e27a575f7ca,001,42,female,British,Bachelors Degree,2024-03-06_15h05.05.880,CRL1h,2023.2.3,Win32,74.07407407,65e67470ae2fbf2172c317b2,65e885b59df01e3e2177f9af,,,,,,,,,,,739.6376,1.1,740.7313,740.7313,741.4514,left,1,0.7189,,741.4514,742.4519,2,6,38,11,1,partial,2,images/Ex4.jpg,left,nonreversed,hard,4,,,,,
,,,,,5f75d01a857e4e27a575f7ca,001,42,female,British,Bachelors Degree,2024-03-06_15h05.05.880,CRL1h,2023.2.3,Win32,74.07407407,65e67470ae2fbf2172c317b2,65e885b59df01e3e2177f9af,,,,,,,,,,,742.4524,1,743.4523,743.4523,745.0661,right,1,1.6115,,745.0661,746.0664,2,7,39,12,1,partial,2,images/Ex5.jpg,right,nonreversed,hard,4,,,,,
,,,,,5f75d01a857e4e27a575f7ca,001,42,female,British,Bachelors Degree,2024-03-06_15h05.05.880,CRL1h,2023.2.3,Win32,74.07407407,65e67470ae2fbf2172c317b2,65e885b59df01e3e2177f9af,,,,,,,,,,,746.0667,0.6,746.6668,746.6669,747.3611,left,1,0.6852,,747.3611,748.3605,2,8,40,3,1,partial,2,images/Ex4.jpg,left,nonreversed,hard,4,,,,,
,,,,,5f75d01a857e4e27a575f7ca,001,42,female,British,Bachelors Degree,2024-03-06_15h05.05.880,CRL1h,2023.2.3,Win32,74.07407407,65e67470ae2fbf2172c317b2,65e885b59df01e3e2177f9af,,,,,,,,,,,748.3608,1.3,749.6544,749.6545,751.5215,left,0,1.8658,,751.5216,752.5221,2,9,41,1,1,partial,2,images/Ex2.jpg,right,reversed,hard,4,,,,,
,,,,,5f75d01a857e4e27a575f7ca,001,42,female,British,Bachelors Degree,2024-03-06_15h05.05.880,CRL1h,2023.2.3,Win32,74.07407407,65e67470ae2fbf2172c317b2,65e885b59df01e3e2177f9af,,,,,,,,,,,752.5224,0.8,753.3227,753.3227,754.4563,right,1,1.1295,,754.4563,755.4565,2,10,42,8,1,partial,2,images/Ex1.jpg,right,reversed,hard,4,,,,,
,,,,,5f75d01a857e4e27a575f7ca,001,42,female,British,Bachelors Degree,2024-03-06_15h05.05.880,CRL1h,2023.2.3,Win32,74.07407407,65e67470ae2fbf2172c317b2,65e885b59df01e3e2177f9af,,,,,,,,,,,755.4568,0.8,756.2569,756.2569,757.3639,right,1,1.0992,,757.3639,758.3643,2,11,43,9,1,partial,2,images/Ex2.jpg,right,reversed,hard,4,,,,,
,,,,,5f75d01a857e4e27a575f7ca,001,42,female,British,Bachelors Degree,2024-03-06_15h05.05.880,CRL1h,2023.2.3,Win32,74.07407407,65e67470ae2fbf2172c317b2,65e885b59df01e3e2177f9af,,,,,,,,,,,758.3648,1.3,759.6582,759.6583,760.405,right,0,0.7402,,760.4051,761.4058,2,12,44,10,1,partial,2,images/Ex3.jpg,left,nonreversed,hard,4,,,,,
,,,,,5f75d01a857e4e27a575f7ca,001,42,female,British,Bachelors Degree,2024-03-06_15h05.05.880,CRL1h,2023.2.3,Win32,74.07407407,65e67470ae2fbf2172c317b2,65e885b59df01e3e2177f9af,,,,,,,,,,,761.4061,1.2,762.6059,762.606,763.8599,right,0,1.2469,,763.8599,764.86,2,13,45,7,1,partial,2,images/Ex8.jpg,left,reversed,hard,4,,,,,
,,,,,5f75d01a857e4e27a575f7ca,001,42,female,British,Bachelors Degree,2024-03-06_15h05.05.880,CRL1h,2023.2.3,Win32,74.07407407,65e67470ae2fbf2172c317b2,65e885b59df01e3e2177f9af,,,,,,,,,,,764.8604,1,765.8606,765.8606,767.0342,right,1,1.1649,,767.0342,768.0345,2,14,46,5,1,partial,2,images/Ex6.jpg,right,nonreversed,hard,4,,,,,
,,,,,5f75d01a857e4e27a575f7ca,001,42,female,British,Bachelors Degree,2024-03-06_15h05.05.880,CRL1h,2023.2.3,Win32,74.07407407,65e67470ae2fbf2172c317b2,65e885b59df01e3e2177f9af,,,,,,,,,,,768.0347,1.4,769.4348,769.4349,771.2091,left,1,1.7732,,771.2092,772.2095,2,15,47,14,1,partial,2,images/Ex7.jpg,left,reversed,hard,4,,,,,
,,,,,5f75d01a857e4e27a575f7ca,001,42,female,British,Bachelors Degree,2024-03-06_15h05.05.880,CRL1h,2023.2.3,Win32,74.07407407,65e67470ae2fbf2172c317b2,65e885b59df01e3e2177f9af,,,,,,,,,,,772.21,1.3,773.503,773.503,774.0371,left,1,0.5304,,774.0372,775.0368,3,0,48,6,1,partial,2,images/Ex7.jpg,left,reversed,hard,4,,,,,
,,,,,5f75d01a857e4e27a575f7ca,001,42,female,British,Bachelors Degree,2024-03-06_15h05.05.880,CRL1h,2023.2.3,Win32,74.07407407,65e67470ae2fbf2172c317b2,65e885b59df01e3e2177f9af,,,,,,,,,,,775.0372,0.8,775.8375,775.8375,776.8647,left,0,1.0162,,776.8647,777.8646,3,1,49,4,1,partial,2,images/Ex5.jpg,right,nonreversed,hard,4,,,,,
,,,,,5f75d01a857e4e27a575f7ca,001,42,female,British,Bachelors Degree,2024-03-06_15h05.05.880,CRL1h,2023.2.3,Win32,74.07407407,65e67470ae2fbf2172c317b2,65e885b59df01e3e2177f9af,,,,,,,,,,,777.8649,1,778.8654,778.8654,779.6393,right,0,0.7644,,779.6393,780.6395,3,2,50,15,1,partial,2,images/Ex8.jpg,left,reversed,hard,4,,,,,
,,,,,5f75d01a857e4e27a575f7ca,001,42,female,British,Bachelors Degree,2024-03-06_15h05.05.880,CRL1h,2023.2.3,Win32,74.07407407,65e67470ae2fbf2172c317b2,65e885b59df01e3e2177f9af,,,,,,,,,,,780.64,0.8,781.4396,781.4396,782.0533,right,1,0.6042,,782.0533,783.0533,3,3,51,13,1,partial,2,images/Ex6.jpg,right,nonreversed,hard,4,,,,,
,,,,,5f75d01a857e4e27a575f7ca,001,42,female,British,Bachelors Degree,2024-03-06_15h05.05.880,CRL1h,2023.2.3,Win32,74.07407407,65e67470ae2fbf2172c317b2,65e885b59df01e3e2177f9af,,,,,,,,,,,783.0535,0.5,783.5467,783.5467,784.7075,right,1,1.1502,,784.7075,785.7074,3,4,52,0,1,partial,2,images/Ex1.jpg,right,reversed,hard,4,,,,,
,,,,,5f75d01a857e4e27a575f7ca,001,42,female,British,Bachelors Degree,2024-03-06_15h05.05.880,CRL1h,2023.2.3,Win32,74.07407407,65e67470ae2fbf2172c317b2,65e885b59df01e3e2177f9af,,,,,,,,,,,785.7076,0.7,786.4012,786.4013,786.9348,right,1,0.523,,786.9348,787.9353,3,5,53,8,1,partial,2,images/Ex1.jpg,right,reversed,hard,4,,,,,
,,,,,5f75d01a857e4e27a575f7ca,001,42,female,British,Bachelors Degree,2024-03-06_15h05.05.880,CRL1h,2023.2.3,Win32,74.07407407,65e67470ae2fbf2172c317b2,65e885b59df01e3e2177f9af,,,,,,,,,,,787.9357,0.9,788.829,788.829,790.9507,right,1,2.121,,790.9507,791.9498,3,6,54,1,1,partial,2,images/Ex2.jpg,right,reversed,hard,4,,,,,
,,,,,5f75d01a857e4e27a575f7ca,001,42,female,British,Bachelors Degree,2024-03-06_15h05.05.880,CRL1h,2023.2.3,Win32,74.07407407,65e67470ae2fbf2172c317b2,65e885b59df01e3e2177f9af,,,,,,,,,,,791.9559,1,792.9504,792.9504,793.5373,right,1,0.5759,,793.5374,794.5377,3,7,55,9,1,partial,2,images/Ex2.jpg,right,reversed,hard,4,,,,,
,,,,,5f75d01a857e4e27a575f7ca,001,42,female,British,Bachelors Degree,2024-03-06_15h05.05.880,CRL1h,2023.2.3,Win32,74.07407407,65e67470ae2fbf2172c317b2,65e885b59df01e3e2177f9af,,,,,,,,,,,794.5381,0.5,795.0312,795.0312,796.2715,left,1,1.232,,796.2715,797.2724,3,8,56,14,1,partial,2,images/Ex7.jpg,left,reversed,hard,4,,,,,
,,,,,5f75d01a857e4e27a575f7ca,001,42,female,British,Bachelors Degree,2024-03-06_15h05.05.880,CRL1h,2023.2.3,Win32,74.07407407,65e67470ae2fbf2172c317b2,65e885b59df01e3e2177f9af,,,,,,,,,,,797.2728,1.2,798.4725,798.4725,800.2729,left,1,1.7995,,800.2729,801.2736,3,9,57,10,1,partial,2,images/Ex3.jpg,left,nonreversed,hard,4,,,,,
,,,,,5f75d01a857e4e27a575f7ca,001,42,female,British,Bachelors Degree,2024-03-06_15h05.05.880,CRL1h,2023.2.3,Win32,74.07407407,65e67470ae2fbf2172c317b2,65e885b59df01e3e2177f9af,,,,,,,,,,,801.2797,0.6,801.8733,801.8734,802.6873,left,1,0.8088,,802.6874,803.6877,3,10,58,7,1,partial,2,images/Ex8.jpg,left,reversed,hard,4,,,,,
,,,,,5f75d01a857e4e27a575f7ca,001,42,female,British,Bachelors Degree,2024-03-06_15h05.05.880,CRL1h,2023.2.3,Win32,74.07407407,65e67470ae2fbf2172c317b2,65e885b59df01e3e2177f9af,,,,,,,,,,,803.6881,1.2,804.8881,804.8881,805.5951,left,0,0.7063,,805.5951,806.5956,3,11,59,5,1,partial,2,images/Ex6.jpg,right,nonreversed,hard,4,,,,,
,,,,,5f75d01a857e4e27a575f7ca,001,42,female,British,Bachelors Degree,2024-03-06_15h05.05.880,CRL1h,2023.2.3,Win32,74.07407407,65e67470ae2fbf2172c317b2,65e885b59df01e3e2177f9af,,,,,,,,,,,806.596,0.7,807.2888,807.2889,808.0759,left,1,0.7766,,808.076,809.0763,3,12,60,2,1,partial,2,images/Ex3.jpg,left,nonreversed,hard,4,,,,,
,,,,,5f75d01a857e4e27a575f7ca,001,42,female,British,Bachelors Degree,2024-03-06_15h05.05.880,CRL1h,2023.2.3,Win32,74.07407407,65e67470ae2fbf2172c317b2,65e885b59df01e3e2177f9af,,,,,,,,,,,809.0765,1,810.0763,810.0764,810.7305,left,1,0.6437,,810.7305,811.7308,3,13,61,11,1,partial,2,images/Ex4.jpg,left,nonreversed,hard,4,,,,,
,,,,,5f75d01a857e4e27a575f7ca,001,42,female,British,Bachelors Degree,2024-03-06_15h05.05.880,CRL1h,2023.2.3,Win32,74.07407407,65e67470ae2fbf2172c317b2,65e885b59df01e3e2177f9af,,,,,,,,,,,811.7312,1.4,813.1313,813.1313,813.7983,left,1,0.6555,,813.7984,814.7983,3,14,62,3,1,partial,2,images/Ex4.jpg,left,nonreversed,hard,4,,,,,
,,,,,5f75d01a857e4e27a575f7ca,001,42,female,British,Bachelors Degree,2024-03-06_15h05.05.880,CRL1h,2023.2.3,Win32,74.07407407,65e67470ae2fbf2172c317b2,65e885b59df01e3e2177f9af,,,,,,,,,,,814.7987,1.5,816.2921,816.2922,817.1618,left,0,0.8578,,817.1618,818.1598,3,15,63,12,1,partial,2,images/Ex5.jpg,right,nonreversed,hard,4,,,,,
,,,,,5f75d01a857e4e27a575f7ca,001,42,female,British,Bachelors Degree,2024-03-06_15h05.05.880,CRL1h,2023.2.3,Win32,74.07407407,65e67470ae2fbf2172c317b2,65e885b59df01e3e2177f9af,,,,,,818.1608,866.5375,space,48.3639,,866.5476,1,867.5385,867.5385,871.1524,right,0,3.6117,,871.1525,872.1532,0,0,0,9,1,total,1,images/Ex10.jpg,left,training,hard,4,,,,,
,,,,,5f75d01a857e4e27a575f7ca,001,42,female,British,Bachelors Degree,2024-03-06_15h05.05.880,CRL1h,2023.2.3,Win32,74.07407407,65e67470ae2fbf2172c317b2,65e885b59df01e3e2177f9af,,,,,,,,,,,872.1594,1.5,873.66,873.66,876.0078,left,0,2.3378,,876.0078,877.008,0,1,1,7,1,total,1,images/Ex16.jpg,right,training,hard,4,,,,,
,,,,,5f75d01a857e4e27a575f7ca,001,42,female,British,Bachelors Degree,2024-03-06_15h05.05.880,CRL1h,2023.2.3,Win32,74.07407407,65e67470ae2fbf2172c317b2,65e885b59df01e3e2177f9af,,,,,,,,,,,877.0139,1.1,878.1151,878.1151,879.0752,right,0,0.9493,,879.0752,880.0754,0,2,2,11,1,total,1,images/Ex12.jpg,left,training,hard,4,,,,,
,,,,,5f75d01a857e4e27a575f7ca,001,42,female,British,Bachelors Degree,2024-03-06_15h05.05.880,CRL1h,2023.2.3,Win32,74.07407407,65e67470ae2fbf2172c317b2,65e885b59df01e3e2177f9af,,,,,,,,,,,880.0758,1.2,881.2763,881.2764,881.8363,right,1,0.5573,,881.8364,882.8365,0,3,3,14,1,total,1,images/Ex15.jpg,right,training,hard,4,,,,,
,,,,,5f75d01a857e4e27a575f7ca,001,42,female,British,Bachelors Degree,2024-03-06_15h05.05.880,CRL1h,2023.2.3,Win32,74.07407407,65e67470ae2fbf2172c317b2,65e885b59df01e3e2177f9af,,,,,,,,,,,882.8369,0.6,883.4368,883.4368,884.9978,right,0,1.5491,,884.9978,885.9982,0,4,4,0,1,total,1,images/Ex9.jpg,left,training,hard,4,,,,,
,,,,,5f75d01a857e4e27a575f7ca,001,42,female,British,Bachelors Degree,2024-03-06_15h05.05.880,CRL1h,2023.2.3,Win32,74.07407407,65e67470ae2fbf2172c317b2,65e885b59df01e3e2177f9af,,,,,,,,,,,885.9985,1,886.9983,886.9983,888.3988,left,0,1.3891,,888.3989,889.3992,0,5,5,4,1,total,1,images/Ex13.jpg,right,training,hard,4,,,,,
,,,,,5f75d01a857e4e27a575f7ca,001,42,female,British,Bachelors Degree,2024-03-06_15h05.05.880,CRL1h,2023.2.3,Win32,74.07407407,65e67470ae2fbf2172c317b2,65e885b59df01e3e2177f9af,,,,,,,,,,,889.3996,1,890.3997,890.3997,890.9738,right,0,0.5672,,890.9738,891.9737,0,6,6,3,1,total,1,images/Ex12.jpg,left,training,hard,4,,,,,
,,,,,5f75d01a857e4e27a575f7ca,001,42,female,British,Bachelors Degree,2024-03-06_15h05.05.880,CRL1h,2023.2.3,Win32,74.07407407,65e67470ae2fbf2172c317b2,65e885b59df01e3e2177f9af,,,,,,,,,,,891.9741,0.6,892.5738,892.5738,893.1338,right,0,0.5487,,893.1339,894.1341,0,7,7,2,1,total,1,images/Ex11.jpg,left,training,hard,4,,,,,
,,,,,5f75d01a857e4e27a575f7ca,001,42,female,British,Bachelors Degree,2024-03-06_15h05.05.880,CRL1h,2023.2.3,Win32,74.07407407,65e67470ae2fbf2172c317b2,65e885b59df01e3e2177f9af,,,,,,,,,,,894.1344,0.7,894.8281,894.8281,895.2811,right,0,0.452,,895.2812,896.2817,0,8,8,8,1,total,1,images/Ex9.jpg,left,training,hard,4,,,,,
,,,,,5f75d01a857e4e27a575f7ca,001,42,female,British,Bachelors Degree,2024-03-06_15h05.05.880,CRL1h,2023.2.3,Win32,74.07407407,65e67470ae2fbf2172c317b2,65e885b59df01e3e2177f9af,,,,,,,,,,,896.2821,1.3,897.5755,897.5756,898.8161,left,1,1.2326,,898.8161,899.8159,0,9,9,10,1,total,1,images/Ex11.jpg,left,training,hard,4,,,,,
,,,,,5f75d01a857e4e27a575f7ca,001,42,female,British,Bachelors Degree,2024-03-06_15h05.05.880,CRL1h,2023.2.3,Win32,74.07407407,65e67470ae2fbf2172c317b2,65e885b59df01e3e2177f9af,,,,,,,,,,,899.8162,0.6,900.4169,900.4169,901.3771,left,0,0.9483,,901.3772,902.3775,0,10,10,15,1,total,1,images/Ex16.jpg,right,training,hard,4,,,,,
,,,,,5f75d01a857e4e27a575f7ca,001,42,female,British,Bachelors Degree,2024-03-06_15h05.05.880,CRL1h,2023.2.3,Win32,74.07407407,65e67470ae2fbf2172c317b2,65e885b59df01e3e2177f9af,,,,,,,,,,,902.378,1.5,903.8714,903.8714,904.8714,left,0,0.9886,,904.8715,905.872,0,11,11,6,1,total,1,images/Ex15.jpg,right,training,hard,4,,,,,
,,,,,5f75d01a857e4e27a575f7ca,001,42,female,British,Bachelors Degree,2024-03-06_15h05.05.880,CRL1h,2023.2.3,Win32,74.07407407,65e67470ae2fbf2172c317b2,65e885b59df01e3e2177f9af,,,,,,,,,,,905.8724,1.4,907.2727,907.2728,909.2333,left,1,1.9503,,909.2333,910.2336,0,12,12,1,1,total,1,images/Ex10.jpg,left,training,hard,4,,,,,
,,,,,5f75d01a857e4e27a575f7ca,001,42,female,British,Bachelors Degree,2024-03-06_15h05.05.880,CRL1h,2023.2.3,Win32,74.07407407,65e67470ae2fbf2172c317b2,65e885b59df01e3e2177f9af,,,,,,,,,,,910.234,0.6,910.8336,910.8336,912.2341,right,1,1.3893,,912.2341,913.2343,0,13,13,13,1,total,1,images/Ex14.jpg,right,training,hard,4,,,,,
,,,,,5f75d01a857e4e27a575f7ca,001,42,female,British,Bachelors Degree,2024-03-06_15h05.05.880,CRL1h,2023.2.3,Win32,74.07407407,65e67470ae2fbf2172c317b2,65e885b59df01e3e2177f9af,,,,,,,,,,,913.2347,1.4,914.635,914.6351,915.7692,right,1,1.1252,,915.7692,916.7692,0,14,14,12,1,total,1,images/Ex13.jpg,right,training,hard,4,,,,,
,,,,,5f75d01a857e4e27a575f7ca,001,42,female,British,Bachelors Degree,2024-03-06_15h05.05.880,CRL1h,2023.2.3,Win32,74.07407407,65e67470ae2fbf2172c317b2,65e885b59df01e3e2177f9af,,,,,,,,,,,916.7697,1.4,918.1694,918.1694,919.3577,left,0,1.1784,,919.3577,920.3575,0,15,15,5,1,total,1,images/Ex14.jpg,right,training,hard,4,,,,,
,,,,,5f75d01a857e4e27a575f7ca,001,42,female,British,Bachelors Degree,2024-03-06_15h05.05.880,CRL1h,2023.2.3,Win32,74.07407407,65e67470ae2fbf2172c317b2,65e885b59df01e3e2177f9af,,,,,,,,,,,920.358,1.3,921.6513,921.6513,922.8246,right,1,1.1658,,922.8247,923.8253,1,0,16,5,1,total,1,images/Ex14.jpg,right,training,hard,4,,,,,
,,,,,5f75d01a857e4e27a575f7ca,001,42,female,British,Bachelors Degree,2024-03-06_15h05.05.880,CRL1h,2023.2.3,Win32,74.07407407,65e67470ae2fbf2172c317b2,65e885b59df01e3e2177f9af,,,,,,,,,,,923.8256,1.4,925.2257,925.2257,926.0928,left,1,0.8624,,926.0929,927.093,1,1,17,9,1,total,1,images/Ex10.jpg,left,training,hard,4,,,,,
,,,,,5f75d01a857e4e27a575f7ca,001,42,female,British,Bachelors Degree,2024-03-06_15h05.05.880,CRL1h,2023.2.3,Win32,74.07407407,65e67470ae2fbf2172c317b2,65e885b59df01e3e2177f9af,,,,,,,,,,,927.0934,0.5,927.5864,927.5864,928.9738,left,0,1.376,,928.9738,929.974,1,2,18,12,1,total,1,images/Ex13.jpg,right,training,hard,4,,,,,
,,,,,5f75d01a857e4e27a575f7ca,001,42,female,British,Bachelors Degree,2024-03-06_15h05.05.880,CRL1h,2023.2.3,Win32,74.07407407,65e67470ae2fbf2172c317b2,65e885b59df01e3e2177f9af,,,,,,,,,,,929.9744,1.5,931.4682,931.4682,932.4152,right,1,0.9378,,932.4152,933.4153,1,3,19,13,1,total,1,images/Ex14.jpg,right,training,hard,4,,,,,
,,,,,5f75d01a857e4e27a575f7ca,001,42,female,British,Bachelors Degree,2024-03-06_15h05.05.880,CRL1h,2023.2.3,Win32,74.07407407,65e67470ae2fbf2172c317b2,65e885b59df01e3e2177f9af,,,,,,,,,,,933.4157,0.6,934.0155,934.0155,935.0294,right,1,1.0027,,935.0294,936.0297,1,4,20,15,1,total,1,images/Ex16.jpg,right,training,hard,4,,,,,
,,,,,5f75d01a857e4e27a575f7ca,001,42,female,British,Bachelors Degree,2024-03-06_15h05.05.880,CRL1h,2023.2.3,Win32,74.07407407,65e67470ae2fbf2172c317b2,65e885b59df01e3e2177f9af,,,,,,,,,,,936.0301,1,937.03,937.0301,938.2307,right,0,1.1898,,938.2307,939.2309,1,5,21,3,1,total,1,images/Ex12.jpg,left,training,hard,4,,,,,
,,,,,5f75d01a857e4e27a575f7ca,001,42,female,British,Bachelors Degree,2024-03-06_15h05.05.880,CRL1h,2023.2.3,Win32,74.07407407,65e67470ae2fbf2172c317b2,65e885b59df01e3e2177f9af,,,,,,,,,,,939.2313,0.7,939.9243,939.9243,941.285,right,0,1.3494,,941.285,942.2854,1,6,22,2,1,total,1,images/Ex11.jpg,left,training,hard,4,,,,,
,,,,,5f75d01a857e4e27a575f7ca,001,42,female,British,Bachelors Degree,2024-03-06_15h05.05.880,CRL1h,2023.2.3,Win32,74.07407407,65e67470ae2fbf2172c317b2,65e885b59df01e3e2177f9af,,,,,,,,,,,942.2856,1.1,943.3791,943.3791,944.6732,right,1,1.2824,,944.6732,945.6732,1,7,23,7,1,total,1,images/Ex16.jpg,right,training,hard,4,,,,,
,,,,,5f75d01a857e4e27a575f7ca,001,42,female,British,Bachelors Degree,2024-03-06_15h05.05.880,CRL1h,2023.2.3,Win32,74.07407407,65e67470ae2fbf2172c317b2,65e885b59df01e3e2177f9af,,,,,,,,,,,945.6736,0.5,946.1668,946.1668,947.2872,left,1,1.112,,947.2873,948.2875,1,8,24,1,1,total,1,images/Ex10.jpg,left,training,hard,4,,,,,
,,,,,5f75d01a857e4e27a575f7ca,001,42,female,British,Bachelors Degree,2024-03-06_15h05.05.880,CRL1h,2023.2.3,Win32,74.07407407,65e67470ae2fbf2172c317b2,65e885b59df01e3e2177f9af,,,,,,,,,,,948.2879,1.1,949.381,949.3811,950.8086,right,0,1.4163,,950.8086,951.8088,1,9,25,10,1,total,1,images/Ex11.jpg,left,training,hard,4,,,,,
,,,,,5f75d01a857e4e27a575f7ca,001,42,female,British,Bachelors Degree,2024-03-06_15h05.05.880,CRL1h,2023.2.3,Win32,74.07407407,65e67470ae2fbf2172c317b2,65e885b59df01e3e2177f9af,,,,,,,,,,,951.8092,0.9,952.7023,952.7023,953.9828,left,0,1.27,,953.983,954.9834,1,10,26,6,1,total,1,images/Ex15.jpg,right,training,hard,4,,,,,
,,,,,5f75d01a857e4e27a575f7ca,001,42,female,British,Bachelors Degree,2024-03-06_15h05.05.880,CRL1h,2023.2.3,Win32,74.07407407,65e67470ae2fbf2172c317b2,65e885b59df01e3e2177f9af,,,,,,,,,,,954.9838,1,955.9837,955.9838,956.9708,right,1,0.9801,,956.9709,957.9712,1,11,27,4,1,total,1,images/Ex13.jpg,right,training,hard,4,,,,,
,,,,,5f75d01a857e4e27a575f7ca,001,42,female,British,Bachelors Degree,2024-03-06_15h05.05.880,CRL1h,2023.2.3,Win32,74.07407407,65e67470ae2fbf2172c317b2,65e885b59df01e3e2177f9af,,,,,,,,,,,957.9715,1.4,959.3718,959.3719,960.2652,right,0,0.8902,,960.2653,961.2658,1,12,28,11,1,total,1,images/Ex12.jpg,left,training,hard,4,,,,,
,,,,,5f75d01a857e4e27a575f7ca,001,42,female,British,Bachelors Degree,2024-03-06_15h05.05.880,CRL1h,2023.2.3,Win32,74.07407407,65e67470ae2fbf2172c317b2,65e885b59df01e3e2177f9af,,,,,,,,,,,961.2661,0.9,962.1594,962.1594,963.0531,right,1,0.8893,,963.0531,964.0534,1,13,29,14,1,total,1,images/Ex15.jpg,right,training,hard,4,,,,,
,,,,,5f75d01a857e4e27a575f7ca,001,42,female,British,Bachelors Degree,2024-03-06_15h05.05.880,CRL1h,2023.2.3,Win32,74.07407407,65e67470ae2fbf2172c317b2,65e885b59df01e3e2177f9af,,,,,,,,,,,964.0537,1.4,965.4536,965.4537,966.4277,right,0,0.9645,,966.4277,967.4282,1,14,30,8,1,total,1,images/Ex9.jpg,left,training,hard,4,,,,,
,,,,,5f75d01a857e4e27a575f7ca,001,42,female,British,Bachelors Degree,2024-03-06_15h05.05.880,CRL1h,2023.2.3,Win32,74.07407407,65e67470ae2fbf2172c317b2,65e885b59df01e3e2177f9af,,,,,,,,,,,967.4286,1.3,968.7216,968.7217,969.8019,left,1,1.0751,,969.8019,970.8026,1,15,31,0,1,total,1,images/Ex9.jpg,left,training,hard,4,,,,,
,,,,,5f75d01a857e4e27a575f7ca,001,42,female,British,Bachelors Degree,2024-03-06_15h05.05.880,CRL1h,2023.2.3,Win32,74.07407407,65e67470ae2fbf2172c317b2,65e885b59df01e3e2177f9af,,,,,,,,,,,970.803,1.4,972.2031,972.2031,973.4835,left,0,1.2716,,973.4835,974.4838,2,0,32,5,1,total,1,images/Ex14.jpg,right,training,hard,4,,,,,
,,,,,5f75d01a857e4e27a575f7ca,001,42,female,British,Bachelors Degree,2024-03-06_15h05.05.880,CRL1h,2023.2.3,Win32,74.07407407,65e67470ae2fbf2172c317b2,65e885b59df01e3e2177f9af,,,,,,,,,,,974.4843,0.9,975.3774,975.3774,976.3645,left,1,0.9785,,976.3645,977.3645,2,1,33,3,1,total,1,images/Ex12.jpg,left,training,hard,4,,,,,
,,,,,5f75d01a857e4e27a575f7ca,001,42,female,British,Bachelors Degree,2024-03-06_15h05.05.880,CRL1h,2023.2.3,Win32,74.07407407,65e67470ae2fbf2172c317b2,65e885b59df01e3e2177f9af,,,,,,,,,,,977.3649,0.9,978.2586,978.2586,980.6324,right,1,2.3721,,980.6324,981.6331,2,2,34,4,1,total,1,images/Ex13.jpg,right,training,hard,4,,,,,
,,,,,5f75d01a857e4e27a575f7ca,001,42,female,British,Bachelors Degree,2024-03-06_15h05.05.880,CRL1h,2023.2.3,Win32,74.07407407,65e67470ae2fbf2172c317b2,65e885b59df01e3e2177f9af,,,,,,,,,,,981.6396,0.9,982.5401,982.5402,984.3541,left,1,1.8033,,984.3541,985.3542,2,3,35,1,1,total,1,images/Ex10.jpg,left,training,hard,4,,,,,
,,,,,5f75d01a857e4e27a575f7ca,001,42,female,British,Bachelors Degree,2024-03-06_15h05.05.880,CRL1h,2023.2.3,Win32,74.07407407,65e67470ae2fbf2172c317b2,65e885b59df01e3e2177f9af,,,,,,,,,,,985.3603,0.5,985.8617,985.8618,986.7818,right,1,0.9085,,986.7818,987.7817,2,4,36,7,1,total,1,images/Ex16.jpg,right,training,hard,4,,,,,
,,,,,5f75d01a857e4e27a575f7ca,001,42,female,British,Bachelors Degree,2024-03-06_15h05.05.880,CRL1h,2023.2.3,Win32,74.07407407,65e67470ae2fbf2172c317b2,65e885b59df01e3e2177f9af,,,,,,,,,,,987.782,0.7,988.4756,988.4757,990.2096,left,1,1.7263,,990.2096,991.2099,2,5,37,2,1,total,1,images/Ex11.jpg,left,training,hard,4,,,,,
,,,,,5f75d01a857e4e27a575f7ca,001,42,female,British,Bachelors Degree,2024-03-06_15h05.05.880,CRL1h,2023.2.3,Win32,74.07407407,65e67470ae2fbf2172c317b2,65e885b59df01e3e2177f9af,,,,,,,,,,,991.2169,1.4,992.6104,992.6105,994.1041,left,0,1.4918,,994.1041,995.1047,2,6,38,14,1,total,1,images/Ex15.jpg,right,training,hard,4,,,,,
,,,,,5f75d01a857e4e27a575f7ca,001,42,female,British,Bachelors Degree,2024-03-06_15h05.05.880,CRL1h,2023.2.3,Win32,74.07407407,65e67470ae2fbf2172c317b2,65e885b59df01e3e2177f9af,,,,,,,,,,,995.1051,1,996.1052,996.1052,997.4792,right,0,1.3679,,997.4793,998.4793,2,7,39,0,1,total,1,images/Ex9.jpg,left,training,hard,4,,,,,
,,,,,5f75d01a857e4e27a575f7ca,001,42,female,British,Bachelors Degree,2024-03-06_15h05.05.880,CRL1h,2023.2.3,Win32,74.07407407,65e67470ae2fbf2172c317b2,65e885b59df01e3e2177f9af,,,,,,,,,,,998.4797,1,999.4796,999.4797,1000.1734,right,1,0.6831,,1000.1734,1001.1735,2,8,40,15,1,total,1,images/Ex16.jpg,right,training,hard,4,,,,,
,,,,,5f75d01a857e4e27a575f7ca,001,42,female,British,Bachelors Degree,2024-03-06_15h05.05.880,CRL1h,2023.2.3,Win32,74.07407407,65e67470ae2fbf2172c317b2,65e885b59df01e3e2177f9af,,,,,,,,,,,1001.1739,0.8,1001.9736,1001.9737,1002.8408,left,1,0.8565,,1002.8408,1003.8413,2,9,41,8,1,total,1,images/Ex9.jpg,left,training,hard,4,,,,,
,,,,,5f75d01a857e4e27a575f7ca,001,42,female,British,Bachelors Degree,2024-03-06_15h05.05.880,CRL1h,2023.2.3,Win32,74.07407407,65e67470ae2fbf2172c317b2,65e885b59df01e3e2177f9af,,,,,,,,,,,1003.8417,1.4,1005.2421,1005.2421,1006.9492,right,0,1.6997,,1006.9492,1007.9492,2,10,42,10,1,total,1,images/Ex11.jpg,left,training,hard,4,,,,,
,,,,,5f75d01a857e4e27a575f7ca,001,42,female,British,Bachelors Degree,2024-03-06_15h05.05.880,CRL1h,2023.2.3,Win32,74.07407407,65e67470ae2fbf2172c317b2,65e885b59df01e3e2177f9af,,,,,,,,,,,1007.9495,1.2,1009.1504,1009.1505,1010.4439,left,0,1.2846,,1010.4439,1011.4439,2,11,43,13,1,total,1,images/Ex14.jpg,right,training,hard,4,,,,,
,,,,,5f75d01a857e4e27a575f7ca,001,42,female,British,Bachelors Degree,2024-03-06_15h05.05.880,CRL1h,2023.2.3,Win32,74.07407407,65e67470ae2fbf2172c317b2,65e885b59df01e3e2177f9af,,,,,,,,,,,1011.4443,1,1012.4445,1012.4446,1013.4987,right,0,1.0419,,1013.4988,1014.4985,2,12,44,11,1,total,1,images/Ex12.jpg,left,training,hard,4,,,,,
,,,,,5f75d01a857e4e27a575f7ca,001,42,female,British,Bachelors Degree,2024-03-06_15h05.05.880,CRL1h,2023.2.3,Win32,74.07407407,65e67470ae2fbf2172c317b2,65e885b59df01e3e2177f9af,,,,,,,,,,,1014.4988,1.2,1015.6991,1015.6991,1017.4193,right,1,1.7165,,1017.4194,1018.42,2,13,45,12,1,total,1,images/Ex13.jpg,right,training,hard,4,,,,,
,,,,,5f75d01a857e4e27a575f7ca,001,42,female,British,Bachelors Degree,2024-03-06_15h05.05.880,CRL1h,2023.2.3,Win32,74.07407407,65e67470ae2fbf2172c317b2,65e885b59df01e3e2177f9af,,,,,,,,,,,1018.4203,1.4,1019.8207,1019.8207,1020.7278,left,1,0.8962,,1020.7278,1021.7279,2,14,46,9,1,total,1,images/Ex10.jpg,left,training,hard,4,,,,,
,,,,,5f75d01a857e4e27a575f7ca,001,42,female,British,Bachelors Degree,2024-03-06_15h05.05.880,CRL1h,2023.2.3,Win32,74.07407407,65e67470ae2fbf2172c317b2,65e885b59df01e3e2177f9af,,,,,,,,,,,1021.7283,0.9,1022.6217,1022.6217,1023.6351,right,1,1.0023,,1023.6351,1024.6353,2,15,47,6,1,total,1,images/Ex15.jpg,right,training,hard,4,,,,,
,,,,,5f75d01a857e4e27a575f7ca,001,42,female,British,Bachelors Degree,2024-03-06_15h05.05.880,CRL1h,2023.2.3,Win32,74.07407407,65e67470ae2fbf2172c317b2,65e885b59df01e3e2177f9af,,,,,,,,,,,1024.6357,1,1025.6357,1025.6358,1026.4628,right,1,0.8205,,1026.4628,1027.4631,3,0,48,6,1,total,1,images/Ex15.jpg,right,training,hard,4,,,,,
,,,,,5f75d01a857e4e27a575f7ca,001,42,female,British,Bachelors Degree,2024-03-06_15h05.05.880,CRL1h,2023.2.3,Win32,74.07407407,65e67470ae2fbf2172c317b2,65e885b59df01e3e2177f9af,,,,,,,,,,,1027.4636,0.8,1028.2637,1028.2637,1029.9575,right,0,1.6903,,1029.9575,1030.9583,3,1,49,11,1,total,1,images/Ex12.jpg,left,training,hard,4,,,,,
,,,,,5f75d01a857e4e27a575f7ca,001,42,female,British,Bachelors Degree,2024-03-06_15h05.05.880,CRL1h,2023.2.3,Win32,74.07407407,65e67470ae2fbf2172c317b2,65e885b59df01e3e2177f9af,,,,,,,,,,,1030.9645,0.7,1031.6643,1031.6644,1032.6782,right,0,1.0107,,1032.6783,1033.6791,3,2,50,10,1,total,1,images/Ex11.jpg,left,training,hard,4,,,,,
,,,,,5f75d01a857e4e27a575f7ca,001,42,female,British,Bachelors Degree,2024-03-06_15h05.05.880,CRL1h,2023.2.3,Win32,74.07407407,65e67470ae2fbf2172c317b2,65e885b59df01e3e2177f9af,,,,,,,,,,,1033.6796,1.2,1034.8794,1034.8794,1036.0397,right,1,1.1571,,1036.0397,1037.0401,3,3,51,12,1,total,1,images/Ex13.jpg,right,training,hard,4,,,,,
,,,,,5f75d01a857e4e27a575f7ca,001,42,female,British,Bachelors Degree,2024-03-06_15h05.05.880,CRL1h,2023.2.3,Win32,74.07407407,65e67470ae2fbf2172c317b2,65e885b59df01e3e2177f9af,,,,,,,,,,,1037.0405,1.1,1038.1338,1038.1338,1039.2543,right,1,1.1188,,1039.2544,1040.2546,3,4,52,13,1,total,1,images/Ex14.jpg,right,training,hard,4,,,,,
,,,,,5f75d01a857e4e27a575f7ca,001,42,female,British,Bachelors Degree,2024-03-06_15h05.05.880,CRL1h,2023.2.3,Win32,74.07407407,65e67470ae2fbf2172c317b2,65e885b59df01e3e2177f9af,,,,,,,,,,,1040.2549,1.3,1041.5485,1041.5486,1042.3624,right,0,0.808,,1042.3624,1043.3622,3,5,53,8,1,total,1,images/Ex9.jpg,left,training,hard,4,,,,,
,,,,,5f75d01a857e4e27a575f7ca,001,42,female,British,Bachelors Degree,2024-03-06_15h05.05.880,CRL1h,2023.2.3,Win32,74.07407407,65e67470ae2fbf2172c317b2,65e885b59df01e3e2177f9af,,,,,,,,,,,1043.3627,0.9,1044.2562,1044.2562,1044.9361,right,1,0.6771,,1044.9361,1045.9365,3,6,54,14,1,total,1,images/Ex15.jpg,right,training,hard,4,,,,,
,,,,,5f75d01a857e4e27a575f7ca,001,42,female,British,Bachelors Degree,2024-03-06_15h05.05.880,CRL1h,2023.2.3,Win32,74.07407407,65e67470ae2fbf2172c317b2,65e885b59df01e3e2177f9af,,,,,,,,,,,1045.9369,1.4,1047.3372,1047.3372,1048.151,right,1,0.8087,,1048.151,1049.1513,3,7,55,4,1,total,1,images/Ex13.jpg,right,training,hard,4,,,,,
,,,,,5f75d01a857e4e27a575f7ca,001,42,female,British,Bachelors Degree,2024-03-06_15h05.05.880,CRL1h,2023.2.3,Win32,74.07407407,65e67470ae2fbf2172c317b2,65e885b59df01e3e2177f9af,,,,,,,,,,,1049.1517,0.9,1050.0446,1050.0446,1051.1257,left,1,1.07,,1051.1257,1052.1258,3,8,56,9,1,total,1,images/Ex10.jpg,left,training,hard,4,,,,,
,,,,,5f75d01a857e4e27a575f7ca,001,42,female,British,Bachelors Degree,2024-03-06_15h05.05.880,CRL1h,2023.2.3,Win32,74.07407407,65e67470ae2fbf2172c317b2,65e885b59df01e3e2177f9af,,,,,,,,,,,1052.1262,1.1,1053.2196,1053.2197,1053.8863,left,1,0.6626,,1053.8864,1054.8866,3,9,57,1,1,total,1,images/Ex10.jpg,left,training,hard,4,,,,,
,,,,,5f75d01a857e4e27a575f7ca,001,42,female,British,Bachelors Degree,2024-03-06_15h05.05.880,CRL1h,2023.2.3,Win32,74.07407407,65e67470ae2fbf2172c317b2,65e885b59df01e3e2177f9af,,,,,,,,,,,1054.8869,0.7,1055.5803,1055.5804,1056.1937,left,0,0.6043,,1056.1937,1057.194,3,10,58,5,1,total,1,images/Ex14.jpg,right,training,hard,4,,,,,
,,,,,5f75d01a857e4e27a575f7ca,001,42,female,British,Bachelors Degree,2024-03-06_15h05.05.880,CRL1h,2023.2.3,Win32,74.07407407,65e67470ae2fbf2172c317b2,65e885b59df01e3e2177f9af,,,,,,,,,,,1057.1944,1.2,1058.3944,1058.3945,1059.0747,right,1,0.6736,,1059.0748,1060.075,3,11,59,15,1,total,1,images/Ex16.jpg,right,training,hard,4,,,,,
,,,,,5f75d01a857e4e27a575f7ca,001,42,female,British,Bachelors Degree,2024-03-06_15h05.05.880,CRL1h,2023.2.3,Win32,74.07407407,65e67470ae2fbf2172c317b2,65e885b59df01e3e2177f9af,,,,,,,,,,,1060.0753,1.5,1061.5692,1061.5692,1063.0761,left,1,1.5047,,1063.0761,1064.0766,3,12,60,0,1,total,1,images/Ex9.jpg,left,training,hard,4,,,,,
,,,,,5f75d01a857e4e27a575f7ca,001,42,female,British,Bachelors Degree,2024-03-06_15h05.05.880,CRL1h,2023.2.3,Win32,74.07407407,65e67470ae2fbf2172c317b2,65e885b59df01e3e2177f9af,,,,,,,,,,,1064.077,1.2,1065.2769,1065.277,1065.9438,right,1,0.6591,,1065.9439,1066.9444,3,13,61,7,1,total,1,images/Ex16.jpg,right,training,hard,4,,,,,
,,,,,5f75d01a857e4e27a575f7ca,001,42,female,British,Bachelors Degree,2024-03-06_15h05.05.880,CRL1h,2023.2.3,Win32,74.07407407,65e67470ae2fbf2172c317b2,65e885b59df01e3e2177f9af,,,,,,,,,,,1066.9449,0.9,1067.838,1067.8381,1069.1183,left,1,1.2788,,1069.1183,1070.1189,3,14,62,3,1,total,1,images/Ex12.jpg,left,training,hard,4,,,,,
,,,,,5f75d01a857e4e27a575f7ca,001,42,female,British,Bachelors Degree,2024-03-06_15h05.05.880,CRL1h,2023.2.3,Win32,74.07407407,65e67470ae2fbf2172c317b2,65e885b59df01e3e2177f9af,,,,,,,,,,,1070.1193,0.8,1070.9191,1070.9191,1072.0664,left,1,1.1448,,1072.0664,1073.0666,3,15,63,2,1,total,1,images/Ex11.jpg,left,training,hard,4,,,,,
,,,,,5f75d01a857e4e27a575f7ca,001,42,female,British,Bachelors Degree,2024-03-06_15h05.05.880,CRL1h,2023.2.3,Win32,74.07407407,65e67470ae2fbf2172c317b2,65e885b59df01e3e2177f9af,,,,,,,,,,,1073.0671,0.8,1073.8671,1073.8671,1075.148,right,1,1.2693,,1075.148,1076.1478,4,0,64,4,1,total,1,images/Ex13.jpg,right,training,hard,4,,,,,
,,,,,5f75d01a857e4e27a575f7ca,001,42,female,British,Bachelors Degree,2024-03-06_15h05.05.880,CRL1h,2023.2.3,Win32,74.07407407,65e67470ae2fbf2172c317b2,65e885b59df01e3e2177f9af,,,,,,,,,,,1076.1481,0.5,1076.6413,1076.6414,1077.2948,right,1,0.6494,,1077.2948,1078.295,4,1,65,7,1,total,1,images/Ex16.jpg,right,training,hard,4,,,,,
,,,,,5f75d01a857e4e27a575f7ca,001,42,female,British,Bachelors Degree,2024-03-06_15h05.05.880,CRL1h,2023.2.3,Win32,74.07407407,65e67470ae2fbf2172c317b2,65e885b59df01e3e2177f9af,,,,,,,,,,,1078.2953,1.1,1079.3889,1079.3889,1080.3497,left,1,0.9518,,1080.3497,1081.3498,4,2,66,9,1,total,1,images/Ex10.jpg,left,training,hard,4,,,,,
,,,,,5f75d01a857e4e27a575f7ca,001,42,female,British,Bachelors Degree,2024-03-06_15h05.05.880,CRL1h,2023.2.3,Win32,74.07407407,65e67470ae2fbf2172c317b2,65e885b59df01e3e2177f9af,,,,,,,,,,,1081.3502,1,1082.3504,1082.3505,1083.1901,left,1,0.8376,,1083.1901,1084.1909,4,3,67,8,1,total,1,images/Ex9.jpg,left,training,hard,4,,,,,
,,,,,5f75d01a857e4e27a575f7ca,001,42,female,British,Bachelors Degree,2024-03-06_15h05.05.880,CRL1h,2023.2.3,Win32,74.07407407,65e67470ae2fbf2172c317b2,65e885b59df01e3e2177f9af,,,,,,,,,,,1084.1912,1,1085.1909,1085.1909,1086.4586,left,1,1.2571,,1086.4586,1087.4585,4,4,68,3,1,total,1,images/Ex12.jpg,left,training,hard,4,,,,,
,,,,,5f75d01a857e4e27a575f7ca,001,42,female,British,Bachelors Degree,2024-03-06_15h05.05.880,CRL1h,2023.2.3,Win32,74.07407407,65e67470ae2fbf2172c317b2,65e885b59df01e3e2177f9af,,,,,,,,,,,1087.4589,1.3,1088.7527,1088.7527,1089.353,right,1,0.5935,,1089.3531,1090.3532,4,5,69,15,1,total,1,images/Ex16.jpg,right,training,hard,4,,,,,
,,,,,5f75d01a857e4e27a575f7ca,001,42,female,British,Bachelors Degree,2024-03-06_15h05.05.880,CRL1h,2023.2.3,Win32,74.07407407,65e67470ae2fbf2172c317b2,65e885b59df01e3e2177f9af,,,,,,,,,,,1090.3535,0.8,1091.1535,1091.1535,1092.1005,left,0,0.939,,1092.1005,1093.1011,4,6,70,13,1,total,1,images/Ex14.jpg,right,training,hard,4,,,,,
,,,,,5f75d01a857e4e27a575f7ca,001,42,female,British,Bachelors Degree,2024-03-06_15h05.05.880,CRL1h,2023.2.3,Win32,74.07407407,65e67470ae2fbf2172c317b2,65e885b59df01e3e2177f9af,,,,,,,,,,,1093.1015,1.2,1094.3014,1094.3014,1095.2746,right,1,0.9643,,1095.2746,1096.2748,4,7,71,12,1,total,1,images/Ex13.jpg,right,training,hard,4,,,,,
,,,,,5f75d01a857e4e27a575f7ca,001,42,female,British,Bachelors Degree,2024-03-06_15h05.05.880,CRL1h,2023.2.3,Win32,74.07407407,65e67470ae2fbf2172c317b2,65e885b59df01e3e2177f9af,,,,,,,,,,,1096.275,1.3,1097.5691,1097.5692,1098.1958,right,1,0.6171,,1098.1958,1099.1963,4,8,72,5,1,total,1,images/Ex14.jpg,right,training,hard,4,,,,,
,,,,,5f75d01a857e4e27a575f7ca,001,42,female,British,Bachelors Degree,2024-03-06_15h05.05.880,CRL1h,2023.2.3,Win32,74.07407407,65e67470ae2fbf2172c317b2,65e885b59df01e3e2177f9af,,,,,,,,,,,1099.1967,0.8,1099.9962,1099.9962,1100.8633,right,0,0.8659,,1100.8634,1101.8638,4,9,73,2,1,total,1,images/Ex11.jpg,left,training,hard,4,,,,,
,,,,,5f75d01a857e4e27a575f7ca,001,42,female,British,Bachelors Degree,2024-03-06_15h05.05.880,CRL1h,2023.2.3,Win32,74.07407407,65e67470ae2fbf2172c317b2,65e885b59df01e3e2177f9af,,,,,,,,,,,1101.8642,1.1,1102.9578,1102.9578,1103.5713,left,1,0.6115,,1103.5713,1104.5716,4,10,74,1,1,total,1,images/Ex10.jpg,left,training,hard,4,,,,,
,,,,,5f75d01a857e4e27a575f7ca,001,42,female,British,Bachelors Degree,2024-03-06_15h05.05.880,CRL1h,2023.2.3,Win32,74.07407407,65e67470ae2fbf2172c317b2,65e885b59df01e3e2177f9af,,,,,,,,,,,1104.572,1.2,1105.7722,1105.7723,1106.4659,left,1,0.6829,,1106.4659,1107.4655,4,11,75,11,1,total,1,images/Ex12.jpg,left,training,hard,4,,,,,
,,,,,5f75d01a857e4e27a575f7ca,001,42,female,British,Bachelors Degree,2024-03-06_15h05.05.880,CRL1h,2023.2.3,Win32,74.07407407,65e67470ae2fbf2172c317b2,65e885b59df01e3e2177f9af,,,,,,,,,,,1107.4659,0.8,1108.2664,1108.2664,1108.9867,left,1,0.7086,,1108.9867,1109.987,4,12,76,0,1,total,1,images/Ex9.jpg,left,training,hard,4,,,,,
,,,,,5f75d01a857e4e27a575f7ca,001,42,female,British,Bachelors Degree,2024-03-06_15h05.05.880,CRL1h,2023.2.3,Win32,74.07407407,65e67470ae2fbf2172c317b2,65e885b59df01e3e2177f9af,,,,,,,,,,,1109.9874,1,1110.9872,1110.9872,1111.7211,left,1,0.7245,,1111.7211,1112.7213,4,13,77,10,1,total,1,images/Ex11.jpg,left,training,hard,4,,,,,
,,,,,5f75d01a857e4e27a575f7ca,001,42,female,British,Bachelors Degree,2024-03-06_15h05.05.880,CRL1h,2023.2.3,Win32,74.07407407,65e67470ae2fbf2172c317b2,65e885b59df01e3e2177f9af,,,,,,,,,,,1112.7217,1.4,1114.1217,1114.1218,1114.8552,left,0,0.7248,,1114.8552,1115.8557,4,14,78,14,1,total,1,images/Ex15.jpg,right,training,hard,4,,,,,
,,,,,5f75d01a857e4e27a575f7ca,001,42,female,British,Bachelors Degree,2024-03-06_15h05.05.880,CRL1h,2023.2.3,Win32,74.07407407,65e67470ae2fbf2172c317b2,65e885b59df01e3e2177f9af,,,,,,,,,,,1115.8561,1.1,1116.9496,1116.9497,1117.3897,right,1,0.4295,,1117.3898,1118.39,4,15,79,6,1,total,1,images/Ex15.jpg,right,training,hard,4,,,,,
,,,,,5f75d01a857e4e27a575f7ca,001,42,female,British,Bachelors Degree,2024-03-06_15h05.05.880,CRL1h,2023.2.3,Win32,74.07407407,65e67470ae2fbf2172c317b2,65e885b59df01e3e2177f9af,,,,,,,,,,,1118.3903,1.4,1119.7905,1119.7906,1120.2708,right,1,0.4692,,1120.2709,1121.2711,5,0,80,14,1,total,1,images/Ex15.jpg,right,training,hard,4,,,,,
,,,,,5f75d01a857e4e27a575f7ca,001,42,female,British,Bachelors Degree,2024-03-06_15h05.05.880,CRL1h,2023.2.3,Win32,74.07407407,65e67470ae2fbf2172c317b2,65e885b59df01e3e2177f9af,,,,,,,,,,,1121.2717,0.7,1121.9643,1121.9643,1123.5122,right,1,1.5368,,1123.5123,1124.5123,5,1,81,13,1,total,1,images/Ex14.jpg,right,training,hard,4,,,,,
,,,,,5f75d01a857e4e27a575f7ca,001,42,female,British,Bachelors Degree,2024-03-06_15h05.05.880,CRL1h,2023.2.3,Win32,74.07407407,65e67470ae2fbf2172c317b2,65e885b59df01e3e2177f9af,,,,,,,,,,,1124.5127,1.2,1125.7125,1125.7125,1126.4728,right,0,0.75,,1126.4729,1127.4737,5,2,82,2,1,total,1,images/Ex11.jpg,left,training,hard,4,,,,,
,,,,,5f75d01a857e4e27a575f7ca,001,42,female,British,Bachelors Degree,2024-03-06_15h05.05.880,CRL1h,2023.2.3,Win32,74.07407407,65e67470ae2fbf2172c317b2,65e885b59df01e3e2177f9af,,,,,,,,,,,1127.4742,1.4,1128.8737,1128.8737,1129.4339,left,1,0.5566,,1129.434,1130.4342,5,3,83,9,1,total,1,images/Ex10.jpg,left,training,hard,4,,,,,
,,,,,5f75d01a857e4e27a575f7ca,001,42,female,British,Bachelors Degree,2024-03-06_15h05.05.880,CRL1h,2023.2.3,Win32,74.07407407,65e67470ae2fbf2172c317b2,65e885b59df01e3e2177f9af,,,,,,,,,,,1130.4346,1,1131.4344,1131.4345,1132.6222,left,0,1.1758,,1132.6222,1133.6226,5,4,84,4,1,total,1,images/Ex13.jpg,right,training,hard,4,,,,,
,,,,,5f75d01a857e4e27a575f7ca,001,42,female,British,Bachelors Degree,2024-03-06_15h05.05.880,CRL1h,2023.2.3,Win32,74.07407407,65e67470ae2fbf2172c317b2,65e885b59df01e3e2177f9af,,,,,,,,,,,1133.6229,0.5,1134.1158,1134.1158,1134.9427,left,1,0.8181,,1134.9427,1135.9429,5,5,85,8,1,total,1,images/Ex9.jpg,left,training,hard,4,,,,,
,,,,,5f75d01a857e4e27a575f7ca,001,42,female,British,Bachelors Degree,2024-03-06_15h05.05.880,CRL1h,2023.2.3,Win32,74.07407407,65e67470ae2fbf2172c317b2,65e885b59df01e3e2177f9af,,,,,,,,,,,1135.9434,0.8,1136.7435,1136.7436,1137.4236,left,0,0.6689,,1137.4236,1138.4239,5,6,86,12,1,total,1,images/Ex13.jpg,right,training,hard,4,,,,,
,,,,,5f75d01a857e4e27a575f7ca,001,42,female,British,Bachelors Degree,2024-03-06_15h05.05.880,CRL1h,2023.2.3,Win32,74.07407407,65e67470ae2fbf2172c317b2,65e885b59df01e3e2177f9af,,,,,,,,,,,1138.4242,1.5,1139.9182,1139.9182,1140.919,right,1,0.9919,,1140.919,1141.9186,5,7,87,5,1,total,1,images/Ex14.jpg,right,training,hard,4,,,,,
,,,,,5f75d01a857e4e27a575f7ca,001,42,female,British,Bachelors Degree,2024-03-06_15h05.05.880,CRL1h,2023.2.3,Win32,74.07407407,65e67470ae2fbf2172c317b2,65e885b59df01e3e2177f9af,,,,,,,,,,,1141.919,0.6,1142.5188,1142.5189,1143.9326,left,1,1.4051,,1143.9327,1144.9328,5,8,88,10,1,total,1,images/Ex11.jpg,left,training,hard,4,,,,,
,,,,,5f75d01a857e4e27a575f7ca,001,42,female,British,Bachelors Degree,2024-03-06_15h05.05.880,CRL1h,2023.2.3,Win32,74.07407407,65e67470ae2fbf2172c317b2,65e885b59df01e3e2177f9af,,,,,,,,,,,1144.9395,0.6,1145.5338,1145.5339,1146.3737,left,1,0.8302,,1146.3738,1147.3742,5,9,89,3,1,total,1,images/Ex12.jpg,left,training,hard,4,,,,,
,,,,,5f75d01a857e4e27a575f7ca,001,42,female,British,Bachelors Degree,2024-03-06_15h05.05.880,CRL1h,2023.2.3,Win32,74.07407407,65e67470ae2fbf2172c317b2,65e885b59df01e3e2177f9af,,,,,,,,,,,1147.3746,1.4,1148.7743,1148.7743,1149.4813,right,1,0.705,,1149.4813,1150.4814,5,10,90,7,1,total,1,images/Ex16.jpg,right,training,hard,4,,,,,
,,,,,5f75d01a857e4e27a575f7ca,001,42,female,British,Bachelors Degree,2024-03-06_15h05.05.880,CRL1h,2023.2.3,Win32,74.07407407,65e67470ae2fbf2172c317b2,65e885b59df01e3e2177f9af,,,,,,,,,,,1150.4818,1.1,1151.5752,1151.5752,1152.0955,right,1,0.509,,1152.0955,1153.0962,5,11,91,15,1,total,1,images/Ex16.jpg,right,training,hard,4,,,,,
,,,,,5f75d01a857e4e27a575f7ca,001,42,female,British,Bachelors Degree,2024-03-06_15h05.05.880,CRL1h,2023.2.3,Win32,74.07407407,65e67470ae2fbf2172c317b2,65e885b59df01e3e2177f9af,,,,,,,,,,,1153.0965,1,1154.0964,1154.0964,1154.9636,left,1,0.8661,,1154.9636,1155.9636,5,12,92,0,1,total,1,images/Ex9.jpg,left,training,hard,4,,,,,
,,,,,5f75d01a857e4e27a575f7ca,001,42,female,British,Bachelors Degree,2024-03-06_15h05.05.880,CRL1h,2023.2.3,Win32,74.07407407,65e67470ae2fbf2172c317b2,65e885b59df01e3e2177f9af,,,,,,,,,,,1155.9641,1,1156.964,1156.964,1157.5911,left,1,0.6152,,1157.5911,1158.5916,5,13,93,11,1,total,1,images/Ex12.jpg,left,training,hard,4,,,,,
,,,,,5f75d01a857e4e27a575f7ca,001,42,female,British,Bachelors Degree,2024-03-06_15h05.05.880,CRL1h,2023.2.3,Win32,74.07407407,65e67470ae2fbf2172c317b2,65e885b59df01e3e2177f9af,,,,,,,,,,,1158.5921,0.7,1159.2847,1159.2847,1159.8453,left,1,0.549,,1159.8454,1160.8453,5,14,94,1,1,total,1,images/Ex10.jpg,left,training,hard,4,,,,,
,,,,,5f75d01a857e4e27a575f7ca,001,42,female,British,Bachelors Degree,2024-03-06_15h05.05.880,CRL1h,2023.2.3,Win32,74.07407407,65e67470ae2fbf2172c317b2,65e885b59df01e3e2177f9af,,,,,,,,,,,1160.8457,1.1,1161.9393,1161.9394,1163.2736,right,1,1.3228,,1163.2736,1164.2736,5,15,95,6,1,total,1,images/Ex15.jpg,right,training,hard,4,,,,,
,,,,,5f75d01a857e4e27a575f7ca,001,42,female,British,Bachelors Degree,2024-03-06_15h05.05.880,CRL1h,2023.2.3,Win32,74.07407407,65e67470ae2fbf2172c317b2,65e885b59df01e3e2177f9af,,,,,,,,,,,1164.2739,1.2,1165.4739,1165.4739,1166.0478,right,1,0.5626,,1166.0478,1167.0482,6,0,96,15,1,total,1,images/Ex16.jpg,right,training,hard,4,,,,,
,,,,,5f75d01a857e4e27a575f7ca,001,42,female,British,Bachelors Degree,2024-03-06_15h05.05.880,CRL1h,2023.2.3,Win32,74.07407407,65e67470ae2fbf2172c317b2,65e885b59df01e3e2177f9af,,,,,,,,,,,1167.0486,1.2,1168.2483,1168.2483,1169.1954,left,0,0.9404,,1169.1955,1170.1957,6,1,97,4,1,total,1,images/Ex13.jpg,right,training,hard,4,,,,,
,,,,,5f75d01a857e4e27a575f7ca,001,42,female,British,Bachelors Degree,2024-03-06_15h05.05.880,CRL1h,2023.2.3,Win32,74.07407407,65e67470ae2fbf2172c317b2,65e885b59df01e3e2177f9af,,,,,,,,,,,1170.196,0.7,1170.8894,1170.8894,1171.5163,right,1,0.6176,,1171.5163,1172.5163,6,2,98,14,1,total,1,images/Ex15.jpg,right,training,hard,4,,,,,
,,,,,5f75d01a857e4e27a575f7ca,001,42,female,British,Bachelors Degree,2024-03-06_15h05.05.880,CRL1h,2023.2.3,Win32,74.07407407,65e67470ae2fbf2172c317b2,65e885b59df01e3e2177f9af,,,,,,,,,,,1172.5166,0.9,1173.4102,1173.4103,1173.9037,right,0,0.4902,,1173.9038,1174.904,6,3,99,8,1,total,1,images/Ex9.jpg,left,training,hard,4,,,,,
,,,,,5f75d01a857e4e27a575f7ca,001,42,female,British,Bachelors Degree,2024-03-06_15h05.05.880,CRL1h,2023.2.3,Win32,74.07407407,65e67470ae2fbf2172c317b2,65e885b59df01e3e2177f9af,,,,,,,,,,,1174.9044,1,1175.9044,1175.9044,1177.1181,right,1,1.2063,,1177.1182,1178.1188,6,4,100,12,1,total,1,images/Ex13.jpg,right,training,hard,4,,,,,
,,,,,5f75d01a857e4e27a575f7ca,001,42,female,British,Bachelors Degree,2024-03-06_15h05.05.880,CRL1h,2023.2.3,Win32,74.07407407,65e67470ae2fbf2172c317b2,65e885b59df01e3e2177f9af,,,,,,,,,,,1178.1192,0.5,1178.6121,1178.6121,1179.3325,left,1,0.7163,,1179.3326,1180.3326,6,5,101,11,1,total,1,images/Ex12.jpg,left,training,hard,4,,,,,
,,,,,5f75d01a857e4e27a575f7ca,001,42,female,British,Bachelors Degree,2024-03-06_15h05.05.880,CRL1h,2023.2.3,Win32,74.07407407,65e67470ae2fbf2172c317b2,65e885b59df01e3e2177f9af,,,,,,,,,,,1180.333,1.3,1181.6266,1181.6266,1182.2803,right,1,0.6421,,1182.2804,1183.2807,6,6,102,6,1,total,1,images/Ex15.jpg,right,training,hard,4,,,,,
,,,,,5f75d01a857e4e27a575f7ca,001,42,female,British,Bachelors Degree,2024-03-06_15h05.05.880,CRL1h,2023.2.3,Win32,74.07407407,65e67470ae2fbf2172c317b2,65e885b59df01e3e2177f9af,,,,,,,,,,,1183.2811,0.9,1184.1739,1184.1739,1185.1745,left,1,0.9946,,1185.1745,1186.1749,6,7,103,0,1,total,1,images/Ex9.jpg,left,training,hard,4,,,,,
,,,,,5f75d01a857e4e27a575f7ca,001,42,female,British,Bachelors Degree,2024-03-06_15h05.05.880,CRL1h,2023.2.3,Win32,74.07407407,65e67470ae2fbf2172c317b2,65e885b59df01e3e2177f9af,,,,,,,,,,,1186.1752,1.5,1187.6686,1187.6687,1188.4558,right,1,0.776,,1188.4558,1189.4562,6,8,104,5,1,total,1,images/Ex14.jpg,right,training,hard,4,,,,,
,,,,,5f75d01a857e4e27a575f7ca,001,42,female,British,Bachelors Degree,2024-03-06_15h05.05.880,CRL1h,2023.2.3,Win32,74.07407407,65e67470ae2fbf2172c317b2,65e885b59df01e3e2177f9af,,,,,,,,,,,1189.4567,1.3,1190.7499,1190.75,1191.5239,left,1,0.7641,,1191.5239,1192.5236,6,9,105,3,1,total,1,images/Ex12.jpg,left,training,hard,4,,,,,
,,,,,5f75d01a857e4e27a575f7ca,001,42,female,British,Bachelors Degree,2024-03-06_15h05.05.880,CRL1h,2023.2.3,Win32,74.07407407,65e67470ae2fbf2172c317b2,65e885b59df01e3e2177f9af,,,,,,,,,,,1192.524,1.5,1194.0177,1194.0178,1194.5915,right,1,0.5647,,1194.5915,1195.5915,6,10,106,7,1,total,1,images/Ex16.jpg,right,training,hard,4,,,,,
,,,,,5f75d01a857e4e27a575f7ca,001,42,female,British,Bachelors Degree,2024-03-06_15h05.05.880,CRL1h,2023.2.3,Win32,74.07407407,65e67470ae2fbf2172c317b2,65e885b59df01e3e2177f9af,,,,,,,,,,,1195.5919,1.2,1196.7919,1196.7919,1197.5658,right,1,0.7627,,1197.5658,1198.566,6,11,107,13,1,total,1,images/Ex14.jpg,right,training,hard,4,,,,,
,,,,,5f75d01a857e4e27a575f7ca,001,42,female,British,Bachelors Degree,2024-03-06_15h05.05.880,CRL1h,2023.2.3,Win32,74.07407407,65e67470ae2fbf2172c317b2,65e885b59df01e3e2177f9af,,,,,,,,,,,1198.5664,0.6,1199.1661,1199.1661,1199.7667,left,1,0.5891,,1199.7667,1200.767,6,12,108,9,1,total,1,images/Ex10.jpg,left,training,hard,4,,,,,
,,,,,5f75d01a857e4e27a575f7ca,001,42,female,British,Bachelors Degree,2024-03-06_15h05.05.880,CRL1h,2023.2.3,Win32,74.07407407,65e67470ae2fbf2172c317b2,65e885b59df01e3e2177f9af,,,,,,,,,,,1200.7674,1.4,1202.1677,1202.1677,1203.2881,right,0,1.1148,,1203.2882,1204.2883,6,13,109,10,1,total,1,images/Ex11.jpg,left,training,hard,4,,,,,
,,,,,5f75d01a857e4e27a575f7ca,001,42,female,British,Bachelors Degree,2024-03-06_15h05.05.880,CRL1h,2023.2.3,Win32,74.07407407,65e67470ae2fbf2172c317b2,65e885b59df01e3e2177f9af,,,,,,,,,,,1204.2887,1.3,1205.5821,1205.5821,1206.1691,left,1,0.5766,,1206.1691,1207.1697,6,14,110,1,1,total,1,images/Ex10.jpg,left,training,hard,4,,,,,
,,,,,5f75d01a857e4e27a575f7ca,001,42,female,British,Bachelors Degree,2024-03-06_15h05.05.880,CRL1h,2023.2.3,Win32,74.07407407,65e67470ae2fbf2172c317b2,65e885b59df01e3e2177f9af,,,,,,,,,,,1207.1699,1.1,1208.2628,1208.2628,1208.8901,left,1,0.6165,,1208.8902,1209.8903,6,15,111,2,1,total,1,images/Ex11.jpg,left,training,hard,4,,,,,
,,,,,5f75d01a857e4e27a575f7ca,001,42,female,British,Bachelors Degree,2024-03-06_15h05.05.880,CRL1h,2023.2.3,Win32,74.07407407,65e67470ae2fbf2172c317b2,65e885b59df01e3e2177f9af,,,,,,,,,,,1209.8907,1,1210.8905,1210.8905,1211.3177,left,1,0.4158,,1211.3177,1212.3179,7,0,112,2,1,total,1,images/Ex11.jpg,left,training,hard,4,,,,,
