infCons.started,infCons.stopped,resp_consent.keys,resp_consent.rt,resp_consent.duration,participant,session,Age?,Gender?,Nationality?,Highest Educational Degree?,date,expName,psychopyVersion,OS,frameRate,STUDY_ID,SESSION_ID,instructions.started,instructions.stopped,resp_instructions.keys,resp_instructions.rt,resp_instructions.duration,nextTask.started,nextTask.stopped,ready_task.keys,ready_task.rt,ready_task.duration,fixation.started,ITI,fixation.stopped,stim.started,stim.stopped,response.keys,response.corr,response.rt,response.duration,feedback.started,feedback.stopped,trials.thisRepN,trials.thisTrialN,trials.thisN,trials.thisIndex,trials.ran,task,phase,Exemplars,r_correct,condition,difficulty,set,end.started,end.stopped,resp_end.keys,resp_end.rt,resp_end.duration
1E-04,38.691,space,38.6669,,5fa0803077c8550dcb24237d,001,22,non-binary,British,Masters,2024-03-05_22h20.37.211,CRL1h,2023.2.3,MacIntel,60.24096386,65e67470ae2fbf2172c317b2,65e79a91ddf0c6086907b516,,,,,,,,,,,,,,,,,,,,,,,,,,,,,,,,,,,,,,
,,,,,5fa0803077c8550dcb24237d,001,22,non-binary,British,Masters,2024-03-05_22h20.37.211,CRL1h,2023.2.3,MacIntel,60.24096386,65e67470ae2fbf2172c317b2,65e79a91ddf0c6086907b516,38.6913,61.4423,space,22.7224,,,,,,,,,,,,,,,,,,,,,,,,,,,,,,,,,,
,,,,,5fa0803077c8550dcb24237d,001,22,non-binary,British,Masters,2024-03-05_22h20.37.211,CRL1h,2023.2.3,MacIntel,60.24096386,65e67470ae2fbf2172c317b2,65e79a91ddf0c6086907b516,,,,,,61.4581,64.0245,space,2.548,,64.0319,1.3,65.3255,65.3256,68.2595,left,0,2.9184,,68.2722,69.2586,0,0,0,15,1,partial,1,images/Ex16.jpg,right,training,hard,1,,,,,
,,,,,5fa0803077c8550dcb24237d,001,22,non-binary,British,Masters,2024-03-05_22h20.37.211,CRL1h,2023.2.3,MacIntel,60.24096386,65e67470ae2fbf2172c317b2,65e79a91ddf0c6086907b516,,,,,,,,,,,69.2597,1.4,70.6581,70.6582,71.6085,left,0,0.9461,,71.6086,72.6089,0,1,1,14,1,partial,1,images/Ex15.jpg,right,training,hard,1,,,,,
,,,,,5fa0803077c8550dcb24237d,001,22,non-binary,British,Masters,2024-03-05_22h20.37.211,CRL1h,2023.2.3,MacIntel,60.24096386,65e67470ae2fbf2172c317b2,65e79a91ddf0c6086907b516,,,,,,,,,,,72.6096,1,73.6088,73.6089,74.6589,right,1,1.0418,,74.659,75.6589,0,2,2,4,1,partial,1,images/Ex13.jpg,right,training,hard,1,,,,,
,,,,,5fa0803077c8550dcb24237d,001,22,non-binary,British,Masters,2024-03-05_22h20.37.211,CRL1h,2023.2.3,MacIntel,60.24096386,65e67470ae2fbf2172c317b2,65e79a91ddf0c6086907b516,,,,,,,,,,,75.6595,1,76.6581,76.6581,77.8258,right,0,1.1547,,77.8259,78.8255,0,3,3,0,1,partial,1,images/Ex9.jpg,left,training,hard,1,,,,,
,,,,,5fa0803077c8550dcb24237d,001,22,non-binary,British,Masters,2024-03-05_22h20.37.211,CRL1h,2023.2.3,MacIntel,60.24096386,65e67470ae2fbf2172c317b2,65e79a91ddf0c6086907b516,,,,,,,,,,,78.826,0.6,79.4257,79.4257,80.2762,right,1,0.8367,,80.2763,81.2758,0,4,4,7,1,partial,1,images/Ex16.jpg,right,training,hard,1,,,,,
,,,,,5fa0803077c8550dcb24237d,001,22,non-binary,British,Masters,2024-03-05_22h20.37.211,CRL1h,2023.2.3,MacIntel,60.24096386,65e67470ae2fbf2172c317b2,65e79a91ddf0c6086907b516,,,,,,,,,,,81.2765,0.8,82.0759,82.0759,82.5596,left,1,0.4819,,82.5597,83.5592,0,5,5,1,1,partial,1,images/Ex10.jpg,left,training,hard,1,,,,,
,,,,,5fa0803077c8550dcb24237d,001,22,non-binary,British,Masters,2024-03-05_22h20.37.211,CRL1h,2023.2.3,MacIntel,60.24096386,65e67470ae2fbf2172c317b2,65e79a91ddf0c6086907b516,,,,,,,,,,,83.5597,0.7,84.2593,84.2594,84.7919,right,1,0.5199,,84.792,85.7921,0,6,6,5,1,partial,1,images/Ex14.jpg,right,training,hard,1,,,,,
,,,,,5fa0803077c8550dcb24237d,001,22,non-binary,British,Masters,2024-03-05_22h20.37.211,CRL1h,2023.2.3,MacIntel,60.24096386,65e67470ae2fbf2172c317b2,65e79a91ddf0c6086907b516,,,,,,,,,,,85.7926,0.7,86.4928,86.4928,86.9593,right,0,0.4537,,86.9593,87.9593,0,7,7,3,1,partial,1,images/Ex12.jpg,left,training,hard,1,,,,,
,,,,,5fa0803077c8550dcb24237d,001,22,non-binary,British,Masters,2024-03-05_22h20.37.211,CRL1h,2023.2.3,MacIntel,60.24096386,65e67470ae2fbf2172c317b2,65e79a91ddf0c6086907b516,,,,,,,,,,,87.9599,1.4,89.3595,89.3596,90.1253,left,1,0.7539,,90.1254,91.1256,0,8,8,8,1,partial,1,images/Ex9.jpg,left,training,hard,1,,,,,
,,,,,5fa0803077c8550dcb24237d,001,22,non-binary,British,Masters,2024-03-05_22h20.37.211,CRL1h,2023.2.3,MacIntel,60.24096386,65e67470ae2fbf2172c317b2,65e79a91ddf0c6086907b516,,,,,,,,,,,91.1264,0.8,91.9261,91.9261,92.5597,right,1,0.6209,,92.5598,93.5596,0,9,9,13,1,partial,1,images/Ex14.jpg,right,training,hard,1,,,,,
,,,,,5fa0803077c8550dcb24237d,001,22,non-binary,British,Masters,2024-03-05_22h20.37.211,CRL1h,2023.2.3,MacIntel,60.24096386,65e67470ae2fbf2172c317b2,65e79a91ddf0c6086907b516,,,,,,,,,,,93.5602,0.6,94.1595,94.1596,95.1419,left,1,0.9704,,95.1419,96.143,0,10,10,10,1,partial,1,images/Ex11.jpg,left,training,hard,1,,,,,
,,,,,5fa0803077c8550dcb24237d,001,22,non-binary,British,Masters,2024-03-05_22h20.37.211,CRL1h,2023.2.3,MacIntel,60.24096386,65e67470ae2fbf2172c317b2,65e79a91ddf0c6086907b516,,,,,,,,,,,96.1436,1.2,97.343,97.343,97.9263,left,1,0.5726,,97.9264,98.9254,0,11,11,2,1,partial,1,images/Ex11.jpg,left,training,hard,1,,,,,
,,,,,5fa0803077c8550dcb24237d,001,22,non-binary,British,Masters,2024-03-05_22h20.37.211,CRL1h,2023.2.3,MacIntel,60.24096386,65e67470ae2fbf2172c317b2,65e79a91ddf0c6086907b516,,,,,,,,,,,98.9259,0.8,99.7264,99.7265,100.2587,right,1,0.5247,,100.2588,101.2597,0,12,12,12,1,partial,1,images/Ex13.jpg,right,training,hard,1,,,,,
,,,,,5fa0803077c8550dcb24237d,001,22,non-binary,British,Masters,2024-03-05_22h20.37.211,CRL1h,2023.2.3,MacIntel,60.24096386,65e67470ae2fbf2172c317b2,65e79a91ddf0c6086907b516,,,,,,,,,,,101.2602,1.2,102.4597,102.4599,102.8756,left,1,0.4027,,102.8756,103.8765,0,13,13,11,1,partial,1,images/Ex12.jpg,left,training,hard,1,,,,,
,,,,,5fa0803077c8550dcb24237d,001,22,non-binary,British,Masters,2024-03-05_22h20.37.211,CRL1h,2023.2.3,MacIntel,60.24096386,65e67470ae2fbf2172c317b2,65e79a91ddf0c6086907b516,,,,,,,,,,,103.8772,1.3,105.1766,105.1766,105.6756,right,1,0.4871,,105.6758,106.6767,0,14,14,6,1,partial,1,images/Ex15.jpg,right,training,hard,1,,,,,
,,,,,5fa0803077c8550dcb24237d,001,22,non-binary,British,Masters,2024-03-05_22h20.37.211,CRL1h,2023.2.3,MacIntel,60.24096386,65e67470ae2fbf2172c317b2,65e79a91ddf0c6086907b516,,,,,,,,,,,106.6773,1.1,107.7767,107.7768,108.2935,left,1,0.5078,,108.2936,109.2933,0,15,15,9,1,partial,1,images/Ex10.jpg,left,training,hard,1,,,,,
,,,,,5fa0803077c8550dcb24237d,001,22,non-binary,British,Masters,2024-03-05_22h20.37.211,CRL1h,2023.2.3,MacIntel,60.24096386,65e67470ae2fbf2172c317b2,65e79a91ddf0c6086907b516,,,,,,,,,,,109.2939,1.2,110.4925,110.4925,111.1268,right,1,0.6255,,111.1269,112.1269,1,0,16,15,1,partial,1,images/Ex16.jpg,right,training,hard,1,,,,,
,,,,,5fa0803077c8550dcb24237d,001,22,non-binary,British,Masters,2024-03-05_22h20.37.211,CRL1h,2023.2.3,MacIntel,60.24096386,65e67470ae2fbf2172c317b2,65e79a91ddf0c6086907b516,,,,,,,,,,,112.1275,0.7,112.8269,112.827,113.4591,right,1,0.6208,,113.4592,114.4603,1,1,17,6,1,partial,1,images/Ex15.jpg,right,training,hard,1,,,,,
,,,,,5fa0803077c8550dcb24237d,001,22,non-binary,British,Masters,2024-03-05_22h20.37.211,CRL1h,2023.2.3,MacIntel,60.24096386,65e67470ae2fbf2172c317b2,65e79a91ddf0c6086907b516,,,,,,,,,,,114.4609,1,115.4591,115.4592,116.1438,left,0,0.6718,,116.1438,117.1436,1,2,18,12,1,partial,1,images/Ex13.jpg,right,training,hard,1,,,,,
,,,,,5fa0803077c8550dcb24237d,001,22,non-binary,British,Masters,2024-03-05_22h20.37.211,CRL1h,2023.2.3,MacIntel,60.24096386,65e67470ae2fbf2172c317b2,65e79a91ddf0c6086907b516,,,,,,,,,,,117.1441,1.2,118.3426,118.3427,119.1604,left,1,0.81,,119.1604,120.1604,1,3,19,2,1,partial,1,images/Ex11.jpg,left,training,hard,1,,,,,
,,,,,5fa0803077c8550dcb24237d,001,22,non-binary,British,Masters,2024-03-05_22h20.37.211,CRL1h,2023.2.3,MacIntel,60.24096386,65e67470ae2fbf2172c317b2,65e79a91ddf0c6086907b516,,,,,,,,,,,120.161,0.9,121.0595,121.0595,121.5432,left,1,0.4827,,121.5433,122.5439,1,4,20,10,1,partial,1,images/Ex11.jpg,left,training,hard,1,,,,,
,,,,,5fa0803077c8550dcb24237d,001,22,non-binary,British,Masters,2024-03-05_22h20.37.211,CRL1h,2023.2.3,MacIntel,60.24096386,65e67470ae2fbf2172c317b2,65e79a91ddf0c6086907b516,,,,,,,,,,,122.5444,0.9,123.4439,123.444,124.0608,left,1,0.6042,,124.0609,125.0607,1,5,21,9,1,partial,1,images/Ex10.jpg,left,training,hard,1,,,,,
,,,,,5fa0803077c8550dcb24237d,001,22,non-binary,British,Masters,2024-03-05_22h20.37.211,CRL1h,2023.2.3,MacIntel,60.24096386,65e67470ae2fbf2172c317b2,65e79a91ddf0c6086907b516,,,,,,,,,,,125.0613,0.7,125.7608,125.7609,126.4765,left,1,0.704,,126.4767,127.4774,1,6,22,0,1,partial,1,images/Ex9.jpg,left,training,hard,1,,,,,
,,,,,5fa0803077c8550dcb24237d,001,22,non-binary,British,Masters,2024-03-05_22h20.37.211,CRL1h,2023.2.3,MacIntel,60.24096386,65e67470ae2fbf2172c317b2,65e79a91ddf0c6086907b516,,,,,,,,,,,127.478,0.6,128.0769,128.0769,128.5942,right,1,0.5065,,128.5943,129.5941,1,7,23,13,1,partial,1,images/Ex14.jpg,right,training,hard,1,,,,,
,,,,,5fa0803077c8550dcb24237d,001,22,non-binary,British,Masters,2024-03-05_22h20.37.211,CRL1h,2023.2.3,MacIntel,60.24096386,65e67470ae2fbf2172c317b2,65e79a91ddf0c6086907b516,,,,,,,,,,,129.5948,1.1,130.6942,130.6943,131.0441,right,1,0.3402,,131.0442,132.0439,1,8,24,4,1,partial,1,images/Ex13.jpg,right,training,hard,1,,,,,
,,,,,5fa0803077c8550dcb24237d,001,22,non-binary,British,Masters,2024-03-05_22h20.37.211,CRL1h,2023.2.3,MacIntel,60.24096386,65e67470ae2fbf2172c317b2,65e79a91ddf0c6086907b516,,,,,,,,,,,132.0444,1.5,133.5441,133.5442,134.3933,right,1,0.8408,,134.3933,135.3943,1,9,25,7,1,partial,1,images/Ex16.jpg,right,training,hard,1,,,,,
,,,,,5fa0803077c8550dcb24237d,001,22,non-binary,British,Masters,2024-03-05_22h20.37.211,CRL1h,2023.2.3,MacIntel,60.24096386,65e67470ae2fbf2172c317b2,65e79a91ddf0c6086907b516,,,,,,,,,,,135.3949,1.1,136.4941,136.4941,136.8943,right,0,0.3916,,136.8944,137.8945,1,10,26,11,1,partial,1,images/Ex12.jpg,left,training,hard,1,,,,,
,,,,,5fa0803077c8550dcb24237d,001,22,non-binary,British,Masters,2024-03-05_22h20.37.211,CRL1h,2023.2.3,MacIntel,60.24096386,65e67470ae2fbf2172c317b2,65e79a91ddf0c6086907b516,,,,,,,,,,,137.8952,1.1,138.9936,138.9937,139.5611,right,0,0.5548,,139.5612,140.5611,1,11,27,3,1,partial,1,images/Ex12.jpg,left,training,hard,1,,,,,
,,,,,5fa0803077c8550dcb24237d,001,22,non-binary,British,Masters,2024-03-05_22h20.37.211,CRL1h,2023.2.3,MacIntel,60.24096386,65e67470ae2fbf2172c317b2,65e79a91ddf0c6086907b516,,,,,,,,,,,140.5617,1.3,141.8612,141.8612,142.5281,left,0,0.6539,,142.5282,143.5279,1,12,28,14,1,partial,1,images/Ex15.jpg,right,training,hard,1,,,,,
,,,,,5fa0803077c8550dcb24237d,001,22,non-binary,British,Masters,2024-03-05_22h20.37.211,CRL1h,2023.2.3,MacIntel,60.24096386,65e67470ae2fbf2172c317b2,65e79a91ddf0c6086907b516,,,,,,,,,,,143.5285,1.1,144.6278,144.6279,145.1267,right,1,0.49,,145.1268,146.1281,1,13,29,5,1,partial,1,images/Ex14.jpg,right,training,hard,1,,,,,
,,,,,5fa0803077c8550dcb24237d,001,22,non-binary,British,Masters,2024-03-05_22h20.37.211,CRL1h,2023.2.3,MacIntel,60.24096386,65e67470ae2fbf2172c317b2,65e79a91ddf0c6086907b516,,,,,,,,,,,146.1286,0.8,146.9282,146.9282,147.3778,right,0,0.4379,,147.3779,148.3781,1,14,30,8,1,partial,1,images/Ex9.jpg,left,training,hard,1,,,,,
,,,,,5fa0803077c8550dcb24237d,001,22,non-binary,British,Masters,2024-03-05_22h20.37.211,CRL1h,2023.2.3,MacIntel,60.24096386,65e67470ae2fbf2172c317b2,65e79a91ddf0c6086907b516,,,,,,,,,,,148.3786,0.9,149.2771,149.2772,149.8949,left,1,0.6161,,149.8949,150.8949,1,15,31,1,1,partial,1,images/Ex10.jpg,left,training,hard,1,,,,,
,,,,,5fa0803077c8550dcb24237d,001,22,non-binary,British,Masters,2024-03-05_22h20.37.211,CRL1h,2023.2.3,MacIntel,60.24096386,65e67470ae2fbf2172c317b2,65e79a91ddf0c6086907b516,,,,,,,,,,,150.8955,1,151.8948,151.8948,152.6783,right,1,0.7749,,152.6783,153.6783,2,0,32,13,1,partial,1,images/Ex14.jpg,right,training,hard,1,,,,,
,,,,,5fa0803077c8550dcb24237d,001,22,non-binary,British,Masters,2024-03-05_22h20.37.211,CRL1h,2023.2.3,MacIntel,60.24096386,65e67470ae2fbf2172c317b2,65e79a91ddf0c6086907b516,,,,,,,,,,,153.679,1,154.6783,154.6784,155.1945,right,1,0.5036,,155.1946,156.195,2,1,33,7,1,partial,1,images/Ex16.jpg,right,training,hard,1,,,,,
,,,,,5fa0803077c8550dcb24237d,001,22,non-binary,British,Masters,2024-03-05_22h20.37.211,CRL1h,2023.2.3,MacIntel,60.24096386,65e67470ae2fbf2172c317b2,65e79a91ddf0c6086907b516,,,,,,,,,,,156.1956,1.1,157.2951,157.2951,157.6443,left,1,0.3375,,157.6443,158.6451,2,2,34,1,1,partial,1,images/Ex10.jpg,left,training,hard,1,,,,,
,,,,,5fa0803077c8550dcb24237d,001,22,non-binary,British,Masters,2024-03-05_22h20.37.211,CRL1h,2023.2.3,MacIntel,60.24096386,65e67470ae2fbf2172c317b2,65e79a91ddf0c6086907b516,,,,,,,,,,,158.6456,0.6,159.2453,159.2453,159.6953,left,0,0.4369,,159.6953,160.6952,2,3,35,6,1,partial,1,images/Ex15.jpg,right,training,hard,1,,,,,
,,,,,5fa0803077c8550dcb24237d,001,22,non-binary,British,Masters,2024-03-05_22h20.37.211,CRL1h,2023.2.3,MacIntel,60.24096386,65e67470ae2fbf2172c317b2,65e79a91ddf0c6086907b516,,,,,,,,,,,160.6959,0.6,161.2952,161.2952,161.8778,right,1,0.5709,,161.8779,162.8786,2,4,36,15,1,partial,1,images/Ex16.jpg,right,training,hard,1,,,,,
,,,,,5fa0803077c8550dcb24237d,001,22,non-binary,British,Masters,2024-03-05_22h20.37.211,CRL1h,2023.2.3,MacIntel,60.24096386,65e67470ae2fbf2172c317b2,65e79a91ddf0c6086907b516,,,,,,,,,,,162.8791,0.5,163.3786,163.3786,163.7444,right,1,0.3535,,163.7445,164.7445,2,5,37,4,1,partial,1,images/Ex13.jpg,right,training,hard,1,,,,,
,,,,,5fa0803077c8550dcb24237d,001,22,non-binary,British,Masters,2024-03-05_22h20.37.211,CRL1h,2023.2.3,MacIntel,60.24096386,65e67470ae2fbf2172c317b2,65e79a91ddf0c6086907b516,,,,,,,,,,,164.7452,1,165.7454,165.7455,166.1952,right,1,0.4476,,166.1952,167.1944,2,6,38,12,1,partial,1,images/Ex13.jpg,right,training,hard,1,,,,,
,,,,,5fa0803077c8550dcb24237d,001,22,non-binary,British,Masters,2024-03-05_22h20.37.211,CRL1h,2023.2.3,MacIntel,60.24096386,65e67470ae2fbf2172c317b2,65e79a91ddf0c6086907b516,,,,,,,,,,,167.1951,1.3,168.4954,168.4954,168.9122,left,0,0.4036,,168.9123,169.9122,2,7,39,14,1,partial,1,images/Ex15.jpg,right,training,hard,1,,,,,
,,,,,5fa0803077c8550dcb24237d,001,22,non-binary,British,Masters,2024-03-05_22h20.37.211,CRL1h,2023.2.3,MacIntel,60.24096386,65e67470ae2fbf2172c317b2,65e79a91ddf0c6086907b516,,,,,,,,,,,169.913,1.4,171.3122,171.3122,171.7789,right,0,0.454,,171.779,172.779,2,8,40,11,1,partial,1,images/Ex12.jpg,left,training,hard,1,,,,,
,,,,,5fa0803077c8550dcb24237d,001,22,non-binary,British,Masters,2024-03-05_22h20.37.211,CRL1h,2023.2.3,MacIntel,60.24096386,65e67470ae2fbf2172c317b2,65e79a91ddf0c6086907b516,,,,,,,,,,,172.7796,0.5,173.2789,173.2789,173.9786,left,1,0.6963,,173.9786,174.979,2,9,41,2,1,partial,1,images/Ex11.jpg,left,training,hard,1,,,,,
,,,,,5fa0803077c8550dcb24237d,001,22,non-binary,British,Masters,2024-03-05_22h20.37.211,CRL1h,2023.2.3,MacIntel,60.24096386,65e67470ae2fbf2172c317b2,65e79a91ddf0c6086907b516,,,,,,,,,,,174.9796,1,175.979,175.9791,176.7291,left,1,0.7416,,176.7292,177.7291,2,10,42,0,1,partial,1,images/Ex9.jpg,left,training,hard,1,,,,,
,,,,,5fa0803077c8550dcb24237d,001,22,non-binary,British,Masters,2024-03-05_22h20.37.211,CRL1h,2023.2.3,MacIntel,60.24096386,65e67470ae2fbf2172c317b2,65e79a91ddf0c6086907b516,,,,,,,,,,,177.7298,0.9,178.6291,178.6293,179.6793,right,0,1.0367,,179.6794,180.6793,2,11,43,3,1,partial,1,images/Ex12.jpg,left,training,hard,1,,,,,
,,,,,5fa0803077c8550dcb24237d,001,22,non-binary,British,Masters,2024-03-05_22h20.37.211,CRL1h,2023.2.3,MacIntel,60.24096386,65e67470ae2fbf2172c317b2,65e79a91ddf0c6086907b516,,,,,,,,,,,180.6799,0.8,181.4791,181.4792,182.012,left,1,0.521,,182.012,183.0126,2,12,44,9,1,partial,1,images/Ex10.jpg,left,training,hard,1,,,,,
,,,,,5fa0803077c8550dcb24237d,001,22,non-binary,British,Masters,2024-03-05_22h20.37.211,CRL1h,2023.2.3,MacIntel,60.24096386,65e67470ae2fbf2172c317b2,65e79a91ddf0c6086907b516,,,,,,,,,,,183.0131,1.5,184.5127,184.5127,185.1461,left,1,0.6224,,185.1461,186.1461,2,13,45,8,1,partial,1,images/Ex9.jpg,left,training,hard,1,,,,,
,,,,,5fa0803077c8550dcb24237d,001,22,non-binary,British,Masters,2024-03-05_22h20.37.211,CRL1h,2023.2.3,MacIntel,60.24096386,65e67470ae2fbf2172c317b2,65e79a91ddf0c6086907b516,,,,,,,,,,,186.1467,1,187.1451,187.1452,187.5619,right,1,0.4103,,187.562,188.5622,2,14,46,5,1,partial,1,images/Ex14.jpg,right,training,hard,1,,,,,
,,,,,5fa0803077c8550dcb24237d,001,22,non-binary,British,Masters,2024-03-05_22h20.37.211,CRL1h,2023.2.3,MacIntel,60.24096386,65e67470ae2fbf2172c317b2,65e79a91ddf0c6086907b516,,,,,,,,,,,188.5628,1.3,189.8629,189.863,190.6797,right,0,0.8037,,190.6798,191.6796,2,15,47,10,1,partial,1,images/Ex11.jpg,left,training,hard,1,,,,,
,,,,,5fa0803077c8550dcb24237d,001,22,non-binary,British,Masters,2024-03-05_22h20.37.211,CRL1h,2023.2.3,MacIntel,60.24096386,65e67470ae2fbf2172c317b2,65e79a91ddf0c6086907b516,,,,,,,,,,,191.68,1.4,193.0798,193.0799,193.9788,right,0,0.8867,,193.9788,194.9796,3,0,48,3,1,partial,1,images/Ex12.jpg,left,training,hard,1,,,,,
,,,,,5fa0803077c8550dcb24237d,001,22,non-binary,British,Masters,2024-03-05_22h20.37.211,CRL1h,2023.2.3,MacIntel,60.24096386,65e67470ae2fbf2172c317b2,65e79a91ddf0c6086907b516,,,,,,,,,,,194.9801,0.7,195.6793,195.6793,196.4465,right,1,0.7536,,196.4466,197.4464,3,1,49,13,1,partial,1,images/Ex14.jpg,right,training,hard,1,,,,,
,,,,,5fa0803077c8550dcb24237d,001,22,non-binary,British,Masters,2024-03-05_22h20.37.211,CRL1h,2023.2.3,MacIntel,60.24096386,65e67470ae2fbf2172c317b2,65e79a91ddf0c6086907b516,,,,,,,,,,,197.447,0.9,198.3464,198.3464,198.9466,left,1,0.5883,,198.9467,199.9458,3,2,50,2,1,partial,1,images/Ex11.jpg,left,training,hard,1,,,,,
,,,,,5fa0803077c8550dcb24237d,001,22,non-binary,British,Masters,2024-03-05_22h20.37.211,CRL1h,2023.2.3,MacIntel,60.24096386,65e67470ae2fbf2172c317b2,65e79a91ddf0c6086907b516,,,,,,,,,,,199.9464,1.3,201.2466,201.2467,201.8299,left,1,0.5702,,201.8299,202.8299,3,3,51,8,1,partial,1,images/Ex9.jpg,left,training,hard,1,,,,,
,,,,,5fa0803077c8550dcb24237d,001,22,non-binary,British,Masters,2024-03-05_22h20.37.211,CRL1h,2023.2.3,MacIntel,60.24096386,65e67470ae2fbf2172c317b2,65e79a91ddf0c6086907b516,,,,,,,,,,,202.8304,0.8,203.63,203.63,204.1136,left,0,0.4705,,204.1137,205.1134,3,4,52,14,1,partial,1,images/Ex15.jpg,right,training,hard,1,,,,,
,,,,,5fa0803077c8550dcb24237d,001,22,non-binary,British,Masters,2024-03-05_22h20.37.211,CRL1h,2023.2.3,MacIntel,60.24096386,65e67470ae2fbf2172c317b2,65e79a91ddf0c6086907b516,,,,,,,,,,,205.1141,0.8,205.9134,205.9134,206.4969,right,0,0.5706,,206.497,207.4968,3,5,53,10,1,partial,1,images/Ex11.jpg,left,training,hard,1,,,,,
,,,,,5fa0803077c8550dcb24237d,001,22,non-binary,British,Masters,2024-03-05_22h20.37.211,CRL1h,2023.2.3,MacIntel,60.24096386,65e67470ae2fbf2172c317b2,65e79a91ddf0c6086907b516,,,,,,,,,,,207.4974,1.3,208.7969,208.7969,209.2969,left,1,0.4918,,209.2969,210.297,3,6,54,9,1,partial,1,images/Ex10.jpg,left,training,hard,1,,,,,
,,,,,5fa0803077c8550dcb24237d,001,22,non-binary,British,Masters,2024-03-05_22h20.37.211,CRL1h,2023.2.3,MacIntel,60.24096386,65e67470ae2fbf2172c317b2,65e79a91ddf0c6086907b516,,,,,,,,,,,210.2976,1.2,211.497,211.4971,212.0465,right,1,0.5411,,212.0465,213.047,3,7,55,7,1,partial,1,images/Ex16.jpg,right,training,hard,1,,,,,
,,,,,5fa0803077c8550dcb24237d,001,22,non-binary,British,Masters,2024-03-05_22h20.37.211,CRL1h,2023.2.3,MacIntel,60.24096386,65e67470ae2fbf2172c317b2,65e79a91ddf0c6086907b516,,,,,,,,,,,213.0477,1.4,214.447,214.447,214.8805,right,0,0.4207,,214.8805,215.8803,3,8,56,0,1,partial,1,images/Ex9.jpg,left,training,hard,1,,,,,
,,,,,5fa0803077c8550dcb24237d,001,22,non-binary,British,Masters,2024-03-05_22h20.37.211,CRL1h,2023.2.3,MacIntel,60.24096386,65e67470ae2fbf2172c317b2,65e79a91ddf0c6086907b516,,,,,,,,,,,215.8809,0.9,216.78,216.78,217.3306,left,0,0.5375,,217.3307,218.3306,3,9,57,4,1,partial,1,images/Ex13.jpg,right,training,hard,1,,,,,
,,,,,5fa0803077c8550dcb24237d,001,22,non-binary,British,Masters,2024-03-05_22h20.37.211,CRL1h,2023.2.3,MacIntel,60.24096386,65e67470ae2fbf2172c317b2,65e79a91ddf0c6086907b516,,,,,,,,,,,218.3312,1.3,219.6305,219.6306,220.2139,left,0,0.5814,,220.2139,221.214,3,10,58,5,1,partial,1,images/Ex14.jpg,right,training,hard,1,,,,,
,,,,,5fa0803077c8550dcb24237d,001,22,non-binary,British,Masters,2024-03-05_22h20.37.211,CRL1h,2023.2.3,MacIntel,60.24096386,65e67470ae2fbf2172c317b2,65e79a91ddf0c6086907b516,,,,,,,,,,,221.2146,1.2,222.414,222.4141,222.9303,right,1,0.5029,,222.9304,223.9306,3,11,59,15,1,partial,1,images/Ex16.jpg,right,training,hard,1,,,,,
,,,,,5fa0803077c8550dcb24237d,001,22,non-binary,British,Masters,2024-03-05_22h20.37.211,CRL1h,2023.2.3,MacIntel,60.24096386,65e67470ae2fbf2172c317b2,65e79a91ddf0c6086907b516,,,,,,,,,,,223.9311,1,224.9307,224.9309,225.414,left,1,0.4702,,225.4141,226.4141,3,12,60,1,1,partial,1,images/Ex10.jpg,left,training,hard,1,,,,,
,,,,,5fa0803077c8550dcb24237d,001,22,non-binary,British,Masters,2024-03-05_22h20.37.211,CRL1h,2023.2.3,MacIntel,60.24096386,65e67470ae2fbf2172c317b2,65e79a91ddf0c6086907b516,,,,,,,,,,,226.4147,1.4,227.8143,227.8143,228.2309,right,0,0.4046,,228.2309,229.2309,3,13,61,11,1,partial,1,images/Ex12.jpg,left,training,hard,1,,,,,
,,,,,5fa0803077c8550dcb24237d,001,22,non-binary,British,Masters,2024-03-05_22h20.37.211,CRL1h,2023.2.3,MacIntel,60.24096386,65e67470ae2fbf2172c317b2,65e79a91ddf0c6086907b516,,,,,,,,,,,229.2316,1,230.231,230.231,230.7811,left,0,0.5372,,230.7811,231.7811,3,14,62,6,1,partial,1,images/Ex15.jpg,right,training,hard,1,,,,,
,,,,,5fa0803077c8550dcb24237d,001,22,non-binary,British,Masters,2024-03-05_22h20.37.211,CRL1h,2023.2.3,MacIntel,60.24096386,65e67470ae2fbf2172c317b2,65e79a91ddf0c6086907b516,,,,,,,,,,,231.7815,1.4,233.1811,233.1812,233.6977,right,1,0.5041,,233.6977,234.6978,3,15,63,12,1,partial,1,images/Ex13.jpg,right,training,hard,1,,,,,
,,,,,5fa0803077c8550dcb24237d,001,22,non-binary,British,Masters,2024-03-05_22h20.37.211,CRL1h,2023.2.3,MacIntel,60.24096386,65e67470ae2fbf2172c317b2,65e79a91ddf0c6086907b516,,,,,,,,,,,234.6986,1.3,235.9977,235.9978,236.3803,right,0,0.3713,,236.3803,237.3813,4,0,64,3,1,partial,1,images/Ex12.jpg,left,training,hard,1,,,,,
,,,,,5fa0803077c8550dcb24237d,001,22,non-binary,British,Masters,2024-03-05_22h20.37.211,CRL1h,2023.2.3,MacIntel,60.24096386,65e67470ae2fbf2172c317b2,65e79a91ddf0c6086907b516,,,,,,,,,,,237.3818,0.7,238.0813,238.0813,238.4816,left,0,0.3983,,238.4816,239.4813,4,1,65,12,1,partial,1,images/Ex13.jpg,right,training,hard,1,,,,,
,,,,,5fa0803077c8550dcb24237d,001,22,non-binary,British,Masters,2024-03-05_22h20.37.211,CRL1h,2023.2.3,MacIntel,60.24096386,65e67470ae2fbf2172c317b2,65e79a91ddf0c6086907b516,,,,,,,,,,,239.4819,1,240.4812,240.4813,240.9816,left,1,0.4876,,240.9816,241.9814,4,2,66,0,1,partial,1,images/Ex9.jpg,left,training,hard,1,,,,,
,,,,,5fa0803077c8550dcb24237d,001,22,non-binary,British,Masters,2024-03-05_22h20.37.211,CRL1h,2023.2.3,MacIntel,60.24096386,65e67470ae2fbf2172c317b2,65e79a91ddf0c6086907b516,,,,,,,,,,,241.9821,0.9,242.8813,242.8814,243.5148,left,0,0.6201,,243.5149,244.5149,4,3,67,14,1,partial,1,images/Ex15.jpg,right,training,hard,1,,,,,
,,,,,5fa0803077c8550dcb24237d,001,22,non-binary,British,Masters,2024-03-05_22h20.37.211,CRL1h,2023.2.3,MacIntel,60.24096386,65e67470ae2fbf2172c317b2,65e79a91ddf0c6086907b516,,,,,,,,,,,244.5154,0.6,245.1149,245.1149,245.8984,left,1,0.7719,,245.8985,246.8984,4,4,68,10,1,partial,1,images/Ex11.jpg,left,training,hard,1,,,,,
,,,,,5fa0803077c8550dcb24237d,001,22,non-binary,British,Masters,2024-03-05_22h20.37.211,CRL1h,2023.2.3,MacIntel,60.24096386,65e67470ae2fbf2172c317b2,65e79a91ddf0c6086907b516,,,,,,,,,,,246.899,0.6,247.4982,247.4983,247.9483,left,1,0.4487,,247.9483,248.9484,4,5,69,2,1,partial,1,images/Ex11.jpg,left,training,hard,1,,,,,
,,,,,5fa0803077c8550dcb24237d,001,22,non-binary,British,Masters,2024-03-05_22h20.37.211,CRL1h,2023.2.3,MacIntel,60.24096386,65e67470ae2fbf2172c317b2,65e79a91ddf0c6086907b516,,,,,,,,,,,248.949,0.7,249.6485,249.6486,250.1151,left,1,0.4539,,250.1152,251.115,4,6,70,9,1,partial,1,images/Ex10.jpg,left,training,hard,1,,,,,
,,,,,5fa0803077c8550dcb24237d,001,22,non-binary,British,Masters,2024-03-05_22h20.37.211,CRL1h,2023.2.3,MacIntel,60.24096386,65e67470ae2fbf2172c317b2,65e79a91ddf0c6086907b516,,,,,,,,,,,251.1156,0.5,251.615,251.6151,252.5985,right,0,0.9707,,252.5985,253.5986,4,7,71,8,1,partial,1,images/Ex9.jpg,left,training,hard,1,,,,,
,,,,,5fa0803077c8550dcb24237d,001,22,non-binary,British,Masters,2024-03-05_22h20.37.211,CRL1h,2023.2.3,MacIntel,60.24096386,65e67470ae2fbf2172c317b2,65e79a91ddf0c6086907b516,,,,,,,,,,,253.5992,1.2,254.7987,254.7987,255.2651,right,1,0.4561,,255.2652,256.2649,4,8,72,15,1,partial,1,images/Ex16.jpg,right,training,hard,1,,,,,
,,,,,5fa0803077c8550dcb24237d,001,22,non-binary,British,Masters,2024-03-05_22h20.37.211,CRL1h,2023.2.3,MacIntel,60.24096386,65e67470ae2fbf2172c317b2,65e79a91ddf0c6086907b516,,,,,,,,,,,256.2655,0.6,256.8651,256.8652,257.4655,left,0,0.5872,,257.4656,258.4654,4,9,73,6,1,partial,1,images/Ex15.jpg,right,training,hard,1,,,,,
,,,,,5fa0803077c8550dcb24237d,001,22,non-binary,British,Masters,2024-03-05_22h20.37.211,CRL1h,2023.2.3,MacIntel,60.24096386,65e67470ae2fbf2172c317b2,65e79a91ddf0c6086907b516,,,,,,,,,,,258.4659,1.3,259.7654,259.7655,260.2988,left,1,0.522,,260.2989,261.2986,4,10,74,1,1,partial,1,images/Ex10.jpg,left,training,hard,1,,,,,
,,,,,5fa0803077c8550dcb24237d,001,22,non-binary,British,Masters,2024-03-05_22h20.37.211,CRL1h,2023.2.3,MacIntel,60.24096386,65e67470ae2fbf2172c317b2,65e79a91ddf0c6086907b516,,,,,,,,,,,261.2992,0.9,262.1986,262.1986,262.8653,right,1,0.6539,,262.8654,263.8655,4,11,75,4,1,partial,1,images/Ex13.jpg,right,training,hard,1,,,,,
,,,,,5fa0803077c8550dcb24237d,001,22,non-binary,British,Masters,2024-03-05_22h20.37.211,CRL1h,2023.2.3,MacIntel,60.24096386,65e67470ae2fbf2172c317b2,65e79a91ddf0c6086907b516,,,,,,,,,,,263.866,0.8,264.6655,264.6655,265.1148,right,1,0.4376,,265.1148,266.1156,4,12,76,7,1,partial,1,images/Ex16.jpg,right,training,hard,1,,,,,
,,,,,5fa0803077c8550dcb24237d,001,22,non-binary,British,Masters,2024-03-05_22h20.37.211,CRL1h,2023.2.3,MacIntel,60.24096386,65e67470ae2fbf2172c317b2,65e79a91ddf0c6086907b516,,,,,,,,,,,266.1162,0.5,266.6155,266.6155,267.2658,right,0,0.6372,,267.2659,268.2657,4,13,77,11,1,partial,1,images/Ex12.jpg,left,training,hard,1,,,,,
,,,,,5fa0803077c8550dcb24237d,001,22,non-binary,British,Masters,2024-03-05_22h20.37.211,CRL1h,2023.2.3,MacIntel,60.24096386,65e67470ae2fbf2172c317b2,65e79a91ddf0c6086907b516,,,,,,,,,,,268.2662,1.2,269.4657,269.4657,270.0315,left,0,0.5536,,270.0315,271.0324,4,14,78,13,1,partial,1,images/Ex14.jpg,right,training,hard,1,,,,,
,,,,,5fa0803077c8550dcb24237d,001,22,non-binary,British,Masters,2024-03-05_22h20.37.211,CRL1h,2023.2.3,MacIntel,60.24096386,65e67470ae2fbf2172c317b2,65e79a91ddf0c6086907b516,,,,,,,,,,,271.033,1.1,272.1315,272.1315,272.7315,right,1,0.5875,,272.7317,273.7315,4,15,79,5,1,partial,1,images/Ex14.jpg,right,training,hard,1,,,,,
,,,,,5fa0803077c8550dcb24237d,001,22,non-binary,British,Masters,2024-03-05_22h20.37.211,CRL1h,2023.2.3,MacIntel,60.24096386,65e67470ae2fbf2172c317b2,65e79a91ddf0c6086907b516,,,,,,,,,,,273.7321,0.5,274.2325,274.2325,274.6659,right,0,0.4254,,274.6659,275.6649,5,0,80,11,1,partial,1,images/Ex12.jpg,left,training,hard,1,,,,,
,,,,,5fa0803077c8550dcb24237d,001,22,non-binary,British,Masters,2024-03-05_22h20.37.211,CRL1h,2023.2.3,MacIntel,60.24096386,65e67470ae2fbf2172c317b2,65e79a91ddf0c6086907b516,,,,,,,,,,,275.6656,0.9,276.566,276.5661,277.0163,right,0,0.4489,,277.0163,278.016,5,1,81,2,1,partial,1,images/Ex11.jpg,left,training,hard,1,,,,,
,,,,,5fa0803077c8550dcb24237d,001,22,non-binary,British,Masters,2024-03-05_22h20.37.211,CRL1h,2023.2.3,MacIntel,60.24096386,65e67470ae2fbf2172c317b2,65e79a91ddf0c6086907b516,,,,,,,,,,,278.0167,0.5,278.5163,278.5163,278.9484,left,0,0.4204,,278.9485,279.9489,5,2,82,15,1,partial,1,images/Ex16.jpg,right,training,hard,1,,,,,
,,,,,5fa0803077c8550dcb24237d,001,22,non-binary,British,Masters,2024-03-05_22h20.37.211,CRL1h,2023.2.3,MacIntel,60.24096386,65e67470ae2fbf2172c317b2,65e79a91ddf0c6086907b516,,,,,,,,,,,279.9494,0.8,280.7493,280.7494,281.266,left,1,0.5041,,281.2661,282.2661,5,3,83,1,1,partial,1,images/Ex10.jpg,left,training,hard,1,,,,,
,,,,,5fa0803077c8550dcb24237d,001,22,non-binary,British,Masters,2024-03-05_22h20.37.211,CRL1h,2023.2.3,MacIntel,60.24096386,65e67470ae2fbf2172c317b2,65e79a91ddf0c6086907b516,,,,,,,,,,,282.2668,1.1,283.3651,283.3652,283.7327,right,1,0.3544,,283.7328,284.732,5,4,84,4,1,partial,1,images/Ex13.jpg,right,training,hard,1,,,,,
,,,,,5fa0803077c8550dcb24237d,001,22,non-binary,British,Masters,2024-03-05_22h20.37.211,CRL1h,2023.2.3,MacIntel,60.24096386,65e67470ae2fbf2172c317b2,65e79a91ddf0c6086907b516,,,,,,,,,,,284.7327,1.4,286.133,286.133,286.5663,right,0,0.4247,,286.5663,287.5663,5,5,85,0,1,partial,1,images/Ex9.jpg,left,training,hard,1,,,,,
,,,,,5fa0803077c8550dcb24237d,001,22,non-binary,British,Masters,2024-03-05_22h20.37.211,CRL1h,2023.2.3,MacIntel,60.24096386,65e67470ae2fbf2172c317b2,65e79a91ddf0c6086907b516,,,,,,,,,,,287.5671,0.9,288.4664,288.4664,289.0493,left,0,0.5715,,289.0494,290.0496,5,6,86,12,1,partial,1,images/Ex13.jpg,right,training,hard,1,,,,,
,,,,,5fa0803077c8550dcb24237d,001,22,non-binary,British,Masters,2024-03-05_22h20.37.211,CRL1h,2023.2.3,MacIntel,60.24096386,65e67470ae2fbf2172c317b2,65e79a91ddf0c6086907b516,,,,,,,,,,,290.0501,0.5,290.5497,290.5497,291.0331,right,0,0.4706,,291.0333,292.0331,5,7,87,3,1,partial,1,images/Ex12.jpg,left,training,hard,1,,,,,
,,,,,5fa0803077c8550dcb24237d,001,22,non-binary,British,Masters,2024-03-05_22h20.37.211,CRL1h,2023.2.3,MacIntel,60.24096386,65e67470ae2fbf2172c317b2,65e79a91ddf0c6086907b516,,,,,,,,,,,292.0337,0.5,292.5332,292.5332,293.0328,right,1,0.4873,,293.0329,294.0334,5,8,88,7,1,partial,1,images/Ex16.jpg,right,training,hard,1,,,,,
,,,,,5fa0803077c8550dcb24237d,001,22,non-binary,British,Masters,2024-03-05_22h20.37.211,CRL1h,2023.2.3,MacIntel,60.24096386,65e67470ae2fbf2172c317b2,65e79a91ddf0c6086907b516,,,,,,,,,,,294.034,0.6,294.6322,294.6323,295.1498,left,0,0.5073,,295.1499,296.15,5,9,89,14,1,partial,1,images/Ex15.jpg,right,training,hard,1,,,,,
,,,,,5fa0803077c8550dcb24237d,001,22,non-binary,British,Masters,2024-03-05_22h20.37.211,CRL1h,2023.2.3,MacIntel,60.24096386,65e67470ae2fbf2172c317b2,65e79a91ddf0c6086907b516,,,,,,,,,,,296.1506,1.4,297.5501,297.5501,298.3159,left,1,0.7532,,298.316,299.3167,5,10,90,8,1,partial,1,images/Ex9.jpg,left,training,hard,1,,,,,
,,,,,5fa0803077c8550dcb24237d,001,22,non-binary,British,Masters,2024-03-05_22h20.37.211,CRL1h,2023.2.3,MacIntel,60.24096386,65e67470ae2fbf2172c317b2,65e79a91ddf0c6086907b516,,,,,,,,,,,299.3173,1.1,300.4168,300.4168,301.317,left,0,0.8893,,301.3171,302.3168,5,11,91,13,1,partial,1,images/Ex14.jpg,right,training,hard,1,,,,,
,,,,,5fa0803077c8550dcb24237d,001,22,non-binary,British,Masters,2024-03-05_22h20.37.211,CRL1h,2023.2.3,MacIntel,60.24096386,65e67470ae2fbf2172c317b2,65e79a91ddf0c6086907b516,,,,,,,,,,,302.3175,0.8,303.1158,303.1158,303.6164,right,1,0.4891,,303.6164,304.6168,5,12,92,5,1,partial,1,images/Ex14.jpg,right,training,hard,1,,,,,
,,,,,5fa0803077c8550dcb24237d,001,22,non-binary,British,Masters,2024-03-05_22h20.37.211,CRL1h,2023.2.3,MacIntel,60.24096386,65e67470ae2fbf2172c317b2,65e79a91ddf0c6086907b516,,,,,,,,,,,304.6174,1.4,306.017,306.0171,306.7668,left,0,0.7456,,306.7668,307.7672,5,13,93,6,1,partial,1,images/Ex15.jpg,right,training,hard,1,,,,,
,,,,,5fa0803077c8550dcb24237d,001,22,non-binary,British,Masters,2024-03-05_22h20.37.211,CRL1h,2023.2.3,MacIntel,60.24096386,65e67470ae2fbf2172c317b2,65e79a91ddf0c6086907b516,,,,,,,,,,,307.7678,1.2,308.9671,308.9671,309.5838,left,1,0.6047,,309.5839,310.5837,5,14,94,9,1,partial,1,images/Ex10.jpg,left,training,hard,1,,,,,
,,,,,5fa0803077c8550dcb24237d,001,22,non-binary,British,Masters,2024-03-05_22h20.37.211,CRL1h,2023.2.3,MacIntel,60.24096386,65e67470ae2fbf2172c317b2,65e79a91ddf0c6086907b516,,,,,,,,,,,310.5844,1.1,311.6838,311.6838,312.3002,right,0,0.6065,,312.3002,313.2997,5,15,95,10,1,partial,1,images/Ex11.jpg,left,training,hard,1,,,,,
,,,,,5fa0803077c8550dcb24237d,001,22,non-binary,British,Masters,2024-03-05_22h20.37.211,CRL1h,2023.2.3,MacIntel,60.24096386,65e67470ae2fbf2172c317b2,65e79a91ddf0c6086907b516,,,,,,,,,,,313.3002,0.8,314.1005,314.1005,314.6502,left,1,0.5375,,314.6503,315.6506,6,0,96,2,1,partial,1,images/Ex11.jpg,left,training,hard,1,,,,,
,,,,,5fa0803077c8550dcb24237d,001,22,non-binary,British,Masters,2024-03-05_22h20.37.211,CRL1h,2023.2.3,MacIntel,60.24096386,65e67470ae2fbf2172c317b2,65e79a91ddf0c6086907b516,,,,,,,,,,,315.6512,0.7,316.3506,316.3507,317.0008,left,0,0.6402,,317.0009,318.0007,6,1,97,4,1,partial,1,images/Ex13.jpg,right,training,hard,1,,,,,
,,,,,5fa0803077c8550dcb24237d,001,22,non-binary,British,Masters,2024-03-05_22h20.37.211,CRL1h,2023.2.3,MacIntel,60.24096386,65e67470ae2fbf2172c317b2,65e79a91ddf0c6086907b516,,,,,,,,,,,318.0013,1.5,319.5007,319.5008,320.0341,right,1,0.5208,,320.0342,321.034,6,2,98,13,1,partial,1,images/Ex14.jpg,right,training,hard,1,,,,,
,,,,,5fa0803077c8550dcb24237d,001,22,non-binary,British,Masters,2024-03-05_22h20.37.211,CRL1h,2023.2.3,MacIntel,60.24096386,65e67470ae2fbf2172c317b2,65e79a91ddf0c6086907b516,,,,,,,,,,,321.0346,1.3,322.334,322.3341,322.734,right,0,0.388,,322.7341,323.7341,6,3,99,8,1,partial,1,images/Ex9.jpg,left,training,hard,1,,,,,
,,,,,5fa0803077c8550dcb24237d,001,22,non-binary,British,Masters,2024-03-05_22h20.37.211,CRL1h,2023.2.3,MacIntel,60.24096386,65e67470ae2fbf2172c317b2,65e79a91ddf0c6086907b516,,,,,,,,,,,323.7346,0.7,324.4342,324.4343,324.9841,left,1,0.5473,,324.9841,325.9844,6,4,100,0,1,partial,1,images/Ex9.jpg,left,training,hard,1,,,,,
,,,,,5fa0803077c8550dcb24237d,001,22,non-binary,British,Masters,2024-03-05_22h20.37.211,CRL1h,2023.2.3,MacIntel,60.24096386,65e67470ae2fbf2172c317b2,65e79a91ddf0c6086907b516,,,,,,,,,,,325.985,0.5,326.4845,326.4845,326.9016,left,0,0.4157,,326.9016,327.9006,6,5,101,12,1,partial,1,images/Ex13.jpg,right,training,hard,1,,,,,
,,,,,5fa0803077c8550dcb24237d,001,22,non-binary,British,Masters,2024-03-05_22h20.37.211,CRL1h,2023.2.3,MacIntel,60.24096386,65e67470ae2fbf2172c317b2,65e79a91ddf0c6086907b516,,,,,,,,,,,327.9012,1.1,329.0011,329.0012,329.4843,right,0,0.4704,,329.4843,330.4843,6,6,102,3,1,partial,1,images/Ex12.jpg,left,training,hard,1,,,,,
,,,,,5fa0803077c8550dcb24237d,001,22,non-binary,British,Masters,2024-03-05_22h20.37.211,CRL1h,2023.2.3,MacIntel,60.24096386,65e67470ae2fbf2172c317b2,65e79a91ddf0c6086907b516,,,,,,,,,,,330.4849,0.6,331.0845,331.0845,331.5678,left,0,0.4702,,331.5678,332.5678,6,7,103,6,1,partial,1,images/Ex15.jpg,right,training,hard,1,,,,,
,,,,,5fa0803077c8550dcb24237d,001,22,non-binary,British,Masters,2024-03-05_22h20.37.211,CRL1h,2023.2.3,MacIntel,60.24096386,65e67470ae2fbf2172c317b2,65e79a91ddf0c6086907b516,,,,,,,,,,,332.5684,0.8,333.3679,333.3679,333.9679,right,1,0.5907,,333.9679,334.968,6,8,104,5,1,partial,1,images/Ex14.jpg,right,training,hard,1,,,,,
,,,,,5fa0803077c8550dcb24237d,001,22,non-binary,British,Masters,2024-03-05_22h20.37.211,CRL1h,2023.2.3,MacIntel,60.24096386,65e67470ae2fbf2172c317b2,65e79a91ddf0c6086907b516,,,,,,,,,,,334.9686,0.9,335.8679,335.868,336.434,right,1,0.555,,336.434,337.4337,6,9,105,7,1,partial,1,images/Ex16.jpg,right,training,hard,1,,,,,
,,,,,5fa0803077c8550dcb24237d,001,22,non-binary,British,Masters,2024-03-05_22h20.37.211,CRL1h,2023.2.3,MacIntel,60.24096386,65e67470ae2fbf2172c317b2,65e79a91ddf0c6086907b516,,,,,,,,,,,337.4343,0.6,338.0337,338.0338,338.5344,left,1,0.4903,,338.5345,339.5347,6,10,106,9,1,partial,1,images/Ex10.jpg,left,training,hard,1,,,,,
,,,,,5fa0803077c8550dcb24237d,001,22,non-binary,British,Masters,2024-03-05_22h20.37.211,CRL1h,2023.2.3,MacIntel,60.24096386,65e67470ae2fbf2172c317b2,65e79a91ddf0c6086907b516,,,,,,,,,,,339.5353,0.8,340.3348,340.3349,341.2514,right,0,0.9041,,341.2514,342.2515,6,11,107,10,1,partial,1,images/Ex11.jpg,left,training,hard,1,,,,,
,,,,,5fa0803077c8550dcb24237d,001,22,non-binary,British,Masters,2024-03-05_22h20.37.211,CRL1h,2023.2.3,MacIntel,60.24096386,65e67470ae2fbf2172c317b2,65e79a91ddf0c6086907b516,,,,,,,,,,,342.2521,1,343.2506,343.2506,343.9851,right,1,0.7219,,343.9853,344.9849,6,12,108,15,1,partial,1,images/Ex16.jpg,right,training,hard,1,,,,,
,,,,,5fa0803077c8550dcb24237d,001,22,non-binary,British,Masters,2024-03-05_22h20.37.211,CRL1h,2023.2.3,MacIntel,60.24096386,65e67470ae2fbf2172c317b2,65e79a91ddf0c6086907b516,,,,,,,,,,,344.9856,0.9,345.8849,345.8849,346.5179,left,1,0.6299,,346.5179,347.5183,6,13,109,11,1,partial,1,images/Ex12.jpg,left,training,hard,1,,,,,
,,,,,5fa0803077c8550dcb24237d,001,22,non-binary,British,Masters,2024-03-05_22h20.37.211,CRL1h,2023.2.3,MacIntel,60.24096386,65e67470ae2fbf2172c317b2,65e79a91ddf0c6086907b516,,,,,,,,,,,347.5189,0.7,348.2184,348.2184,348.9683,right,1,0.7469,,348.9684,349.9677,6,14,110,14,1,partial,1,images/Ex15.jpg,right,training,hard,1,,,,,
,,,,,5fa0803077c8550dcb24237d,001,22,non-binary,British,Masters,2024-03-05_22h20.37.211,CRL1h,2023.2.3,MacIntel,60.24096386,65e67470ae2fbf2172c317b2,65e79a91ddf0c6086907b516,,,,,,,,,,,349.9684,1.2,351.1684,351.1685,351.6851,left,1,0.5053,,351.6851,352.6843,6,15,111,1,1,partial,1,images/Ex10.jpg,left,training,hard,1,,,,,
,,,,,5fa0803077c8550dcb24237d,001,22,non-binary,British,Masters,2024-03-05_22h20.37.211,CRL1h,2023.2.3,MacIntel,60.24096386,65e67470ae2fbf2172c317b2,65e79a91ddf0c6086907b516,,,,,,,,,,,352.685,1,353.6852,353.6852,354.3519,right,0,0.6584,,354.352,355.352,7,0,112,3,1,partial,1,images/Ex12.jpg,left,training,hard,1,,,,,
,,,,,5fa0803077c8550dcb24237d,001,22,non-binary,British,Masters,2024-03-05_22h20.37.211,CRL1h,2023.2.3,MacIntel,60.24096386,65e67470ae2fbf2172c317b2,65e79a91ddf0c6086907b516,,,,,,,,,,,355.3525,1,356.352,356.352,357.4021,right,0,1.0374,,357.4023,358.4021,7,1,113,10,1,partial,1,images/Ex11.jpg,left,training,hard,1,,,,,
,,,,,5fa0803077c8550dcb24237d,001,22,non-binary,British,Masters,2024-03-05_22h20.37.211,CRL1h,2023.2.3,MacIntel,60.24096386,65e67470ae2fbf2172c317b2,65e79a91ddf0c6086907b516,,,,,,,,,,,358.4025,1.2,359.6022,359.6023,360.0009,left,1,0.3869,,360.0009,361.0021,7,2,114,1,1,partial,1,images/Ex10.jpg,left,training,hard,1,,,,,
,,,,,5fa0803077c8550dcb24237d,001,22,non-binary,British,Masters,2024-03-05_22h20.37.211,CRL1h,2023.2.3,MacIntel,60.24096386,65e67470ae2fbf2172c317b2,65e79a91ddf0c6086907b516,,,,,,,,,,,361.0026,1.1,362.1016,362.1016,362.5524,left,0,0.4377,,362.5524,363.5521,7,3,115,13,1,partial,1,images/Ex14.jpg,right,training,hard,1,,,,,
,,,,,5fa0803077c8550dcb24237d,001,22,non-binary,British,Masters,2024-03-05_22h20.37.211,CRL1h,2023.2.3,MacIntel,60.24096386,65e67470ae2fbf2172c317b2,65e79a91ddf0c6086907b516,,,,,,,,,,,363.5527,0.9,364.4523,364.4524,364.9523,right,1,0.4868,,364.9523,365.9523,7,4,116,15,1,partial,1,images/Ex16.jpg,right,training,hard,1,,,,,
,,,,,5fa0803077c8550dcb24237d,001,22,non-binary,British,Masters,2024-03-05_22h20.37.211,CRL1h,2023.2.3,MacIntel,60.24096386,65e67470ae2fbf2172c317b2,65e79a91ddf0c6086907b516,,,,,,,,,,,365.953,1.3,367.2523,367.2524,367.7684,right,0,0.504,,367.7684,368.7693,7,5,117,11,1,partial,1,images/Ex12.jpg,left,training,hard,1,,,,,
,,,,,5fa0803077c8550dcb24237d,001,22,non-binary,British,Masters,2024-03-05_22h20.37.211,CRL1h,2023.2.3,MacIntel,60.24096386,65e67470ae2fbf2172c317b2,65e79a91ddf0c6086907b516,,,,,,,,,,,368.7698,1.1,369.8691,369.8691,370.536,left,0,0.654,,370.536,371.5358,7,6,118,4,1,partial,1,images/Ex13.jpg,right,training,hard,1,,,,,
,,,,,5fa0803077c8550dcb24237d,001,22,non-binary,British,Masters,2024-03-05_22h20.37.211,CRL1h,2023.2.3,MacIntel,60.24096386,65e67470ae2fbf2172c317b2,65e79a91ddf0c6086907b516,,,,,,,,,,,371.5365,1.4,372.9359,372.9359,373.4026,right,0,0.4549,,373.4026,374.4018,7,7,119,2,1,partial,1,images/Ex11.jpg,left,training,hard,1,,,,,
,,,,,5fa0803077c8550dcb24237d,001,22,non-binary,British,Masters,2024-03-05_22h20.37.211,CRL1h,2023.2.3,MacIntel,60.24096386,65e67470ae2fbf2172c317b2,65e79a91ddf0c6086907b516,,,,,,,,,,,374.4024,0.9,375.3027,375.3027,376.1194,right,1,0.8041,,376.1194,377.1194,7,8,120,12,1,partial,1,images/Ex13.jpg,right,training,hard,1,,,,,
,,,,,5fa0803077c8550dcb24237d,001,22,non-binary,British,Masters,2024-03-05_22h20.37.211,CRL1h,2023.2.3,MacIntel,60.24096386,65e67470ae2fbf2172c317b2,65e79a91ddf0c6086907b516,,,,,,,,,,,377.12,1.1,378.2193,378.2193,378.7029,right,1,0.4708,,378.703,379.7027,7,9,121,7,1,partial,1,images/Ex16.jpg,right,training,hard,1,,,,,
,,,,,5fa0803077c8550dcb24237d,001,22,non-binary,British,Masters,2024-03-05_22h20.37.211,CRL1h,2023.2.3,MacIntel,60.24096386,65e67470ae2fbf2172c317b2,65e79a91ddf0c6086907b516,,,,,,,,,,,379.7035,1.4,381.1029,381.1029,381.9355,right,0,0.82,,381.9356,382.9363,7,10,122,0,1,partial,1,images/Ex9.jpg,left,training,hard,1,,,,,
,,,,,5fa0803077c8550dcb24237d,001,22,non-binary,British,Masters,2024-03-05_22h20.37.211,CRL1h,2023.2.3,MacIntel,60.24096386,65e67470ae2fbf2172c317b2,65e79a91ddf0c6086907b516,,,,,,,,,,,382.9369,1.3,384.2363,384.2363,384.8849,right,1,0.6415,,384.885,385.8863,7,11,123,5,1,partial,1,images/Ex14.jpg,right,training,hard,1,,,,,
,,,,,5fa0803077c8550dcb24237d,001,22,non-binary,British,Masters,2024-03-05_22h20.37.211,CRL1h,2023.2.3,MacIntel,60.24096386,65e67470ae2fbf2172c317b2,65e79a91ddf0c6086907b516,,,,,,,,,,,385.887,1.1,386.9864,386.9865,387.92,right,1,0.9217,,387.92,388.919,7,12,124,6,1,partial,1,images/Ex15.jpg,right,training,hard,1,,,,,
,,,,,5fa0803077c8550dcb24237d,001,22,non-binary,British,Masters,2024-03-05_22h20.37.211,CRL1h,2023.2.3,MacIntel,60.24096386,65e67470ae2fbf2172c317b2,65e79a91ddf0c6086907b516,,,,,,,,,,,388.9195,1.1,390.0198,390.0198,390.4697,right,1,0.4372,,390.4699,391.4692,7,13,125,14,1,partial,1,images/Ex15.jpg,right,training,hard,1,,,,,
,,,,,5fa0803077c8550dcb24237d,001,22,non-binary,British,Masters,2024-03-05_22h20.37.211,CRL1h,2023.2.3,MacIntel,60.24096386,65e67470ae2fbf2172c317b2,65e79a91ddf0c6086907b516,,,,,,,,,,,391.4697,0.6,392.0699,392.0699,392.6702,right,0,0.5877,,392.6702,393.67,7,14,126,8,1,partial,1,images/Ex9.jpg,left,training,hard,1,,,,,
,,,,,5fa0803077c8550dcb24237d,001,22,non-binary,British,Masters,2024-03-05_22h20.37.211,CRL1h,2023.2.3,MacIntel,60.24096386,65e67470ae2fbf2172c317b2,65e79a91ddf0c6086907b516,,,,,,,,,,,393.6705,1.2,394.8701,394.8701,395.3526,left,1,0.4711,,395.3526,396.3533,7,15,127,9,1,partial,1,images/Ex10.jpg,left,training,hard,1,,,,,
,,,,,5fa0803077c8550dcb24237d,001,22,non-binary,British,Masters,2024-03-05_22h20.37.211,CRL1h,2023.2.3,MacIntel,60.24096386,65e67470ae2fbf2172c317b2,65e79a91ddf0c6086907b516,,,,,,,,,,,396.3611,1.4,397.7533,397.7533,398.1871,left,1,0.4207,,398.1872,399.1868,0,0,0,4,1,partial,2,images/Ex13.jpg,left,reversed,hard,1,,,,,
,,,,,5fa0803077c8550dcb24237d,001,22,non-binary,British,Masters,2024-03-05_22h20.37.211,CRL1h,2023.2.3,MacIntel,60.24096386,65e67470ae2fbf2172c317b2,65e79a91ddf0c6086907b516,,,,,,,,,,,399.1874,1,400.1869,400.187,400.8031,right,1,0.6045,,400.8031,401.8036,0,1,1,2,1,partial,2,images/Ex11.jpg,right,reversed,hard,1,,,,,
,,,,,5fa0803077c8550dcb24237d,001,22,non-binary,British,Masters,2024-03-05_22h20.37.211,CRL1h,2023.2.3,MacIntel,60.24096386,65e67470ae2fbf2172c317b2,65e79a91ddf0c6086907b516,,,,,,,,,,,401.8041,1.1,402.9038,402.9039,403.3871,right,1,0.4701,,403.3872,404.3871,0,2,2,7,1,partial,2,images/Ex16.jpg,right,nonreversed,hard,1,,,,,
,,,,,5fa0803077c8550dcb24237d,001,22,non-binary,British,Masters,2024-03-05_22h20.37.211,CRL1h,2023.2.3,MacIntel,60.24096386,65e67470ae2fbf2172c317b2,65e79a91ddf0c6086907b516,,,,,,,,,,,404.3877,1.4,405.7871,405.7871,406.4704,right,0,0.6708,,406.4705,407.4705,0,3,3,5,1,partial,2,images/Ex14.jpg,left,reversed,hard,1,,,,,
,,,,,5fa0803077c8550dcb24237d,001,22,non-binary,British,Masters,2024-03-05_22h20.37.211,CRL1h,2023.2.3,MacIntel,60.24096386,65e67470ae2fbf2172c317b2,65e79a91ddf0c6086907b516,,,,,,,,,,,407.4711,1.3,408.7704,408.7705,410.2371,right,1,1.4535,,410.2373,411.2372,0,4,4,11,1,partial,2,images/Ex12.jpg,right,reversed,hard,1,,,,,
,,,,,5fa0803077c8550dcb24237d,001,22,non-binary,British,Masters,2024-03-05_22h20.37.211,CRL1h,2023.2.3,MacIntel,60.24096386,65e67470ae2fbf2172c317b2,65e79a91ddf0c6086907b516,,,,,,,,,,,411.2379,0.5,411.7373,411.7373,412.1701,right,1,0.4293,,412.1702,413.1707,0,5,5,3,1,partial,2,images/Ex12.jpg,right,reversed,hard,1,,,,,
,,,,,5fa0803077c8550dcb24237d,001,22,non-binary,British,Masters,2024-03-05_22h20.37.211,CRL1h,2023.2.3,MacIntel,60.24096386,65e67470ae2fbf2172c317b2,65e79a91ddf0c6086907b516,,,,,,,,,,,413.1713,0.6,413.7711,413.7711,414.2543,left,1,0.4698,,414.2543,415.2541,0,6,6,1,1,partial,2,images/Ex10.jpg,left,nonreversed,hard,1,,,,,
,,,,,5fa0803077c8550dcb24237d,001,22,non-binary,British,Masters,2024-03-05_22h20.37.211,CRL1h,2023.2.3,MacIntel,60.24096386,65e67470ae2fbf2172c317b2,65e79a91ddf0c6086907b516,,,,,,,,,,,415.2547,0.7,415.9541,415.9542,416.4042,left,1,0.438,,416.4042,417.4042,0,7,7,9,1,partial,2,images/Ex10.jpg,left,nonreversed,hard,1,,,,,
,,,,,5fa0803077c8550dcb24237d,001,22,non-binary,British,Masters,2024-03-05_22h20.37.211,CRL1h,2023.2.3,MacIntel,60.24096386,65e67470ae2fbf2172c317b2,65e79a91ddf0c6086907b516,,,,,,,,,,,417.4049,1.4,418.8043,418.8043,419.6707,right,1,0.8536,,419.6708,420.6709,0,8,8,14,1,partial,2,images/Ex15.jpg,right,nonreversed,hard,1,,,,,
,,,,,5fa0803077c8550dcb24237d,001,22,non-binary,British,Masters,2024-03-05_22h20.37.211,CRL1h,2023.2.3,MacIntel,60.24096386,65e67470ae2fbf2172c317b2,65e79a91ddf0c6086907b516,,,,,,,,,,,420.6715,1,421.6709,421.6709,422.3879,right,1,0.7042,,422.388,423.3877,0,9,9,10,1,partial,2,images/Ex11.jpg,right,reversed,hard,1,,,,,
,,,,,5fa0803077c8550dcb24237d,001,22,non-binary,British,Masters,2024-03-05_22h20.37.211,CRL1h,2023.2.3,MacIntel,60.24096386,65e67470ae2fbf2172c317b2,65e79a91ddf0c6086907b516,,,,,,,,,,,423.3883,0.7,424.0876,424.0876,424.9539,left,1,0.8628,,424.9539,425.9544,0,10,10,13,1,partial,2,images/Ex14.jpg,left,reversed,hard,1,,,,,
,,,,,5fa0803077c8550dcb24237d,001,22,non-binary,British,Masters,2024-03-05_22h20.37.211,CRL1h,2023.2.3,MacIntel,60.24096386,65e67470ae2fbf2172c317b2,65e79a91ddf0c6086907b516,,,,,,,,,,,425.9549,1,426.9544,426.9544,427.5047,right,1,0.5402,,427.5048,428.5047,0,11,11,6,1,partial,2,images/Ex15.jpg,right,nonreversed,hard,1,,,,,
,,,,,5fa0803077c8550dcb24237d,001,22,non-binary,British,Masters,2024-03-05_22h20.37.211,CRL1h,2023.2.3,MacIntel,60.24096386,65e67470ae2fbf2172c317b2,65e79a91ddf0c6086907b516,,,,,,,,,,,428.5053,1.4,429.9045,429.9047,430.4213,right,1,0.5047,,430.4214,431.4212,0,12,12,15,1,partial,2,images/Ex16.jpg,right,nonreversed,hard,1,,,,,
,,,,,5fa0803077c8550dcb24237d,001,22,non-binary,British,Masters,2024-03-05_22h20.37.211,CRL1h,2023.2.3,MacIntel,60.24096386,65e67470ae2fbf2172c317b2,65e79a91ddf0c6086907b516,,,,,,,,,,,431.4218,0.6,432.0213,432.0214,432.655,right,0,0.6204,,432.6551,433.6541,0,13,13,8,1,partial,2,images/Ex9.jpg,left,nonreversed,hard,1,,,,,
,,,,,5fa0803077c8550dcb24237d,001,22,non-binary,British,Masters,2024-03-05_22h20.37.211,CRL1h,2023.2.3,MacIntel,60.24096386,65e67470ae2fbf2172c317b2,65e79a91ddf0c6086907b516,,,,,,,,,,,433.6548,0.7,434.3546,434.3547,434.8382,left,1,0.4708,,434.8382,435.8381,0,14,14,0,1,partial,2,images/Ex9.jpg,left,nonreversed,hard,1,,,,,
,,,,,5fa0803077c8550dcb24237d,001,22,non-binary,British,Masters,2024-03-05_22h20.37.211,CRL1h,2023.2.3,MacIntel,60.24096386,65e67470ae2fbf2172c317b2,65e79a91ddf0c6086907b516,,,,,,,,,,,435.8387,0.8,436.6381,436.6382,437.1716,left,1,0.52,,437.1716,438.1716,0,15,15,12,1,partial,2,images/Ex13.jpg,left,reversed,hard,1,,,,,
,,,,,5fa0803077c8550dcb24237d,001,22,non-binary,British,Masters,2024-03-05_22h20.37.211,CRL1h,2023.2.3,MacIntel,60.24096386,65e67470ae2fbf2172c317b2,65e79a91ddf0c6086907b516,,,,,,,,,,,438.1723,1.5,439.6717,439.6718,440.1717,right,1,0.4871,,440.1717,441.1716,1,0,16,6,1,partial,2,images/Ex15.jpg,right,nonreversed,hard,1,,,,,
,,,,,5fa0803077c8550dcb24237d,001,22,non-binary,British,Masters,2024-03-05_22h20.37.211,CRL1h,2023.2.3,MacIntel,60.24096386,65e67470ae2fbf2172c317b2,65e79a91ddf0c6086907b516,,,,,,,,,,,441.1723,1.4,442.5718,442.5718,443.7886,right,1,1.2038,,443.7887,444.7884,1,1,17,11,1,partial,2,images/Ex12.jpg,right,reversed,hard,1,,,,,
,,,,,5fa0803077c8550dcb24237d,001,22,non-binary,British,Masters,2024-03-05_22h20.37.211,CRL1h,2023.2.3,MacIntel,60.24096386,65e67470ae2fbf2172c317b2,65e79a91ddf0c6086907b516,,,,,,,,,,,444.7893,1.4,446.1883,446.1884,446.839,left,1,0.6485,,446.8391,447.8385,1,2,18,12,1,partial,2,images/Ex13.jpg,left,reversed,hard,1,,,,,
,,,,,5fa0803077c8550dcb24237d,001,22,non-binary,British,Masters,2024-03-05_22h20.37.211,CRL1h,2023.2.3,MacIntel,60.24096386,65e67470ae2fbf2172c317b2,65e79a91ddf0c6086907b516,,,,,,,,,,,447.8392,0.7,448.5388,448.5388,449.1554,left,1,0.606,,449.1554,450.1552,1,3,19,8,1,partial,2,images/Ex9.jpg,left,nonreversed,hard,1,,,,,
,,,,,5fa0803077c8550dcb24237d,001,22,non-binary,British,Masters,2024-03-05_22h20.37.211,CRL1h,2023.2.3,MacIntel,60.24096386,65e67470ae2fbf2172c317b2,65e79a91ddf0c6086907b516,,,,,,,,,,,450.156,1,451.1552,451.1552,451.8387,left,1,0.6706,,451.8387,452.8383,1,4,20,13,1,partial,2,images/Ex14.jpg,left,reversed,hard,1,,,,,
,,,,,5fa0803077c8550dcb24237d,001,22,non-binary,British,Masters,2024-03-05_22h20.37.211,CRL1h,2023.2.3,MacIntel,60.24096386,65e67470ae2fbf2172c317b2,65e79a91ddf0c6086907b516,,,,,,,,,,,452.8389,0.6,453.4387,453.4387,454.0049,left,1,0.554,,454.005,455.0053,1,5,21,9,1,partial,2,images/Ex10.jpg,left,nonreversed,hard,1,,,,,
,,,,,5fa0803077c8550dcb24237d,001,22,non-binary,British,Masters,2024-03-05_22h20.37.211,CRL1h,2023.2.3,MacIntel,60.24096386,65e67470ae2fbf2172c317b2,65e79a91ddf0c6086907b516,,,,,,,,,,,455.0059,1.3,456.3058,456.3058,457.189,left,1,0.8704,,457.189,458.189,1,6,22,4,1,partial,2,images/Ex13.jpg,left,reversed,hard,1,,,,,
,,,,,5fa0803077c8550dcb24237d,001,22,non-binary,British,Masters,2024-03-05_22h20.37.211,CRL1h,2023.2.3,MacIntel,60.24096386,65e67470ae2fbf2172c317b2,65e79a91ddf0c6086907b516,,,,,,,,,,,458.1895,1.1,459.2889,459.289,459.8724,left,1,0.57,,459.8724,460.8723,1,7,23,1,1,partial,2,images/Ex10.jpg,left,nonreversed,hard,1,,,,,
,,,,,5fa0803077c8550dcb24237d,001,22,non-binary,British,Masters,2024-03-05_22h20.37.211,CRL1h,2023.2.3,MacIntel,60.24096386,65e67470ae2fbf2172c317b2,65e79a91ddf0c6086907b516,,,,,,,,,,,460.873,1,461.8724,461.8725,462.5561,right,1,0.6709,,462.5561,463.5556,1,8,24,2,1,partial,2,images/Ex11.jpg,right,reversed,hard,1,,,,,
,,,,,5fa0803077c8550dcb24237d,001,22,non-binary,British,Masters,2024-03-05_22h20.37.211,CRL1h,2023.2.3,MacIntel,60.24096386,65e67470ae2fbf2172c317b2,65e79a91ddf0c6086907b516,,,,,,,,,,,463.5562,0.6,464.1557,464.1558,464.7061,right,1,0.5371,,464.7061,465.7057,1,9,25,7,1,partial,2,images/Ex16.jpg,right,nonreversed,hard,1,,,,,
,,,,,5fa0803077c8550dcb24237d,001,22,non-binary,British,Masters,2024-03-05_22h20.37.211,CRL1h,2023.2.3,MacIntel,60.24096386,65e67470ae2fbf2172c317b2,65e79a91ddf0c6086907b516,,,,,,,,,,,465.7064,0.6,466.3057,466.3057,467.0559,right,1,0.7371,,467.0559,468.0552,1,10,26,3,1,partial,2,images/Ex12.jpg,right,reversed,hard,1,,,,,
,,,,,5fa0803077c8550dcb24237d,001,22,non-binary,British,Masters,2024-03-05_22h20.37.211,CRL1h,2023.2.3,MacIntel,60.24096386,65e67470ae2fbf2172c317b2,65e79a91ddf0c6086907b516,,,,,,,,,,,468.0558,0.6,468.6561,468.6561,469.3558,right,1,0.6961,,469.3559,470.3545,1,11,27,14,1,partial,2,images/Ex15.jpg,right,nonreversed,hard,1,,,,,
,,,,,5fa0803077c8550dcb24237d,001,22,non-binary,British,Masters,2024-03-05_22h20.37.211,CRL1h,2023.2.3,MacIntel,60.24096386,65e67470ae2fbf2172c317b2,65e79a91ddf0c6086907b516,,,,,,,,,,,470.3548,0.9,471.2554,471.2554,471.8727,right,1,0.6058,,471.8728,472.8727,1,12,28,10,1,partial,2,images/Ex11.jpg,right,reversed,hard,1,,,,,
,,,,,5fa0803077c8550dcb24237d,001,22,non-binary,British,Masters,2024-03-05_22h20.37.211,CRL1h,2023.2.3,MacIntel,60.24096386,65e67470ae2fbf2172c317b2,65e79a91ddf0c6086907b516,,,,,,,,,,,472.8734,0.9,473.7729,473.7729,474.2561,right,1,0.4701,,474.2563,475.2554,1,13,29,15,1,partial,2,images/Ex16.jpg,right,nonreversed,hard,1,,,,,
,,,,,5fa0803077c8550dcb24237d,001,22,non-binary,British,Masters,2024-03-05_22h20.37.211,CRL1h,2023.2.3,MacIntel,60.24096386,65e67470ae2fbf2172c317b2,65e79a91ddf0c6086907b516,,,,,,,,,,,475.256,1.2,476.4561,476.4561,476.8727,left,1,0.4041,,476.8728,477.8729,1,14,30,5,1,partial,2,images/Ex14.jpg,left,reversed,hard,1,,,,,
,,,,,5fa0803077c8550dcb24237d,001,22,non-binary,British,Masters,2024-03-05_22h20.37.211,CRL1h,2023.2.3,MacIntel,60.24096386,65e67470ae2fbf2172c317b2,65e79a91ddf0c6086907b516,,,,,,,,,,,477.8735,0.8,478.673,478.673,479.4551,left,1,0.78,,479.4551,480.4563,1,15,31,0,1,partial,2,images/Ex9.jpg,left,nonreversed,hard,1,,,,,
,,,,,5fa0803077c8550dcb24237d,001,22,non-binary,British,Masters,2024-03-05_22h20.37.211,CRL1h,2023.2.3,MacIntel,60.24096386,65e67470ae2fbf2172c317b2,65e79a91ddf0c6086907b516,,,,,,,,,,,480.4569,1.1,481.5563,481.5563,482.023,right,1,0.4535,,482.023,483.023,2,0,32,15,1,partial,2,images/Ex16.jpg,right,nonreversed,hard,1,,,,,
,,,,,5fa0803077c8550dcb24237d,001,22,non-binary,British,Masters,2024-03-05_22h20.37.211,CRL1h,2023.2.3,MacIntel,60.24096386,65e67470ae2fbf2172c317b2,65e79a91ddf0c6086907b516,,,,,,,,,,,483.0236,1.2,484.2231,484.2231,484.6388,right,0,0.4033,,484.6388,485.6398,2,1,33,12,1,partial,2,images/Ex13.jpg,left,reversed,hard,1,,,,,
,,,,,5fa0803077c8550dcb24237d,001,22,non-binary,British,Masters,2024-03-05_22h20.37.211,CRL1h,2023.2.3,MacIntel,60.24096386,65e67470ae2fbf2172c317b2,65e79a91ddf0c6086907b516,,,,,,,,,,,485.6403,0.8,486.4399,486.4399,486.856,left,1,0.4042,,486.8561,487.8567,2,2,34,4,1,partial,2,images/Ex13.jpg,left,reversed,hard,1,,,,,
,,,,,5fa0803077c8550dcb24237d,001,22,non-binary,British,Masters,2024-03-05_22h20.37.211,CRL1h,2023.2.3,MacIntel,60.24096386,65e67470ae2fbf2172c317b2,65e79a91ddf0c6086907b516,,,,,,,,,,,487.8573,1.4,489.2565,489.2566,489.8568,right,1,0.587,,489.8569,490.8567,2,3,35,11,1,partial,2,images/Ex12.jpg,right,reversed,hard,1,,,,,
,,,,,5fa0803077c8550dcb24237d,001,22,non-binary,British,Masters,2024-03-05_22h20.37.211,CRL1h,2023.2.3,MacIntel,60.24096386,65e67470ae2fbf2172c317b2,65e79a91ddf0c6086907b516,,,,,,,,,,,490.8574,1.4,492.2557,492.2558,492.7402,right,1,0.4758,,492.7403,493.7401,2,4,36,2,1,partial,2,images/Ex11.jpg,right,reversed,hard,1,,,,,
,,,,,5fa0803077c8550dcb24237d,001,22,non-binary,British,Masters,2024-03-05_22h20.37.211,CRL1h,2023.2.3,MacIntel,60.24096386,65e67470ae2fbf2172c317b2,65e79a91ddf0c6086907b516,,,,,,,,,,,493.7406,1.5,495.2392,495.2393,495.6405,left,1,0.3892,,495.6406,496.6401,2,5,37,5,1,partial,2,images/Ex14.jpg,left,reversed,hard,1,,,,,
,,,,,5fa0803077c8550dcb24237d,001,22,non-binary,British,Masters,2024-03-05_22h20.37.211,CRL1h,2023.2.3,MacIntel,60.24096386,65e67470ae2fbf2172c317b2,65e79a91ddf0c6086907b516,,,,,,,,,,,496.6408,1.2,497.8403,497.8403,498.4727,left,1,0.6205,,498.4728,499.4727,2,6,38,8,1,partial,2,images/Ex9.jpg,left,nonreversed,hard,1,,,,,
,,,,,5fa0803077c8550dcb24237d,001,22,non-binary,British,Masters,2024-03-05_22h20.37.211,CRL1h,2023.2.3,MacIntel,60.24096386,65e67470ae2fbf2172c317b2,65e79a91ddf0c6086907b516,,,,,,,,,,,499.4733,1,500.4737,500.4737,500.8903,left,0,0.4058,,500.8904,501.8905,2,7,39,14,1,partial,2,images/Ex15.jpg,right,nonreversed,hard,1,,,,,
,,,,,5fa0803077c8550dcb24237d,001,22,non-binary,British,Masters,2024-03-05_22h20.37.211,CRL1h,2023.2.3,MacIntel,60.24096386,65e67470ae2fbf2172c317b2,65e79a91ddf0c6086907b516,,,,,,,,,,,501.8911,1.3,503.1905,503.1907,503.6396,left,1,0.4374,,503.6396,504.6405,2,8,40,0,1,partial,2,images/Ex9.jpg,left,nonreversed,hard,1,,,,,
,,,,,5fa0803077c8550dcb24237d,001,22,non-binary,British,Masters,2024-03-05_22h20.37.211,CRL1h,2023.2.3,MacIntel,60.24096386,65e67470ae2fbf2172c317b2,65e79a91ddf0c6086907b516,,,,,,,,,,,504.6411,1.2,505.8408,505.8408,506.2402,left,1,0.3858,,506.2403,507.2406,2,9,41,13,1,partial,2,images/Ex14.jpg,left,reversed,hard,1,,,,,
,,,,,5fa0803077c8550dcb24237d,001,22,non-binary,British,Masters,2024-03-05_22h20.37.211,CRL1h,2023.2.3,MacIntel,60.24096386,65e67470ae2fbf2172c317b2,65e79a91ddf0c6086907b516,,,,,,,,,,,507.2412,0.6,507.8401,507.8401,508.2569,right,1,0.4127,,508.2569,509.2573,2,10,42,10,1,partial,2,images/Ex11.jpg,right,reversed,hard,1,,,,,
,,,,,5fa0803077c8550dcb24237d,001,22,non-binary,British,Masters,2024-03-05_22h20.37.211,CRL1h,2023.2.3,MacIntel,60.24096386,65e67470ae2fbf2172c317b2,65e79a91ddf0c6086907b516,,,,,,,,,,,509.2579,1,510.2574,510.2575,510.7574,left,1,0.4872,,510.7575,511.7564,2,11,43,1,1,partial,2,images/Ex10.jpg,left,nonreversed,hard,1,,,,,
,,,,,5fa0803077c8550dcb24237d,001,22,non-binary,British,Masters,2024-03-05_22h20.37.211,CRL1h,2023.2.3,MacIntel,60.24096386,65e67470ae2fbf2172c317b2,65e79a91ddf0c6086907b516,,,,,,,,,,,511.757,0.6,512.3574,512.3574,512.8566,left,1,0.4878,,512.8566,513.8576,2,12,44,9,1,partial,2,images/Ex10.jpg,left,nonreversed,hard,1,,,,,
,,,,,5fa0803077c8550dcb24237d,001,22,non-binary,British,Masters,2024-03-05_22h20.37.211,CRL1h,2023.2.3,MacIntel,60.24096386,65e67470ae2fbf2172c317b2,65e79a91ddf0c6086907b516,,,,,,,,,,,513.8584,1.5,515.3577,515.3577,515.9408,right,1,0.5744,,515.9409,516.9399,2,13,45,3,1,partial,2,images/Ex12.jpg,right,reversed,hard,1,,,,,
,,,,,5fa0803077c8550dcb24237d,001,22,non-binary,British,Masters,2024-03-05_22h20.37.211,CRL1h,2023.2.3,MacIntel,60.24096386,65e67470ae2fbf2172c317b2,65e79a91ddf0c6086907b516,,,,,,,,,,,516.9408,1.2,518.1398,518.1399,518.6244,right,1,0.4714,,518.6245,519.6234,2,14,46,6,1,partial,2,images/Ex15.jpg,right,nonreversed,hard,1,,,,,
,,,,,5fa0803077c8550dcb24237d,001,22,non-binary,British,Masters,2024-03-05_22h20.37.211,CRL1h,2023.2.3,MacIntel,60.24096386,65e67470ae2fbf2172c317b2,65e79a91ddf0c6086907b516,,,,,,,,,,,519.6241,1.4,521.0243,521.0244,521.5078,right,1,0.4816,,521.5079,522.5079,2,15,47,7,1,partial,2,images/Ex16.jpg,right,nonreversed,hard,1,,,,,
,,,,,5fa0803077c8550dcb24237d,001,22,non-binary,British,Masters,2024-03-05_22h20.37.211,CRL1h,2023.2.3,MacIntel,60.24096386,65e67470ae2fbf2172c317b2,65e79a91ddf0c6086907b516,,,,,,,,,,,522.5085,1.4,523.907,523.9071,524.4417,left,1,0.5241,,524.4417,525.4401,3,0,48,12,1,partial,2,images/Ex13.jpg,left,reversed,hard,1,,,,,
,,,,,5fa0803077c8550dcb24237d,001,22,non-binary,British,Masters,2024-03-05_22h20.37.211,CRL1h,2023.2.3,MacIntel,60.24096386,65e67470ae2fbf2172c317b2,65e79a91ddf0c6086907b516,,,,,,,,,,,525.4406,0.8,526.2413,526.2413,526.7077,right,1,0.4538,,526.7077,527.7068,3,1,49,2,1,partial,2,images/Ex11.jpg,right,reversed,hard,1,,,,,
,,,,,5fa0803077c8550dcb24237d,001,22,non-binary,British,Masters,2024-03-05_22h20.37.211,CRL1h,2023.2.3,MacIntel,60.24096386,65e67470ae2fbf2172c317b2,65e79a91ddf0c6086907b516,,,,,,,,,,,527.7073,0.9,528.607,528.607,529.1581,left,1,0.5403,,529.1582,530.1574,3,2,50,4,1,partial,2,images/Ex13.jpg,left,reversed,hard,1,,,,,
,,,,,5fa0803077c8550dcb24237d,001,22,non-binary,British,Masters,2024-03-05_22h20.37.211,CRL1h,2023.2.3,MacIntel,60.24096386,65e67470ae2fbf2172c317b2,65e79a91ddf0c6086907b516,,,,,,,,,,,530.1581,1.4,531.558,531.558,532.1081,left,1,0.5483,,532.1082,533.1083,3,3,51,5,1,partial,2,images/Ex14.jpg,left,reversed,hard,1,,,,,
,,,,,5fa0803077c8550dcb24237d,001,22,non-binary,British,Masters,2024-03-05_22h20.37.211,CRL1h,2023.2.3,MacIntel,60.24096386,65e67470ae2fbf2172c317b2,65e79a91ddf0c6086907b516,,,,,,,,,,,533.1087,1.5,534.6082,534.6082,535.0916,left,1,0.4824,,535.0917,536.0914,3,4,52,13,1,partial,2,images/Ex14.jpg,left,reversed,hard,1,,,,,
,,,,,5fa0803077c8550dcb24237d,001,22,non-binary,British,Masters,2024-03-05_22h20.37.211,CRL1h,2023.2.3,MacIntel,60.24096386,65e67470ae2fbf2172c317b2,65e79a91ddf0c6086907b516,,,,,,,,,,,536.092,0.5,536.5906,536.5906,537.4752,left,1,0.8716,,537.4752,538.475,3,5,53,8,1,partial,2,images/Ex9.jpg,left,nonreversed,hard,1,,,,,
,,,,,5fa0803077c8550dcb24237d,001,22,non-binary,British,Masters,2024-03-05_22h20.37.211,CRL1h,2023.2.3,MacIntel,60.24096386,65e67470ae2fbf2172c317b2,65e79a91ddf0c6086907b516,,,,,,,,,,,538.4756,0.8,539.275,539.275,540.2743,right,1,0.9861,,540.2744,541.2739,3,6,54,6,1,partial,2,images/Ex15.jpg,right,nonreversed,hard,1,,,,,
,,,,,5fa0803077c8550dcb24237d,001,22,non-binary,British,Masters,2024-03-05_22h20.37.211,CRL1h,2023.2.3,MacIntel,60.24096386,65e67470ae2fbf2172c317b2,65e79a91ddf0c6086907b516,,,,,,,,,,,541.2745,0.5,541.7751,541.7751,542.3085,left,0,0.5205,,542.3086,543.3085,3,7,55,15,1,partial,2,images/Ex16.jpg,right,nonreversed,hard,1,,,,,
,,,,,5fa0803077c8550dcb24237d,001,22,non-binary,British,Masters,2024-03-05_22h20.37.211,CRL1h,2023.2.3,MacIntel,60.24096386,65e67470ae2fbf2172c317b2,65e79a91ddf0c6086907b516,,,,,,,,,,,543.3091,0.8,544.1084,544.1084,544.542,left,1,0.4226,,544.5421,545.5419,3,8,56,1,1,partial,2,images/Ex10.jpg,left,nonreversed,hard,1,,,,,
,,,,,5fa0803077c8550dcb24237d,001,22,non-binary,British,Masters,2024-03-05_22h20.37.211,CRL1h,2023.2.3,MacIntel,60.24096386,65e67470ae2fbf2172c317b2,65e79a91ddf0c6086907b516,,,,,,,,,,,545.5425,0.5,546.0421,546.0421,546.5246,right,1,0.4806,,546.5246,547.5252,3,9,57,14,1,partial,2,images/Ex15.jpg,right,nonreversed,hard,1,,,,,
,,,,,5fa0803077c8550dcb24237d,001,22,non-binary,British,Masters,2024-03-05_22h20.37.211,CRL1h,2023.2.3,MacIntel,60.24096386,65e67470ae2fbf2172c317b2,65e79a91ddf0c6086907b516,,,,,,,,,,,547.5258,1.2,548.7254,548.7254,549.2583,right,1,0.5262,,549.2583,550.2587,3,10,58,10,1,partial,2,images/Ex11.jpg,right,reversed,hard,1,,,,,
,,,,,5fa0803077c8550dcb24237d,001,22,non-binary,British,Masters,2024-03-05_22h20.37.211,CRL1h,2023.2.3,MacIntel,60.24096386,65e67470ae2fbf2172c317b2,65e79a91ddf0c6086907b516,,,,,,,,,,,550.2594,1,551.2587,551.2588,551.7088,right,1,0.4374,,551.7089,552.7087,3,11,59,7,1,partial,2,images/Ex16.jpg,right,nonreversed,hard,1,,,,,
,,,,,5fa0803077c8550dcb24237d,001,22,non-binary,British,Masters,2024-03-05_22h20.37.211,CRL1h,2023.2.3,MacIntel,60.24096386,65e67470ae2fbf2172c317b2,65e79a91ddf0c6086907b516,,,,,,,,,,,552.7092,1.2,553.9088,553.9089,554.3252,right,1,0.4047,,554.3253,555.3256,3,12,60,3,1,partial,2,images/Ex12.jpg,right,reversed,hard,1,,,,,
,,,,,5fa0803077c8550dcb24237d,001,22,non-binary,British,Masters,2024-03-05_22h20.37.211,CRL1h,2023.2.3,MacIntel,60.24096386,65e67470ae2fbf2172c317b2,65e79a91ddf0c6086907b516,,,,,,,,,,,555.3263,0.8,556.1257,556.1257,556.5091,right,1,0.3714,,556.5092,557.5089,3,13,61,11,1,partial,2,images/Ex12.jpg,right,reversed,hard,1,,,,,
,,,,,5fa0803077c8550dcb24237d,001,22,non-binary,British,Masters,2024-03-05_22h20.37.211,CRL1h,2023.2.3,MacIntel,60.24096386,65e67470ae2fbf2172c317b2,65e79a91ddf0c6086907b516,,,,,,,,,,,557.5096,1.5,559.009,559.0091,559.3926,right,0,0.3707,,559.3926,560.3914,3,14,62,0,1,partial,2,images/Ex9.jpg,left,nonreversed,hard,1,,,,,
,,,,,5fa0803077c8550dcb24237d,001,22,non-binary,British,Masters,2024-03-05_22h20.37.211,CRL1h,2023.2.3,MacIntel,60.24096386,65e67470ae2fbf2172c317b2,65e79a91ddf0c6086907b516,,,,,,,,,,,560.3919,1,561.3916,561.3916,561.8586,left,1,0.4551,,561.8586,562.8591,3,15,63,9,1,partial,2,images/Ex10.jpg,left,nonreversed,hard,1,,,,,
,,,,,5fa0803077c8550dcb24237d,001,22,non-binary,British,Masters,2024-03-05_22h20.37.211,CRL1h,2023.2.3,MacIntel,60.24096386,65e67470ae2fbf2172c317b2,65e79a91ddf0c6086907b516,,,,,,562.8603,565.5928,space,2.7152,,565.5995,0.8,566.3927,566.3928,567.0924,left,0,0.6884,,567.0925,568.0926,0,0,0,12,1,total,1,images/Ex5.jpg,right,training,hard,1,,,,,
,,,,,5fa0803077c8550dcb24237d,001,22,non-binary,British,Masters,2024-03-05_22h20.37.211,CRL1h,2023.2.3,MacIntel,60.24096386,65e67470ae2fbf2172c317b2,65e79a91ddf0c6086907b516,,,,,,,,,,,568.0933,1.4,569.4926,569.4927,570.0265,left,1,0.5232,,570.0265,571.0257,0,1,1,2,1,total,1,images/Ex3.jpg,left,training,hard,1,,,,,
,,,,,5fa0803077c8550dcb24237d,001,22,non-binary,British,Masters,2024-03-05_22h20.37.211,CRL1h,2023.2.3,MacIntel,60.24096386,65e67470ae2fbf2172c317b2,65e79a91ddf0c6086907b516,,,,,,,,,,,571.0262,0.8,571.8252,571.8252,572.2599,right,0,0.4224,,572.2599,573.2596,0,2,2,9,1,total,1,images/Ex2.jpg,left,training,hard,1,,,,,
,,,,,5fa0803077c8550dcb24237d,001,22,non-binary,British,Masters,2024-03-05_22h20.37.211,CRL1h,2023.2.3,MacIntel,60.24096386,65e67470ae2fbf2172c317b2,65e79a91ddf0c6086907b516,,,,,,,,,,,573.2602,1,574.2596,574.2596,574.8755,left,1,0.6038,,574.8756,575.8763,0,3,3,3,1,total,1,images/Ex4.jpg,left,training,hard,1,,,,,
,,,,,5fa0803077c8550dcb24237d,001,22,non-binary,British,Masters,2024-03-05_22h20.37.211,CRL1h,2023.2.3,MacIntel,60.24096386,65e67470ae2fbf2172c317b2,65e79a91ddf0c6086907b516,,,,,,,,,,,575.877,1.4,577.2762,577.2764,577.909,right,0,0.6205,,577.909,578.9098,0,4,4,10,1,total,1,images/Ex3.jpg,left,training,hard,1,,,,,
,,,,,5fa0803077c8550dcb24237d,001,22,non-binary,British,Masters,2024-03-05_22h20.37.211,CRL1h,2023.2.3,MacIntel,60.24096386,65e67470ae2fbf2172c317b2,65e79a91ddf0c6086907b516,,,,,,,,,,,578.9103,0.9,579.8097,579.8097,580.426,left,0,0.6134,,580.426,581.4265,0,5,5,13,1,total,1,images/Ex6.jpg,right,training,hard,1,,,,,
,,,,,5fa0803077c8550dcb24237d,001,22,non-binary,British,Masters,2024-03-05_22h20.37.211,CRL1h,2023.2.3,MacIntel,60.24096386,65e67470ae2fbf2172c317b2,65e79a91ddf0c6086907b516,,,,,,,,,,,581.427,1.3,582.7266,582.7267,583.4601,right,1,0.7227,,583.4602,584.46,0,6,6,14,1,total,1,images/Ex7.jpg,right,training,hard,1,,,,,
,,,,,5fa0803077c8550dcb24237d,001,22,non-binary,British,Masters,2024-03-05_22h20.37.211,CRL1h,2023.2.3,MacIntel,60.24096386,65e67470ae2fbf2172c317b2,65e79a91ddf0c6086907b516,,,,,,,,,,,584.4606,1.4,585.8595,585.8595,586.3258,right,1,0.4541,,586.3259,587.3268,0,7,7,15,1,total,1,images/Ex8.jpg,right,training,hard,1,,,,,
,,,,,5fa0803077c8550dcb24237d,001,22,non-binary,British,Masters,2024-03-05_22h20.37.211,CRL1h,2023.2.3,MacIntel,60.24096386,65e67470ae2fbf2172c317b2,65e79a91ddf0c6086907b516,,,,,,,,,,,587.3274,0.5,587.8267,587.8268,588.3269,right,1,0.4869,,588.327,589.3264,0,8,8,6,1,total,1,images/Ex7.jpg,right,training,hard,1,,,,,
,,,,,5fa0803077c8550dcb24237d,001,22,non-binary,British,Masters,2024-03-05_22h20.37.211,CRL1h,2023.2.3,MacIntel,60.24096386,65e67470ae2fbf2172c317b2,65e79a91ddf0c6086907b516,,,,,,,,,,,589.327,1,590.3269,590.327,590.9596,left,1,0.6193,,590.9597,591.9593,0,9,9,0,1,total,1,images/Ex1.jpg,left,training,hard,1,,,,,
,,,,,5fa0803077c8550dcb24237d,001,22,non-binary,British,Masters,2024-03-05_22h20.37.211,CRL1h,2023.2.3,MacIntel,60.24096386,65e67470ae2fbf2172c317b2,65e79a91ddf0c6086907b516,,,,,,,,,,,591.9599,1.1,593.0603,593.0604,593.5433,right,0,0.4699,,593.5433,594.5437,0,10,10,11,1,total,1,images/Ex4.jpg,left,training,hard,1,,,,,
,,,,,5fa0803077c8550dcb24237d,001,22,non-binary,British,Masters,2024-03-05_22h20.37.211,CRL1h,2023.2.3,MacIntel,60.24096386,65e67470ae2fbf2172c317b2,65e79a91ddf0c6086907b516,,,,,,,,,,,594.5445,1.3,595.8437,595.8438,596.2762,left,0,0.4201,,596.2762,597.2771,0,11,11,4,1,total,1,images/Ex5.jpg,right,training,hard,1,,,,,
,,,,,5fa0803077c8550dcb24237d,001,22,non-binary,British,Masters,2024-03-05_22h20.37.211,CRL1h,2023.2.3,MacIntel,60.24096386,65e67470ae2fbf2172c317b2,65e79a91ddf0c6086907b516,,,,,,,,,,,597.2777,0.9,598.1763,598.1764,598.7104,right,0,0.5214,,598.7105,599.7095,0,12,12,1,1,total,1,images/Ex2.jpg,left,training,hard,1,,,,,
,,,,,5fa0803077c8550dcb24237d,001,22,non-binary,British,Masters,2024-03-05_22h20.37.211,CRL1h,2023.2.3,MacIntel,60.24096386,65e67470ae2fbf2172c317b2,65e79a91ddf0c6086907b516,,,,,,,,,,,599.7101,1.1,600.8095,600.8096,601.7439,left,0,0.9227,,601.7439,602.7438,0,13,13,7,1,total,1,images/Ex8.jpg,right,training,hard,1,,,,,
,,,,,5fa0803077c8550dcb24237d,001,22,non-binary,British,Masters,2024-03-05_22h20.37.211,CRL1h,2023.2.3,MacIntel,60.24096386,65e67470ae2fbf2172c317b2,65e79a91ddf0c6086907b516,,,,,,,,,,,602.7443,1,603.7439,603.7439,604.3273,right,0,0.5806,,604.3274,605.3274,0,14,14,8,1,total,1,images/Ex1.jpg,left,training,hard,1,,,,,
,,,,,5fa0803077c8550dcb24237d,001,22,non-binary,British,Masters,2024-03-05_22h20.37.211,CRL1h,2023.2.3,MacIntel,60.24096386,65e67470ae2fbf2172c317b2,65e79a91ddf0c6086907b516,,,,,,,,,,,605.328,0.6,605.9273,605.9273,606.7103,right,1,0.7799,,606.7103,607.7107,0,15,15,5,1,total,1,images/Ex6.jpg,right,training,hard,1,,,,,
,,,,,5fa0803077c8550dcb24237d,001,22,non-binary,British,Masters,2024-03-05_22h20.37.211,CRL1h,2023.2.3,MacIntel,60.24096386,65e67470ae2fbf2172c317b2,65e79a91ddf0c6086907b516,,,,,,,,,,,607.7114,1.2,608.9097,608.9098,609.2776,right,1,0.3571,,609.2776,610.2776,1,0,16,5,1,total,1,images/Ex6.jpg,right,training,hard,1,,,,,
,,,,,5fa0803077c8550dcb24237d,001,22,non-binary,British,Masters,2024-03-05_22h20.37.211,CRL1h,2023.2.3,MacIntel,60.24096386,65e67470ae2fbf2172c317b2,65e79a91ddf0c6086907b516,,,,,,,,,,,610.2781,0.9,611.1776,611.1777,611.5944,right,1,0.404,,611.5945,612.5943,1,1,17,13,1,total,1,images/Ex6.jpg,right,training,hard,1,,,,,
,,,,,5fa0803077c8550dcb24237d,001,22,non-binary,British,Masters,2024-03-05_22h20.37.211,CRL1h,2023.2.3,MacIntel,60.24096386,65e67470ae2fbf2172c317b2,65e79a91ddf0c6086907b516,,,,,,,,,,,612.5949,1.4,613.9947,613.9947,614.8276,right,1,0.82,,614.8277,615.8276,1,2,18,12,1,total,1,images/Ex5.jpg,right,training,hard,1,,,,,
,,,,,5fa0803077c8550dcb24237d,001,22,non-binary,British,Masters,2024-03-05_22h20.37.211,CRL1h,2023.2.3,MacIntel,60.24096386,65e67470ae2fbf2172c317b2,65e79a91ddf0c6086907b516,,,,,,,,,,,615.8283,0.7,616.5267,616.5267,617.0279,right,1,0.4902,,617.0279,618.0278,1,3,19,4,1,total,1,images/Ex5.jpg,right,training,hard,1,,,,,
,,,,,5fa0803077c8550dcb24237d,001,22,non-binary,British,Masters,2024-03-05_22h20.37.211,CRL1h,2023.2.3,MacIntel,60.24096386,65e67470ae2fbf2172c317b2,65e79a91ddf0c6086907b516,,,,,,,,,,,618.0284,1.2,619.2279,619.2279,619.6608,left,1,0.4221,,619.6608,620.6612,1,4,20,8,1,total,1,images/Ex1.jpg,left,training,hard,1,,,,,
,,,,,5fa0803077c8550dcb24237d,001,22,non-binary,British,Masters,2024-03-05_22h20.37.211,CRL1h,2023.2.3,MacIntel,60.24096386,65e67470ae2fbf2172c317b2,65e79a91ddf0c6086907b516,,,,,,,,,,,620.6618,0.6,621.2608,621.2608,621.9782,left,1,0.7043,,621.9783,622.978,1,5,21,2,1,total,1,images/Ex3.jpg,left,training,hard,1,,,,,
,,,,,5fa0803077c8550dcb24237d,001,22,non-binary,British,Masters,2024-03-05_22h20.37.211,CRL1h,2023.2.3,MacIntel,60.24096386,65e67470ae2fbf2172c317b2,65e79a91ddf0c6086907b516,,,,,,,,,,,622.9786,0.8,623.778,623.7781,624.3937,right,0,0.6039,,624.3938,625.395,1,6,22,3,1,total,1,images/Ex4.jpg,left,training,hard,1,,,,,
,,,,,5fa0803077c8550dcb24237d,001,22,non-binary,British,Masters,2024-03-05_22h20.37.211,CRL1h,2023.2.3,MacIntel,60.24096386,65e67470ae2fbf2172c317b2,65e79a91ddf0c6086907b516,,,,,,,,,,,625.3956,1.3,626.6951,626.6951,627.3273,right,1,0.6196,,627.3273,628.328,1,7,23,6,1,total,1,images/Ex7.jpg,right,training,hard,1,,,,,
,,,,,5fa0803077c8550dcb24237d,001,22,non-binary,British,Masters,2024-03-05_22h20.37.211,CRL1h,2023.2.3,MacIntel,60.24096386,65e67470ae2fbf2172c317b2,65e79a91ddf0c6086907b516,,,,,,,,,,,628.3286,0.6,628.9272,628.9272,629.9282,left,1,0.9992,,629.9283,630.9283,1,8,24,9,1,total,1,images/Ex2.jpg,left,training,hard,1,,,,,
,,,,,5fa0803077c8550dcb24237d,001,22,non-binary,British,Masters,2024-03-05_22h20.37.211,CRL1h,2023.2.3,MacIntel,60.24096386,65e67470ae2fbf2172c317b2,65e79a91ddf0c6086907b516,,,,,,,,,,,630.9289,1.2,632.1285,632.1286,632.9117,left,1,0.7741,,632.9117,633.9117,1,9,25,10,1,total,1,images/Ex3.jpg,left,training,hard,1,,,,,
,,,,,5fa0803077c8550dcb24237d,001,22,non-binary,British,Masters,2024-03-05_22h20.37.211,CRL1h,2023.2.3,MacIntel,60.24096386,65e67470ae2fbf2172c317b2,65e79a91ddf0c6086907b516,,,,,,,,,,,633.9123,1.2,635.1113,635.1114,635.5787,right,0,0.454,,635.5788,636.5784,1,10,26,11,1,total,1,images/Ex4.jpg,left,training,hard,1,,,,,
,,,,,5fa0803077c8550dcb24237d,001,22,non-binary,British,Masters,2024-03-05_22h20.37.211,CRL1h,2023.2.3,MacIntel,60.24096386,65e67470ae2fbf2172c317b2,65e79a91ddf0c6086907b516,,,,,,,,,,,636.5789,1.4,637.9785,637.9786,638.661,right,0,0.6694,,638.6611,639.6615,1,11,27,1,1,total,1,images/Ex2.jpg,left,training,hard,1,,,,,
,,,,,5fa0803077c8550dcb24237d,001,22,non-binary,British,Masters,2024-03-05_22h20.37.211,CRL1h,2023.2.3,MacIntel,60.24096386,65e67470ae2fbf2172c317b2,65e79a91ddf0c6086907b516,,,,,,,,,,,639.6621,1.1,640.7617,640.7617,642.2954,right,1,1.5216,,642.2955,643.2955,1,12,28,7,1,total,1,images/Ex8.jpg,right,training,hard,1,,,,,
,,,,,5fa0803077c8550dcb24237d,001,22,non-binary,British,Masters,2024-03-05_22h20.37.211,CRL1h,2023.2.3,MacIntel,60.24096386,65e67470ae2fbf2172c317b2,65e79a91ddf0c6086907b516,,,,,,,,,,,643.2962,0.8,644.0952,644.0954,645.179,right,1,1.0708,,645.179,646.1778,1,13,29,14,1,total,1,images/Ex7.jpg,right,training,hard,1,,,,,
,,,,,5fa0803077c8550dcb24237d,001,22,non-binary,British,Masters,2024-03-05_22h20.37.211,CRL1h,2023.2.3,MacIntel,60.24096386,65e67470ae2fbf2172c317b2,65e79a91ddf0c6086907b516,,,,,,,,,,,646.1786,0.6,646.7787,646.7788,647.2956,left,1,0.5036,,647.2957,648.2956,1,14,30,0,1,total,1,images/Ex1.jpg,left,training,hard,1,,,,,
,,,,,5fa0803077c8550dcb24237d,001,22,non-binary,British,Masters,2024-03-05_22h20.37.211,CRL1h,2023.2.3,MacIntel,60.24096386,65e67470ae2fbf2172c317b2,65e79a91ddf0c6086907b516,,,,,,,,,,,648.2961,1.1,649.3955,649.3955,650.278,right,1,0.871,,650.278,651.2779,1,15,31,15,1,total,1,images/Ex8.jpg,right,training,hard,1,,,,,
,,,,,5fa0803077c8550dcb24237d,001,22,non-binary,British,Masters,2024-03-05_22h20.37.211,CRL1h,2023.2.3,MacIntel,60.24096386,65e67470ae2fbf2172c317b2,65e79a91ddf0c6086907b516,,,,,,,,,,,651.2785,1.3,652.579,652.5791,653.2791,left,0,0.6917,,653.2791,654.279,2,0,32,7,1,total,1,images/Ex8.jpg,right,training,hard,1,,,,,
,,,,,5fa0803077c8550dcb24237d,001,22,non-binary,British,Masters,2024-03-05_22h20.37.211,CRL1h,2023.2.3,MacIntel,60.24096386,65e67470ae2fbf2172c317b2,65e79a91ddf0c6086907b516,,,,,,,,,,,654.2798,0.7,654.9791,654.9792,655.4792,right,0,0.487,,655.4793,656.4791,2,1,33,1,1,total,1,images/Ex2.jpg,left,training,hard,1,,,,,
,,,,,5fa0803077c8550dcb24237d,001,22,non-binary,British,Masters,2024-03-05_22h20.37.211,CRL1h,2023.2.3,MacIntel,60.24096386,65e67470ae2fbf2172c317b2,65e79a91ddf0c6086907b516,,,,,,,,,,,656.4797,0.9,657.3791,657.3792,657.9792,left,1,0.5979,,657.9793,658.9792,2,2,34,8,1,total,1,images/Ex1.jpg,left,training,hard,1,,,,,
,,,,,5fa0803077c8550dcb24237d,001,22,non-binary,British,Masters,2024-03-05_22h20.37.211,CRL1h,2023.2.3,MacIntel,60.24096386,65e67470ae2fbf2172c317b2,65e79a91ddf0c6086907b516,,,,,,,,,,,658.9798,1.1,660.0792,660.0793,660.7784,left,0,0.6876,,660.7785,661.7788,2,3,35,14,1,total,1,images/Ex7.jpg,right,training,hard,1,,,,,
,,,,,5fa0803077c8550dcb24237d,001,22,non-binary,British,Masters,2024-03-05_22h20.37.211,CRL1h,2023.2.3,MacIntel,60.24096386,65e67470ae2fbf2172c317b2,65e79a91ddf0c6086907b516,,,,,,,,,,,661.7795,0.8,662.5794,662.5794,663.1122,right,1,0.5206,,663.1122,664.1129,2,4,36,15,1,total,1,images/Ex8.jpg,right,training,hard,1,,,,,
,,,,,5fa0803077c8550dcb24237d,001,22,non-binary,British,Masters,2024-03-05_22h20.37.211,CRL1h,2023.2.3,MacIntel,60.24096386,65e67470ae2fbf2172c317b2,65e79a91ddf0c6086907b516,,,,,,,,,,,664.1137,0.7,664.8127,664.8127,665.4796,right,0,0.6591,,665.4797,666.4786,2,5,37,11,1,total,1,images/Ex4.jpg,left,training,hard,1,,,,,
,,,,,5fa0803077c8550dcb24237d,001,22,non-binary,British,Masters,2024-03-05_22h20.37.211,CRL1h,2023.2.3,MacIntel,60.24096386,65e67470ae2fbf2172c317b2,65e79a91ddf0c6086907b516,,,,,,,,,,,666.4792,1.4,667.8786,667.8787,668.5464,right,1,0.6566,,668.5464,669.5461,2,6,38,12,1,total,1,images/Ex5.jpg,right,training,hard,1,,,,,
,,,,,5fa0803077c8550dcb24237d,001,22,non-binary,British,Masters,2024-03-05_22h20.37.211,CRL1h,2023.2.3,MacIntel,60.24096386,65e67470ae2fbf2172c317b2,65e79a91ddf0c6086907b516,,,,,,,,,,,669.5466,0.5,670.0463,670.0464,671.1298,right,0,1.0744,,671.1298,672.1297,2,7,39,9,1,total,1,images/Ex2.jpg,left,training,hard,1,,,,,
,,,,,5fa0803077c8550dcb24237d,001,22,non-binary,British,Masters,2024-03-05_22h20.37.211,CRL1h,2023.2.3,MacIntel,60.24096386,65e67470ae2fbf2172c317b2,65e79a91ddf0c6086907b516,,,,,,,,,,,672.1304,0.8,672.9298,672.9299,673.9788,right,1,1.0371,,673.9789,674.9788,2,8,40,5,1,total,1,images/Ex6.jpg,right,training,hard,1,,,,,
,,,,,5fa0803077c8550dcb24237d,001,22,non-binary,British,Masters,2024-03-05_22h20.37.211,CRL1h,2023.2.3,MacIntel,60.24096386,65e67470ae2fbf2172c317b2,65e79a91ddf0c6086907b516,,,,,,,,,,,674.9795,1,675.9799,675.9799,676.6632,right,1,0.6817,,676.6632,677.6631,2,9,41,13,1,total,1,images/Ex6.jpg,right,training,hard,1,,,,,
,,,,,5fa0803077c8550dcb24237d,001,22,non-binary,British,Masters,2024-03-05_22h20.37.211,CRL1h,2023.2.3,MacIntel,60.24096386,65e67470ae2fbf2172c317b2,65e79a91ddf0c6086907b516,,,,,,,,,,,677.6637,1.4,679.0633,679.0633,679.8962,right,0,0.8243,,679.8962,680.897,2,10,42,3,1,total,1,images/Ex4.jpg,left,training,hard,1,,,,,
,,,,,5fa0803077c8550dcb24237d,001,22,non-binary,British,Masters,2024-03-05_22h20.37.211,CRL1h,2023.2.3,MacIntel,60.24096386,65e67470ae2fbf2172c317b2,65e79a91ddf0c6086907b516,,,,,,,,,,,680.8976,0.6,681.4968,681.4969,682.1967,left,1,0.6866,,682.1968,683.1968,2,11,43,2,1,total,1,images/Ex3.jpg,left,training,hard,1,,,,,
,,,,,5fa0803077c8550dcb24237d,001,22,non-binary,British,Masters,2024-03-05_22h20.37.211,CRL1h,2023.2.3,MacIntel,60.24096386,65e67470ae2fbf2172c317b2,65e79a91ddf0c6086907b516,,,,,,,,,,,683.1974,1.4,684.5967,684.5967,685.1127,left,1,0.5038,,685.1127,686.1137,2,12,44,0,1,total,1,images/Ex1.jpg,left,training,hard,1,,,,,
,,,,,5fa0803077c8550dcb24237d,001,22,non-binary,British,Masters,2024-03-05_22h20.37.211,CRL1h,2023.2.3,MacIntel,60.24096386,65e67470ae2fbf2172c317b2,65e79a91ddf0c6086907b516,,,,,,,,,,,686.1142,0.8,686.9136,686.9136,687.4794,left,0,0.5531,,687.4795,688.4802,2,13,45,4,1,total,1,images/Ex5.jpg,right,training,hard,1,,,,,
,,,,,5fa0803077c8550dcb24237d,001,22,non-binary,British,Masters,2024-03-05_22h20.37.211,CRL1h,2023.2.3,MacIntel,60.24096386,65e67470ae2fbf2172c317b2,65e79a91ddf0c6086907b516,,,,,,,,,,,688.4808,1,689.4803,689.4804,690.396,right,1,0.9035,,690.396,691.397,2,14,46,6,1,total,1,images/Ex7.jpg,right,training,hard,1,,,,,
,,,,,5fa0803077c8550dcb24237d,001,22,non-binary,British,Masters,2024-03-05_22h20.37.211,CRL1h,2023.2.3,MacIntel,60.24096386,65e67470ae2fbf2172c317b2,65e79a91ddf0c6086907b516,,,,,,,,,,,691.3977,0.8,692.197,692.197,692.8792,left,1,0.6798,,692.8793,693.8805,2,15,47,10,1,total,1,images/Ex3.jpg,left,training,hard,1,,,,,
,,,,,5fa0803077c8550dcb24237d,001,22,non-binary,British,Masters,2024-03-05_22h20.37.211,CRL1h,2023.2.3,MacIntel,60.24096386,65e67470ae2fbf2172c317b2,65e79a91ddf0c6086907b516,,,,,,,,,,,693.8811,0.6,694.4804,694.4805,695.3641,right,1,0.8706,,695.3641,696.3638,3,0,48,7,1,total,1,images/Ex8.jpg,right,training,hard,1,,,,,
,,,,,5fa0803077c8550dcb24237d,001,22,non-binary,British,Masters,2024-03-05_22h20.37.211,CRL1h,2023.2.3,MacIntel,60.24096386,65e67470ae2fbf2172c317b2,65e79a91ddf0c6086907b516,,,,,,,,,,,696.3645,0.5,696.8639,696.864,697.6134,left,1,0.7348,,697.6134,698.6139,3,1,49,9,1,total,1,images/Ex2.jpg,left,training,hard,1,,,,,
,,,,,5fa0803077c8550dcb24237d,001,22,non-binary,British,Masters,2024-03-05_22h20.37.211,CRL1h,2023.2.3,MacIntel,60.24096386,65e67470ae2fbf2172c317b2,65e79a91ddf0c6086907b516,,,,,,,,,,,698.6145,1.1,699.7143,699.7143,700.364,left,1,0.6395,,700.3642,701.364,3,2,50,2,1,total,1,images/Ex3.jpg,left,training,hard,1,,,,,
,,,,,5fa0803077c8550dcb24237d,001,22,non-binary,British,Masters,2024-03-05_22h20.37.211,CRL1h,2023.2.3,MacIntel,60.24096386,65e67470ae2fbf2172c317b2,65e79a91ddf0c6086907b516,,,,,,,,,,,701.3645,0.9,702.2641,702.2642,703.3142,left,0,1.0388,,703.3142,704.3141,3,3,51,6,1,total,1,images/Ex7.jpg,right,training,hard,1,,,,,
,,,,,5fa0803077c8550dcb24237d,001,22,non-binary,British,Masters,2024-03-05_22h20.37.211,CRL1h,2023.2.3,MacIntel,60.24096386,65e67470ae2fbf2172c317b2,65e79a91ddf0c6086907b516,,,,,,,,,,,704.3146,0.6,704.9142,704.9142,705.6809,right,0,0.7544,,705.681,706.6809,3,4,52,11,1,total,1,images/Ex4.jpg,left,training,hard,1,,,,,
,,,,,5fa0803077c8550dcb24237d,001,22,non-binary,British,Masters,2024-03-05_22h20.37.211,CRL1h,2023.2.3,MacIntel,60.24096386,65e67470ae2fbf2172c317b2,65e79a91ddf0c6086907b516,,,,,,,,,,,706.6815,1,707.6808,707.6809,708.2311,left,1,0.5484,,708.2312,709.2309,3,5,53,8,1,total,1,images/Ex1.jpg,left,training,hard,1,,,,,
,,,,,5fa0803077c8550dcb24237d,001,22,non-binary,British,Masters,2024-03-05_22h20.37.211,CRL1h,2023.2.3,MacIntel,60.24096386,65e67470ae2fbf2172c317b2,65e79a91ddf0c6086907b516,,,,,,,,,,,709.2315,0.9,710.1312,710.1312,710.6468,left,1,0.5053,,710.6469,711.6476,3,6,54,1,1,total,1,images/Ex2.jpg,left,training,hard,1,,,,,
,,,,,5fa0803077c8550dcb24237d,001,22,non-binary,British,Masters,2024-03-05_22h20.37.211,CRL1h,2023.2.3,MacIntel,60.24096386,65e67470ae2fbf2172c317b2,65e79a91ddf0c6086907b516,,,,,,,,,,,711.6482,1.3,712.9477,712.9477,713.3479,left,1,0.3873,,713.348,714.3477,3,7,55,10,1,total,1,images/Ex3.jpg,left,training,hard,1,,,,,
,,,,,5fa0803077c8550dcb24237d,001,22,non-binary,British,Masters,2024-03-05_22h20.37.211,CRL1h,2023.2.3,MacIntel,60.24096386,65e67470ae2fbf2172c317b2,65e79a91ddf0c6086907b516,,,,,,,,,,,714.3484,1.1,715.4469,715.4469,716.4313,right,1,0.9758,,716.4314,717.4313,3,8,56,15,1,total,1,images/Ex8.jpg,right,training,hard,1,,,,,
,,,,,5fa0803077c8550dcb24237d,001,22,non-binary,British,Masters,2024-03-05_22h20.37.211,CRL1h,2023.2.3,MacIntel,60.24096386,65e67470ae2fbf2172c317b2,65e79a91ddf0c6086907b516,,,,,,,,,,,717.4319,0.9,718.3315,718.3316,718.8478,left,1,0.5039,,718.8479,719.848,3,9,57,3,1,total,1,images/Ex4.jpg,left,training,hard,1,,,,,
,,,,,5fa0803077c8550dcb24237d,001,22,non-binary,British,Masters,2024-03-05_22h20.37.211,CRL1h,2023.2.3,MacIntel,60.24096386,65e67470ae2fbf2172c317b2,65e79a91ddf0c6086907b516,,,,,,,,,,,719.8486,0.7,720.5482,720.5482,720.9982,left,0,0.4371,,720.9983,721.9982,3,10,58,5,1,total,1,images/Ex6.jpg,right,training,hard,1,,,,,
,,,,,5fa0803077c8550dcb24237d,001,22,non-binary,British,Masters,2024-03-05_22h20.37.211,CRL1h,2023.2.3,MacIntel,60.24096386,65e67470ae2fbf2172c317b2,65e79a91ddf0c6086907b516,,,,,,,,,,,721.9988,1.1,723.0982,723.0983,723.748,right,1,0.6485,,723.7481,724.7481,3,11,59,12,1,total,1,images/Ex5.jpg,right,training,hard,1,,,,,
,,,,,5fa0803077c8550dcb24237d,001,22,non-binary,British,Masters,2024-03-05_22h20.37.211,CRL1h,2023.2.3,MacIntel,60.24096386,65e67470ae2fbf2172c317b2,65e79a91ddf0c6086907b516,,,,,,,,,,,724.7487,1.1,725.8471,725.8472,726.4319,left,1,0.5734,,726.4319,727.4316,3,12,60,0,1,total,1,images/Ex1.jpg,left,training,hard,1,,,,,
,,,,,5fa0803077c8550dcb24237d,001,22,non-binary,British,Masters,2024-03-05_22h20.37.211,CRL1h,2023.2.3,MacIntel,60.24096386,65e67470ae2fbf2172c317b2,65e79a91ddf0c6086907b516,,,,,,,,,,,727.4323,0.6,728.0317,728.0317,729.0487,right,1,1.0035,,729.0489,730.0477,3,13,61,13,1,total,1,images/Ex6.jpg,right,training,hard,1,,,,,
,,,,,5fa0803077c8550dcb24237d,001,22,non-binary,British,Masters,2024-03-05_22h20.37.211,CRL1h,2023.2.3,MacIntel,60.24096386,65e67470ae2fbf2172c317b2,65e79a91ddf0c6086907b516,,,,,,,,,,,730.0485,1.4,731.4487,731.4487,731.9813,right,1,0.531,,731.9813,732.9812,3,14,62,4,1,total,1,images/Ex5.jpg,right,training,hard,1,,,,,
,,,,,5fa0803077c8550dcb24237d,001,22,non-binary,British,Masters,2024-03-05_22h20.37.211,CRL1h,2023.2.3,MacIntel,60.24096386,65e67470ae2fbf2172c317b2,65e79a91ddf0c6086907b516,,,,,,,,,,,732.9819,0.6,733.5819,733.5819,734.332,right,1,0.7394,,734.332,735.332,3,15,63,14,1,total,1,images/Ex7.jpg,right,training,hard,1,,,,,
,,,,,5fa0803077c8550dcb24237d,001,22,non-binary,British,Masters,2024-03-05_22h20.37.211,CRL1h,2023.2.3,MacIntel,60.24096386,65e67470ae2fbf2172c317b2,65e79a91ddf0c6086907b516,,,,,,,,,,,735.3326,0.7,736.0311,736.0311,736.5311,right,1,0.4876,,736.5311,737.5319,4,0,64,15,1,total,1,images/Ex8.jpg,right,training,hard,1,,,,,
,,,,,5fa0803077c8550dcb24237d,001,22,non-binary,British,Masters,2024-03-05_22h20.37.211,CRL1h,2023.2.3,MacIntel,60.24096386,65e67470ae2fbf2172c317b2,65e79a91ddf0c6086907b516,,,,,,,,,,,737.5325,1,738.5322,738.5323,739.2156,right,1,0.6818,,739.2157,740.2153,4,1,65,13,1,total,1,images/Ex6.jpg,right,training,hard,1,,,,,
,,,,,5fa0803077c8550dcb24237d,001,22,non-binary,British,Masters,2024-03-05_22h20.37.211,CRL1h,2023.2.3,MacIntel,60.24096386,65e67470ae2fbf2172c317b2,65e79a91ddf0c6086907b516,,,,,,,,,,,740.2158,1,741.2156,741.2156,741.8155,left,1,0.5862,,741.8156,742.8154,4,2,66,8,1,total,1,images/Ex1.jpg,left,training,hard,1,,,,,
,,,,,5fa0803077c8550dcb24237d,001,22,non-binary,British,Masters,2024-03-05_22h20.37.211,CRL1h,2023.2.3,MacIntel,60.24096386,65e67470ae2fbf2172c317b2,65e79a91ddf0c6086907b516,,,,,,,,,,,742.8162,1,743.8155,743.8155,744.4159,left,1,0.5868,,744.4159,745.4155,4,3,67,0,1,total,1,images/Ex1.jpg,left,training,hard,1,,,,,
,,,,,5fa0803077c8550dcb24237d,001,22,non-binary,British,Masters,2024-03-05_22h20.37.211,CRL1h,2023.2.3,MacIntel,60.24096386,65e67470ae2fbf2172c317b2,65e79a91ddf0c6086907b516,,,,,,,,,,,745.416,1.1,746.5157,746.5158,746.966,right,0,0.4363,,746.9661,747.9657,4,4,68,3,1,total,1,images/Ex4.jpg,left,training,hard,1,,,,,
,,,,,5fa0803077c8550dcb24237d,001,22,non-binary,British,Masters,2024-03-05_22h20.37.211,CRL1h,2023.2.3,MacIntel,60.24096386,65e67470ae2fbf2172c317b2,65e79a91ddf0c6086907b516,,,,,,,,,,,747.9663,0.7,748.6656,748.6657,749.1991,left,1,0.5313,,749.1991,750.1982,4,5,69,10,1,total,1,images/Ex3.jpg,left,training,hard,1,,,,,
,,,,,5fa0803077c8550dcb24237d,001,22,non-binary,British,Masters,2024-03-05_22h20.37.211,CRL1h,2023.2.3,MacIntel,60.24096386,65e67470ae2fbf2172c317b2,65e79a91ddf0c6086907b516,,,,,,,,,,,750.1989,1.4,751.5991,751.5992,752.2662,right,1,0.653,,752.2663,753.2659,4,6,70,14,1,total,1,images/Ex7.jpg,right,training,hard,1,,,,,
,,,,,5fa0803077c8550dcb24237d,001,22,non-binary,British,Masters,2024-03-05_22h20.37.211,CRL1h,2023.2.3,MacIntel,60.24096386,65e67470ae2fbf2172c317b2,65e79a91ddf0c6086907b516,,,,,,,,,,,753.2664,0.7,753.9648,753.9648,754.5154,right,1,0.5485,,754.5154,755.5159,4,7,71,4,1,total,1,images/Ex5.jpg,right,training,hard,1,,,,,
,,,,,5fa0803077c8550dcb24237d,001,22,non-binary,British,Masters,2024-03-05_22h20.37.211,CRL1h,2023.2.3,MacIntel,60.24096386,65e67470ae2fbf2172c317b2,65e79a91ddf0c6086907b516,,,,,,,,,,,755.5164,0.8,756.3159,756.3161,756.982,left,1,0.6548,,756.9821,757.9826,4,8,72,1,1,total,1,images/Ex2.jpg,left,training,hard,1,,,,,
,,,,,5fa0803077c8550dcb24237d,001,22,non-binary,British,Masters,2024-03-05_22h20.37.211,CRL1h,2023.2.3,MacIntel,60.24096386,65e67470ae2fbf2172c317b2,65e79a91ddf0c6086907b516,,,,,,,,,,,757.9833,1.1,759.0827,759.0828,759.6662,right,1,0.5702,,759.6663,760.6661,4,9,73,12,1,total,1,images/Ex5.jpg,right,training,hard,1,,,,,
,,,,,5fa0803077c8550dcb24237d,001,22,non-binary,British,Masters,2024-03-05_22h20.37.211,CRL1h,2023.2.3,MacIntel,60.24096386,65e67470ae2fbf2172c317b2,65e79a91ddf0c6086907b516,,,,,,,,,,,760.6666,0.6,761.2652,761.2653,761.9821,left,0,0.7048,,761.9822,762.982,4,10,74,7,1,total,1,images/Ex8.jpg,right,training,hard,1,,,,,
,,,,,5fa0803077c8550dcb24237d,001,22,non-binary,British,Masters,2024-03-05_22h20.37.211,CRL1h,2023.2.3,MacIntel,60.24096386,65e67470ae2fbf2172c317b2,65e79a91ddf0c6086907b516,,,,,,,,,,,762.9826,0.6,763.5831,763.5831,764.2666,right,1,0.6694,,764.2667,765.2657,4,11,75,5,1,total,1,images/Ex6.jpg,right,training,hard,1,,,,,
,,,,,5fa0803077c8550dcb24237d,001,22,non-binary,British,Masters,2024-03-05_22h20.37.211,CRL1h,2023.2.3,MacIntel,60.24096386,65e67470ae2fbf2172c317b2,65e79a91ddf0c6086907b516,,,,,,,,,,,765.2659,0.7,765.9664,765.9664,766.5165,right,0,0.5392,,766.5166,767.5164,4,12,76,11,1,total,1,images/Ex4.jpg,left,training,hard,1,,,,,
,,,,,5fa0803077c8550dcb24237d,001,22,non-binary,British,Masters,2024-03-05_22h20.37.211,CRL1h,2023.2.3,MacIntel,60.24096386,65e67470ae2fbf2172c317b2,65e79a91ddf0c6086907b516,,,,,,,,,,,767.517,0.6,768.1162,768.1162,768.6996,right,1,0.5819,,768.6996,769.6998,4,13,77,6,1,total,1,images/Ex7.jpg,right,training,hard,1,,,,,
,,,,,5fa0803077c8550dcb24237d,001,22,non-binary,British,Masters,2024-03-05_22h20.37.211,CRL1h,2023.2.3,MacIntel,60.24096386,65e67470ae2fbf2172c317b2,65e79a91ddf0c6086907b516,,,,,,,,,,,769.7005,0.5,770.1991,770.1992,770.8666,left,1,0.6551,,770.8667,771.8665,4,14,78,9,1,total,1,images/Ex2.jpg,left,training,hard,1,,,,,
,,,,,5fa0803077c8550dcb24237d,001,22,non-binary,British,Masters,2024-03-05_22h20.37.211,CRL1h,2023.2.3,MacIntel,60.24096386,65e67470ae2fbf2172c317b2,65e79a91ddf0c6086907b516,,,,,,,,,,,771.867,1.3,773.1664,773.1664,773.6999,left,1,0.5204,,773.7,774.7,4,15,79,2,1,total,1,images/Ex3.jpg,left,training,hard,1,,,,,
,,,,,5fa0803077c8550dcb24237d,001,22,non-binary,British,Masters,2024-03-05_22h20.37.211,CRL1h,2023.2.3,MacIntel,60.24096386,65e67470ae2fbf2172c317b2,65e79a91ddf0c6086907b516,,,,,,,,,,,774.7007,1,775.7,775.7,776.2668,left,0,0.5552,,776.2669,777.2668,5,0,80,5,1,total,1,images/Ex6.jpg,right,training,hard,1,,,,,
,,,,,5fa0803077c8550dcb24237d,001,22,non-binary,British,Masters,2024-03-05_22h20.37.211,CRL1h,2023.2.3,MacIntel,60.24096386,65e67470ae2fbf2172c317b2,65e79a91ddf0c6086907b516,,,,,,,,,,,777.2674,0.8,778.0667,778.0669,778.5159,right,1,0.4374,,778.5159,779.5167,5,1,81,13,1,total,1,images/Ex6.jpg,right,training,hard,1,,,,,
,,,,,5fa0803077c8550dcb24237d,001,22,non-binary,British,Masters,2024-03-05_22h20.37.211,CRL1h,2023.2.3,MacIntel,60.24096386,65e67470ae2fbf2172c317b2,65e79a91ddf0c6086907b516,,,,,,,,,,,779.5172,0.5,780.0168,780.0168,780.9836,right,0,0.9544,,780.9837,781.9833,5,2,82,11,1,total,1,images/Ex4.jpg,left,training,hard,1,,,,,
,,,,,5fa0803077c8550dcb24237d,001,22,non-binary,British,Masters,2024-03-05_22h20.37.211,CRL1h,2023.2.3,MacIntel,60.24096386,65e67470ae2fbf2172c317b2,65e79a91ddf0c6086907b516,,,,,,,,,,,781.9838,0.9,782.8835,782.8835,783.4669,right,1,0.5821,,783.467,784.4669,5,3,83,6,1,total,1,images/Ex7.jpg,right,training,hard,1,,,,,
,,,,,5fa0803077c8550dcb24237d,001,22,non-binary,British,Masters,2024-03-05_22h20.37.211,CRL1h,2023.2.3,MacIntel,60.24096386,65e67470ae2fbf2172c317b2,65e79a91ddf0c6086907b516,,,,,,,,,,,784.4675,0.9,785.3669,785.367,785.8331,left,0,0.4639,,785.8332,786.8329,5,4,84,12,1,total,1,images/Ex5.jpg,right,training,hard,1,,,,,
,,,,,5fa0803077c8550dcb24237d,001,22,non-binary,British,Masters,2024-03-05_22h20.37.211,CRL1h,2023.2.3,MacIntel,60.24096386,65e67470ae2fbf2172c317b2,65e79a91ddf0c6086907b516,,,,,,,,,,,786.8335,1.1,787.9336,787.9337,788.4505,left,1,0.5027,,788.4507,789.4505,5,5,85,0,1,total,1,images/Ex1.jpg,left,training,hard,1,,,,,
,,,,,5fa0803077c8550dcb24237d,001,22,non-binary,British,Masters,2024-03-05_22h20.37.211,CRL1h,2023.2.3,MacIntel,60.24096386,65e67470ae2fbf2172c317b2,65e79a91ddf0c6086907b516,,,,,,,,,,,789.4511,0.6,790.0504,790.0505,790.5839,right,1,0.5203,,790.584,791.5839,5,6,86,4,1,total,1,images/Ex5.jpg,right,training,hard,1,,,,,
,,,,,5fa0803077c8550dcb24237d,001,22,non-binary,British,Masters,2024-03-05_22h20.37.211,CRL1h,2023.2.3,MacIntel,60.24096386,65e67470ae2fbf2172c317b2,65e79a91ddf0c6086907b516,,,,,,,,,,,791.5846,0.8,792.3839,792.384,792.9838,left,1,0.5873,,792.9839,793.984,5,7,87,3,1,total,1,images/Ex4.jpg,left,training,hard,1,,,,,
,,,,,5fa0803077c8550dcb24237d,001,22,non-binary,British,Masters,2024-03-05_22h20.37.211,CRL1h,2023.2.3,MacIntel,60.24096386,65e67470ae2fbf2172c317b2,65e79a91ddf0c6086907b516,,,,,,,,,,,793.9845,1.1,795.084,795.084,795.7178,left,1,0.632,,795.7179,796.7172,5,8,88,9,1,total,1,images/Ex2.jpg,left,training,hard,1,,,,,
,,,,,5fa0803077c8550dcb24237d,001,22,non-binary,British,Masters,2024-03-05_22h20.37.211,CRL1h,2023.2.3,MacIntel,60.24096386,65e67470ae2fbf2172c317b2,65e79a91ddf0c6086907b516,,,,,,,,,,,796.718,0.7,797.4173,797.4173,798.0008,left,1,0.5703,,798.0008,799.0007,5,9,89,8,1,total,1,images/Ex1.jpg,left,training,hard,1,,,,,
,,,,,5fa0803077c8550dcb24237d,001,22,non-binary,British,Masters,2024-03-05_22h20.37.211,CRL1h,2023.2.3,MacIntel,60.24096386,65e67470ae2fbf2172c317b2,65e79a91ddf0c6086907b516,,,,,,,,,,,799.0013,0.6,799.6007,799.6008,800.0343,left,0,0.4206,,800.0343,801.0342,5,10,90,7,1,total,1,images/Ex8.jpg,right,training,hard,1,,,,,
,,,,,5fa0803077c8550dcb24237d,001,22,non-binary,British,Masters,2024-03-05_22h20.37.211,CRL1h,2023.2.3,MacIntel,60.24096386,65e67470ae2fbf2172c317b2,65e79a91ddf0c6086907b516,,,,,,,,,,,801.0347,1,802.0343,802.0344,802.6337,right,1,0.5872,,802.6337,803.6343,5,11,91,15,1,total,1,images/Ex8.jpg,right,training,hard,1,,,,,
,,,,,5fa0803077c8550dcb24237d,001,22,non-binary,British,Masters,2024-03-05_22h20.37.211,CRL1h,2023.2.3,MacIntel,60.24096386,65e67470ae2fbf2172c317b2,65e79a91ddf0c6086907b516,,,,,,,,,,,803.6349,0.8,804.4342,804.4343,805.0337,right,1,0.5877,,805.0338,806.0344,5,12,92,14,1,total,1,images/Ex7.jpg,right,training,hard,1,,,,,
,,,,,5fa0803077c8550dcb24237d,001,22,non-binary,British,Masters,2024-03-05_22h20.37.211,CRL1h,2023.2.3,MacIntel,60.24096386,65e67470ae2fbf2172c317b2,65e79a91ddf0c6086907b516,,,,,,,,,,,806.035,1.1,807.1344,807.1344,807.7345,left,1,0.5873,,807.7347,808.7338,5,13,93,1,1,total,1,images/Ex2.jpg,left,training,hard,1,,,,,
,,,,,5fa0803077c8550dcb24237d,001,22,non-binary,British,Masters,2024-03-05_22h20.37.211,CRL1h,2023.2.3,MacIntel,60.24096386,65e67470ae2fbf2172c317b2,65e79a91ddf0c6086907b516,,,,,,,,,,,808.7339,0.7,809.4345,809.4346,810.0846,left,1,0.6377,,810.0847,811.0846,5,14,94,10,1,total,1,images/Ex3.jpg,left,training,hard,1,,,,,
,,,,,5fa0803077c8550dcb24237d,001,22,non-binary,British,Masters,2024-03-05_22h20.37.211,CRL1h,2023.2.3,MacIntel,60.24096386,65e67470ae2fbf2172c317b2,65e79a91ddf0c6086907b516,,,,,,,,,,,811.0852,1.2,812.2845,812.2845,812.8014,left,1,0.5054,,812.8014,813.8005,5,15,95,2,1,total,1,images/Ex3.jpg,left,training,hard,1,,,,,
,,,,,5fa0803077c8550dcb24237d,001,22,non-binary,British,Masters,2024-03-05_22h20.37.211,CRL1h,2023.2.3,MacIntel,60.24096386,65e67470ae2fbf2172c317b2,65e79a91ddf0c6086907b516,,,,,,,,,,,813.8012,1.4,815.2005,815.2006,815.8839,left,1,0.6715,,815.8839,816.8847,6,0,96,3,1,total,1,images/Ex4.jpg,left,training,hard,1,,,,,
,,,,,5fa0803077c8550dcb24237d,001,22,non-binary,British,Masters,2024-03-05_22h20.37.211,CRL1h,2023.2.3,MacIntel,60.24096386,65e67470ae2fbf2172c317b2,65e79a91ddf0c6086907b516,,,,,,,,,,,816.8853,1,817.8846,817.8847,818.4516,left,1,0.5542,,818.4517,819.4515,6,1,97,9,1,total,1,images/Ex2.jpg,left,training,hard,1,,,,,
,,,,,5fa0803077c8550dcb24237d,001,22,non-binary,British,Masters,2024-03-05_22h20.37.211,CRL1h,2023.2.3,MacIntel,60.24096386,65e67470ae2fbf2172c317b2,65e79a91ddf0c6086907b516,,,,,,,,,,,819.452,1.1,820.5515,820.5515,821.2007,left,0,0.643,,821.2008,822.201,6,2,98,13,1,total,1,images/Ex6.jpg,right,training,hard,1,,,,,
,,,,,5fa0803077c8550dcb24237d,001,22,non-binary,British,Masters,2024-03-05_22h20.37.211,CRL1h,2023.2.3,MacIntel,60.24096386,65e67470ae2fbf2172c317b2,65e79a91ddf0c6086907b516,,,,,,,,,,,822.2016,1,823.2015,823.2016,823.7183,left,1,0.5148,,823.7184,824.7184,6,3,99,1,1,total,1,images/Ex2.jpg,left,training,hard,1,,,,,
,,,,,5fa0803077c8550dcb24237d,001,22,non-binary,British,Masters,2024-03-05_22h20.37.211,CRL1h,2023.2.3,MacIntel,60.24096386,65e67470ae2fbf2172c317b2,65e79a91ddf0c6086907b516,,,,,,,,,,,824.7191,0.5,825.2182,825.2183,826.1503,right,1,0.9184,,826.1503,827.1516,6,4,100,7,1,total,1,images/Ex8.jpg,right,training,hard,1,,,,,
,,,,,5fa0803077c8550dcb24237d,001,22,non-binary,British,Masters,2024-03-05_22h20.37.211,CRL1h,2023.2.3,MacIntel,60.24096386,65e67470ae2fbf2172c317b2,65e79a91ddf0c6086907b516,,,,,,,,,,,827.1523,1.2,828.3517,828.3517,829.3184,right,0,0.9554,,829.3184,830.3178,6,5,101,11,1,total,1,images/Ex4.jpg,left,training,hard,1,,,,,
,,,,,5fa0803077c8550dcb24237d,001,22,non-binary,British,Masters,2024-03-05_22h20.37.211,CRL1h,2023.2.3,MacIntel,60.24096386,65e67470ae2fbf2172c317b2,65e79a91ddf0c6086907b516,,,,,,,,,,,830.3185,0.7,831.0184,831.0186,831.5855,left,1,0.5522,,831.5856,832.5843,6,6,102,0,1,total,1,images/Ex1.jpg,left,training,hard,1,,,,,
,,,,,5fa0803077c8550dcb24237d,001,22,non-binary,British,Masters,2024-03-05_22h20.37.211,CRL1h,2023.2.3,MacIntel,60.24096386,65e67470ae2fbf2172c317b2,65e79a91ddf0c6086907b516,,,,,,,,,,,832.5849,1.3,833.8844,833.8845,834.5353,right,1,0.6411,,834.5355,835.5353,6,7,103,4,1,total,1,images/Ex5.jpg,right,training,hard,1,,,,,
,,,,,5fa0803077c8550dcb24237d,001,22,non-binary,British,Masters,2024-03-05_22h20.37.211,CRL1h,2023.2.3,MacIntel,60.24096386,65e67470ae2fbf2172c317b2,65e79a91ddf0c6086907b516,,,,,,,,,,,835.5358,1.1,836.6353,836.6353,837.4188,right,1,0.7717,,837.4188,838.4189,6,8,104,5,1,total,1,images/Ex6.jpg,right,training,hard,1,,,,,
,,,,,5fa0803077c8550dcb24237d,001,22,non-binary,British,Masters,2024-03-05_22h20.37.211,CRL1h,2023.2.3,MacIntel,60.24096386,65e67470ae2fbf2172c317b2,65e79a91ddf0c6086907b516,,,,,,,,,,,838.4195,0.6,839.0187,839.0188,839.6189,left,1,0.5874,,839.6189,840.6189,6,9,105,2,1,total,1,images/Ex3.jpg,left,training,hard,1,,,,,
,,,,,5fa0803077c8550dcb24237d,001,22,non-binary,British,Masters,2024-03-05_22h20.37.211,CRL1h,2023.2.3,MacIntel,60.24096386,65e67470ae2fbf2172c317b2,65e79a91ddf0c6086907b516,,,,,,,,,,,840.6195,1,841.6189,841.619,842.4856,right,1,0.8535,,842.4857,843.4854,6,10,106,6,1,total,1,images/Ex7.jpg,right,training,hard,1,,,,,
,,,,,5fa0803077c8550dcb24237d,001,22,non-binary,British,Masters,2024-03-05_22h20.37.211,CRL1h,2023.2.3,MacIntel,60.24096386,65e67470ae2fbf2172c317b2,65e79a91ddf0c6086907b516,,,,,,,,,,,843.4859,1.3,844.7856,844.7856,845.3849,right,1,0.5965,,845.3849,846.3859,6,11,107,12,1,total,1,images/Ex5.jpg,right,training,hard,1,,,,,
,,,,,5fa0803077c8550dcb24237d,001,22,non-binary,British,Masters,2024-03-05_22h20.37.211,CRL1h,2023.2.3,MacIntel,60.24096386,65e67470ae2fbf2172c317b2,65e79a91ddf0c6086907b516,,,,,,,,,,,846.3865,1.4,847.7859,847.7859,848.6025,right,1,0.8033,,848.6025,849.6024,6,12,108,15,1,total,1,images/Ex8.jpg,right,training,hard,1,,,,,
,,,,,5fa0803077c8550dcb24237d,001,22,non-binary,British,Masters,2024-03-05_22h20.37.211,CRL1h,2023.2.3,MacIntel,60.24096386,65e67470ae2fbf2172c317b2,65e79a91ddf0c6086907b516,,,,,,,,,,,849.603,1.3,850.9016,850.9016,851.5519,left,1,0.6381,,851.5519,852.5528,6,13,109,10,1,total,1,images/Ex3.jpg,left,training,hard,1,,,,,
,,,,,5fa0803077c8550dcb24237d,001,22,non-binary,British,Masters,2024-03-05_22h20.37.211,CRL1h,2023.2.3,MacIntel,60.24096386,65e67470ae2fbf2172c317b2,65e79a91ddf0c6086907b516,,,,,,,,,,,852.5534,1.4,853.9526,853.9526,854.5694,right,1,0.608,,854.5694,855.5694,6,14,110,14,1,total,1,images/Ex7.jpg,right,training,hard,1,,,,,
,,,,,5fa0803077c8550dcb24237d,001,22,non-binary,British,Masters,2024-03-05_22h20.37.211,CRL1h,2023.2.3,MacIntel,60.24096386,65e67470ae2fbf2172c317b2,65e79a91ddf0c6086907b516,,,,,,,,,,,855.5699,0.5,856.0693,856.0694,856.5863,left,1,0.5039,,856.5863,857.5862,6,15,111,8,1,total,1,images/Ex1.jpg,left,training,hard,1,,,,,
,,,,,5fa0803077c8550dcb24237d,001,22,non-binary,British,Masters,2024-03-05_22h20.37.211,CRL1h,2023.2.3,MacIntel,60.24096386,65e67470ae2fbf2172c317b2,65e79a91ddf0c6086907b516,,,,,,,,,,,857.5868,0.9,858.4861,858.4862,859.0527,left,1,0.5607,,859.0528,860.0529,7,0,112,1,1,total,1,images/Ex2.jpg,left,training,hard,1,,,,,
,,,,,5fa0803077c8550dcb24237d,001,22,non-binary,British,Masters,2024-03-05_22h20.37.211,CRL1h,2023.2.3,MacIntel,60.24096386,65e67470ae2fbf2172c317b2,65e79a91ddf0c6086907b516,,,,,,,,,,,860.0535,1.3,861.353,861.353,862.1863,left,1,0.821,,862.1863,863.1864,7,1,113,11,1,total,1,images/Ex4.jpg,left,training,hard,1,,,,,
,,,,,5fa0803077c8550dcb24237d,001,22,non-binary,British,Masters,2024-03-05_22h20.37.211,CRL1h,2023.2.3,MacIntel,60.24096386,65e67470ae2fbf2172c317b2,65e79a91ddf0c6086907b516,,,,,,,,,,,863.187,0.8,863.9864,863.9865,864.6531,left,1,0.6523,,864.6532,865.6521,7,2,114,10,1,total,1,images/Ex3.jpg,left,training,hard,1,,,,,
,,,,,5fa0803077c8550dcb24237d,001,22,non-binary,British,Masters,2024-03-05_22h20.37.211,CRL1h,2023.2.3,MacIntel,60.24096386,65e67470ae2fbf2172c317b2,65e79a91ddf0c6086907b516,,,,,,,,,,,865.6526,1.3,866.9522,866.9522,867.4699,left,1,0.5047,,867.47,868.4698,7,3,115,2,1,total,1,images/Ex3.jpg,left,training,hard,1,,,,,
