infCons.started,infCons.stopped,resp_consent.keys,resp_consent.rt,resp_consent.duration,participant,session,Age?,Gender?,Nationality?,Highest Educational Degree?,date,expName,psychopyVersion,OS,frameRate,STUDY_ID,SESSION_ID,instructions.started,instructions.stopped,resp_instructions.keys,resp_instructions.rt,resp_instructions.duration,nextTask.started,nextTask.stopped,ready_task.keys,ready_task.rt,ready_task.duration,fixation.started,ITI,fixation.stopped,stim.started,stim.stopped,response.keys,response.corr,response.rt,response.duration,feedback.started,feedback.stopped,trials.thisRepN,trials.thisTrialN,trials.thisN,trials.thisIndex,trials.ran,task,phase,Exemplars,r_correct,condition,difficulty,set,end.started,end.stopped,resp_end.keys,resp_end.rt,resp_end.duration
0.0002,4.6092,space,4.5949,,604d5e61486bd0622d2102c0,001,24,Female,British,College,2024-03-06_13h27.07.418,CRL1h,2023.2.3,Win32,144.9275362,65e67470ae2fbf2172c317b2,65e86f082f08b3751d9548e4,,,,,,,,,,,,,,,,,,,,,,,,,,,,,,,,,,,,,,
,,,,,604d5e61486bd0622d2102c0,001,24,Female,British,College,2024-03-06_13h27.07.418,CRL1h,2023.2.3,Win32,144.9275362,65e67470ae2fbf2172c317b2,65e86f082f08b3751d9548e4,4.6094,51.013,space,46.3934,,,,,,,,,,,,,,,,,,,,,,,,,,,,,,,,,,
,,,,,604d5e61486bd0622d2102c0,001,24,Female,British,College,2024-03-06_13h27.07.418,CRL1h,2023.2.3,Win32,144.9275362,65e67470ae2fbf2172c317b2,65e86f082f08b3751d9548e4,,,,,,51.0225,55.6178,space,4.5886,,55.6287,1.2,56.8265,56.8267,57.8886,left,0,1.0561,,57.8887,58.889,0,0,0,14,1,partial,1,images/Ex15.jpg,right,training,hard,2,,,,,
,,,,,604d5e61486bd0622d2102c0,001,24,Female,British,College,2024-03-06_13h27.07.418,CRL1h,2023.2.3,Win32,144.9275362,65e67470ae2fbf2172c317b2,65e86f082f08b3751d9548e4,,,,,,,,,,,58.8897,0.6,59.4875,59.4875,60.706,left,0,1.2173,,60.7061,61.703,0,1,1,7,1,partial,1,images/Ex16.jpg,right,training,hard,2,,,,,
,,,,,604d5e61486bd0622d2102c0,001,24,Female,British,College,2024-03-06_13h27.07.418,CRL1h,2023.2.3,Win32,144.9275362,65e67470ae2fbf2172c317b2,65e86f082f08b3751d9548e4,,,,,,,,,,,61.7034,0.7,62.402,62.402,63.0635,right,1,0.6575,,63.0635,64.06,0,2,2,13,1,partial,1,images/Ex14.jpg,right,training,hard,2,,,,,
,,,,,604d5e61486bd0622d2102c0,001,24,Female,British,College,2024-03-06_13h27.07.418,CRL1h,2023.2.3,Win32,144.9275362,65e67470ae2fbf2172c317b2,65e86f082f08b3751d9548e4,,,,,,,,,,,64.0604,1,65.057,65.057,65.8743,right,0,0.8146,,65.8744,66.8714,0,3,3,11,1,partial,1,images/Ex12.jpg,left,training,hard,2,,,,,
,,,,,604d5e61486bd0622d2102c0,001,24,Female,British,College,2024-03-06_13h27.07.418,CRL1h,2023.2.3,Win32,144.9275362,65e67470ae2fbf2172c317b2,65e86f082f08b3751d9548e4,,,,,,,,,,,66.872,0.9,67.7713,67.7713,68.5607,left,0,0.7872,,68.5607,69.5616,0,4,4,5,1,partial,1,images/Ex14.jpg,right,training,hard,2,,,,,
,,,,,604d5e61486bd0622d2102c0,001,24,Female,British,College,2024-03-06_13h27.07.418,CRL1h,2023.2.3,Win32,144.9275362,65e67470ae2fbf2172c317b2,65e86f082f08b3751d9548e4,,,,,,,,,,,69.5621,1.4,70.959,70.9591,71.9674,left,1,1.0047,,71.9674,72.9648,0,5,5,1,1,partial,1,images/Ex10.jpg,left,training,hard,2,,,,,
,,,,,604d5e61486bd0622d2102c0,001,24,Female,British,College,2024-03-06_13h27.07.418,CRL1h,2023.2.3,Win32,144.9275362,65e67470ae2fbf2172c317b2,65e86f082f08b3751d9548e4,,,,,,,,,,,72.9652,0.8,73.7608,73.7608,74.6753,left,1,0.9136,,74.6754,75.6722,0,6,6,9,1,partial,1,images/Ex10.jpg,left,training,hard,2,,,,,
,,,,,604d5e61486bd0622d2102c0,001,24,Female,British,College,2024-03-06_13h27.07.418,CRL1h,2023.2.3,Win32,144.9275362,65e67470ae2fbf2172c317b2,65e86f082f08b3751d9548e4,,,,,,,,,,,75.6726,1,76.669,76.6691,77.687,right,0,1.0158,,77.6871,78.6879,0,7,7,0,1,partial,1,images/Ex9.jpg,left,training,hard,2,,,,,
,,,,,604d5e61486bd0622d2102c0,001,24,Female,British,College,2024-03-06_13h27.07.418,CRL1h,2023.2.3,Win32,144.9275362,65e67470ae2fbf2172c317b2,65e86f082f08b3751d9548e4,,,,,,,,,,,78.6881,1.1,79.7887,79.7887,80.6295,left,0,0.839,,80.6296,81.63,0,8,8,12,1,partial,1,images/Ex13.jpg,right,training,hard,2,,,,,
,,,,,604d5e61486bd0622d2102c0,001,24,Female,British,College,2024-03-06_13h27.07.418,CRL1h,2023.2.3,Win32,144.9275362,65e67470ae2fbf2172c317b2,65e86f082f08b3751d9548e4,,,,,,,,,,,81.6302,1.2,82.8316,82.8316,83.9046,left,1,1.0692,,83.9047,84.9026,0,9,9,8,1,partial,1,images/Ex9.jpg,left,training,hard,2,,,,,
,,,,,604d5e61486bd0622d2102c0,001,24,Female,British,College,2024-03-06_13h27.07.418,CRL1h,2023.2.3,Win32,144.9275362,65e67470ae2fbf2172c317b2,65e86f082f08b3751d9548e4,,,,,,,,,,,84.9031,0.9,85.7995,85.7995,86.9103,left,0,1.1089,,86.9103,87.907,0,10,10,15,1,partial,1,images/Ex16.jpg,right,training,hard,2,,,,,
,,,,,604d5e61486bd0622d2102c0,001,24,Female,British,College,2024-03-06_13h27.07.418,CRL1h,2023.2.3,Win32,144.9275362,65e67470ae2fbf2172c317b2,65e86f082f08b3751d9548e4,,,,,,,,,,,87.9075,0.9,88.8117,88.8117,89.6407,right,0,0.828,,89.6408,90.6372,0,11,11,3,1,partial,1,images/Ex12.jpg,left,training,hard,2,,,,,
,,,,,604d5e61486bd0622d2102c0,001,24,Female,British,College,2024-03-06_13h27.07.418,CRL1h,2023.2.3,Win32,144.9275362,65e67470ae2fbf2172c317b2,65e86f082f08b3751d9548e4,,,,,,,,,,,90.6386,1.5,92.1348,92.1348,92.9755,left,0,0.8388,,92.9755,93.9771,0,12,12,4,1,partial,1,images/Ex13.jpg,right,training,hard,2,,,,,
,,,,,604d5e61486bd0622d2102c0,001,24,Female,British,College,2024-03-06_13h27.07.418,CRL1h,2023.2.3,Win32,144.9275362,65e67470ae2fbf2172c317b2,65e86f082f08b3751d9548e4,,,,,,,,,,,93.9774,1.1,95.0784,95.0785,95.5518,right,0,0.4714,,95.5519,96.553,0,13,13,10,1,partial,1,images/Ex11.jpg,left,training,hard,2,,,,,
,,,,,604d5e61486bd0622d2102c0,001,24,Female,British,College,2024-03-06_13h27.07.418,CRL1h,2023.2.3,Win32,144.9275362,65e67470ae2fbf2172c317b2,65e86f082f08b3751d9548e4,,,,,,,,,,,96.5535,1,97.5521,97.5521,98.2455,right,0,0.6924,,98.2455,99.2422,0,14,14,2,1,partial,1,images/Ex11.jpg,left,training,hard,2,,,,,
,,,,,604d5e61486bd0622d2102c0,001,24,Female,British,College,2024-03-06_13h27.07.418,CRL1h,2023.2.3,Win32,144.9275362,65e67470ae2fbf2172c317b2,65e86f082f08b3751d9548e4,,,,,,,,,,,99.2427,1.1,100.3426,100.3426,101.3606,left,0,1.0163,,101.3606,102.3622,0,15,15,6,1,partial,1,images/Ex15.jpg,right,training,hard,2,,,,,
,,,,,604d5e61486bd0622d2102c0,001,24,Female,British,College,2024-03-06_13h27.07.418,CRL1h,2023.2.3,Win32,144.9275362,65e67470ae2fbf2172c317b2,65e86f082f08b3751d9548e4,,,,,,,,,,,102.3625,1.1,103.4592,103.4592,104.1944,left,0,0.734,,104.1944,105.194,1,0,16,12,1,partial,1,images/Ex13.jpg,right,training,hard,2,,,,,
,,,,,604d5e61486bd0622d2102c0,001,24,Female,British,College,2024-03-06_13h27.07.418,CRL1h,2023.2.3,Win32,144.9275362,65e67470ae2fbf2172c317b2,65e86f082f08b3751d9548e4,,,,,,,,,,,105.1944,1.5,106.6898,106.6898,107.4152,right,1,0.7244,,107.4152,108.411,1,1,17,4,1,partial,1,images/Ex13.jpg,right,training,hard,2,,,,,
,,,,,604d5e61486bd0622d2102c0,001,24,Female,British,College,2024-03-06_13h27.07.418,CRL1h,2023.2.3,Win32,144.9275362,65e67470ae2fbf2172c317b2,65e86f082f08b3751d9548e4,,,,,,,,,,,108.4118,0.6,109.0076,109.0076,110.0436,left,1,1.0333,,110.0437,111.0412,1,2,18,9,1,partial,1,images/Ex10.jpg,left,training,hard,2,,,,,
,,,,,604d5e61486bd0622d2102c0,001,24,Female,British,College,2024-03-06_13h27.07.418,CRL1h,2023.2.3,Win32,144.9275362,65e67470ae2fbf2172c317b2,65e86f082f08b3751d9548e4,,,,,,,,,,,111.0418,0.6,111.6366,111.6367,112.3569,right,1,0.7171,,112.3569,113.3547,1,3,19,6,1,partial,1,images/Ex15.jpg,right,training,hard,2,,,,,
,,,,,604d5e61486bd0622d2102c0,001,24,Female,British,College,2024-03-06_13h27.07.418,CRL1h,2023.2.3,Win32,144.9275362,65e67470ae2fbf2172c317b2,65e86f082f08b3751d9548e4,,,,,,,,,,,113.3551,0.7,114.0532,114.0533,114.8148,right,1,0.7589,,114.8148,115.8122,1,4,20,13,1,partial,1,images/Ex14.jpg,right,training,hard,2,,,,,
,,,,,604d5e61486bd0622d2102c0,001,24,Female,British,College,2024-03-06_13h27.07.418,CRL1h,2023.2.3,Win32,144.9275362,65e67470ae2fbf2172c317b2,65e86f082f08b3751d9548e4,,,,,,,,,,,115.8125,1.2,117.0098,117.0099,117.4943,right,0,0.4823,,117.4943,118.4916,1,5,21,1,1,partial,1,images/Ex10.jpg,left,training,hard,2,,,,,
,,,,,604d5e61486bd0622d2102c0,001,24,Female,British,College,2024-03-06_13h27.07.418,CRL1h,2023.2.3,Win32,144.9275362,65e67470ae2fbf2172c317b2,65e86f082f08b3751d9548e4,,,,,,,,,,,118.4922,0.6,119.094,119.094,120.4556,left,0,1.3604,,120.4556,121.4527,1,6,22,7,1,partial,1,images/Ex16.jpg,right,training,hard,2,,,,,
,,,,,604d5e61486bd0622d2102c0,001,24,Female,British,College,2024-03-06_13h27.07.418,CRL1h,2023.2.3,Win32,144.9275362,65e67470ae2fbf2172c317b2,65e86f082f08b3751d9548e4,,,,,,,,,,,121.4632,1.5,122.9647,122.9647,123.3523,right,0,0.3853,,123.3524,124.3539,1,7,23,10,1,partial,1,images/Ex11.jpg,left,training,hard,2,,,,,
,,,,,604d5e61486bd0622d2102c0,001,24,Female,British,College,2024-03-06_13h27.07.418,CRL1h,2023.2.3,Win32,144.9275362,65e67470ae2fbf2172c317b2,65e86f082f08b3751d9548e4,,,,,,,,,,,124.3543,1,125.3509,125.3509,126.0806,left,1,0.7271,,126.0806,127.0775,1,8,24,8,1,partial,1,images/Ex9.jpg,left,training,hard,2,,,,,
,,,,,604d5e61486bd0622d2102c0,001,24,Female,British,College,2024-03-06_13h27.07.418,CRL1h,2023.2.3,Win32,144.9275362,65e67470ae2fbf2172c317b2,65e86f082f08b3751d9548e4,,,,,,,,,,,127.0778,0.9,127.9777,127.9777,128.5987,left,1,0.6198,,128.5987,129.5977,1,9,25,2,1,partial,1,images/Ex11.jpg,left,training,hard,2,,,,,
,,,,,604d5e61486bd0622d2102c0,001,24,Female,British,College,2024-03-06_13h27.07.418,CRL1h,2023.2.3,Win32,144.9275362,65e67470ae2fbf2172c317b2,65e86f082f08b3751d9548e4,,,,,,,,,,,129.598,0.8,130.3942,130.3942,131.1905,left,1,0.7946,,131.1905,132.1876,1,10,26,3,1,partial,1,images/Ex12.jpg,left,training,hard,2,,,,,
,,,,,604d5e61486bd0622d2102c0,001,24,Female,British,College,2024-03-06_13h27.07.418,CRL1h,2023.2.3,Win32,144.9275362,65e67470ae2fbf2172c317b2,65e86f082f08b3751d9548e4,,,,,,,,,,,132.188,0.5,132.6861,132.6861,133.3646,left,1,0.677,,133.3646,134.3621,1,11,27,11,1,partial,1,images/Ex12.jpg,left,training,hard,2,,,,,
,,,,,604d5e61486bd0622d2102c0,001,24,Female,British,College,2024-03-06_13h27.07.418,CRL1h,2023.2.3,Win32,144.9275362,65e67470ae2fbf2172c317b2,65e86f082f08b3751d9548e4,,,,,,,,,,,134.3625,1,135.3591,135.3591,135.845,right,1,0.4848,,135.8452,136.8407,1,12,28,5,1,partial,1,images/Ex14.jpg,right,training,hard,2,,,,,
,,,,,604d5e61486bd0622d2102c0,001,24,Female,British,College,2024-03-06_13h27.07.418,CRL1h,2023.2.3,Win32,144.9275362,65e67470ae2fbf2172c317b2,65e86f082f08b3751d9548e4,,,,,,,,,,,136.8411,0.8,137.6372,137.6372,138.3293,left,0,0.6902,,138.3294,139.327,1,13,29,14,1,partial,1,images/Ex15.jpg,right,training,hard,2,,,,,
,,,,,604d5e61486bd0622d2102c0,001,24,Female,British,College,2024-03-06_13h27.07.418,CRL1h,2023.2.3,Win32,144.9275362,65e67470ae2fbf2172c317b2,65e86f082f08b3751d9548e4,,,,,,,,,,,139.3273,0.7,140.0263,140.0263,140.6125,right,1,0.5849,,140.6126,141.6158,1,14,30,15,1,partial,1,images/Ex16.jpg,right,training,hard,2,,,,,
,,,,,604d5e61486bd0622d2102c0,001,24,Female,British,College,2024-03-06_13h27.07.418,CRL1h,2023.2.3,Win32,144.9275362,65e67470ae2fbf2172c317b2,65e86f082f08b3751d9548e4,,,,,,,,,,,141.6162,1.3,142.9112,142.9113,143.2245,left,1,0.3113,,143.2245,144.2219,1,15,31,0,1,partial,1,images/Ex9.jpg,left,training,hard,2,,,,,
,,,,,604d5e61486bd0622d2102c0,001,24,Female,British,College,2024-03-06_13h27.07.418,CRL1h,2023.2.3,Win32,144.9275362,65e67470ae2fbf2172c317b2,65e86f082f08b3751d9548e4,,,,,,,,,,,144.2224,0.5,144.7181,144.7181,145.5766,left,1,0.8572,,145.5767,146.5733,2,0,32,2,1,partial,1,images/Ex11.jpg,left,training,hard,2,,,,,
,,,,,604d5e61486bd0622d2102c0,001,24,Female,British,College,2024-03-06_13h27.07.418,CRL1h,2023.2.3,Win32,144.9275362,65e67470ae2fbf2172c317b2,65e86f082f08b3751d9548e4,,,,,,,,,,,146.5739,1,147.5734,147.5735,148.1002,left,1,0.5233,,148.1004,149.0965,2,1,33,10,1,partial,1,images/Ex11.jpg,left,training,hard,2,,,,,
,,,,,604d5e61486bd0622d2102c0,001,24,Female,British,College,2024-03-06_13h27.07.418,CRL1h,2023.2.3,Win32,144.9275362,65e67470ae2fbf2172c317b2,65e86f082f08b3751d9548e4,,,,,,,,,,,149.097,1.2,150.2945,150.2945,150.7724,right,0,0.476,,150.7724,151.7694,2,2,34,1,1,partial,1,images/Ex10.jpg,left,training,hard,2,,,,,
,,,,,604d5e61486bd0622d2102c0,001,24,Female,British,College,2024-03-06_13h27.07.418,CRL1h,2023.2.3,Win32,144.9275362,65e67470ae2fbf2172c317b2,65e86f082f08b3751d9548e4,,,,,,,,,,,151.77,1,152.7663,152.7664,153.2235,right,1,0.4554,,153.2235,154.2203,2,3,35,4,1,partial,1,images/Ex13.jpg,right,training,hard,2,,,,,
,,,,,604d5e61486bd0622d2102c0,001,24,Female,British,College,2024-03-06_13h27.07.418,CRL1h,2023.2.3,Win32,144.9275362,65e67470ae2fbf2172c317b2,65e86f082f08b3751d9548e4,,,,,,,,,,,154.2208,1.3,155.5223,155.5223,155.9935,right,0,0.4696,,155.9935,156.9889,2,4,36,11,1,partial,1,images/Ex12.jpg,left,training,hard,2,,,,,
,,,,,604d5e61486bd0622d2102c0,001,24,Female,British,College,2024-03-06_13h27.07.418,CRL1h,2023.2.3,Win32,144.9275362,65e67470ae2fbf2172c317b2,65e86f082f08b3751d9548e4,,,,,,,,,,,156.9902,1.1,158.0891,158.0891,158.8955,right,1,0.8036,,158.8955,159.8917,2,5,37,13,1,partial,1,images/Ex14.jpg,right,training,hard,2,,,,,
,,,,,604d5e61486bd0622d2102c0,001,24,Female,British,College,2024-03-06_13h27.07.418,CRL1h,2023.2.3,Win32,144.9275362,65e67470ae2fbf2172c317b2,65e86f082f08b3751d9548e4,,,,,,,,,,,159.8921,0.5,160.3938,160.3938,161.0935,left,1,0.6987,,161.0936,162.0905,2,6,38,0,1,partial,1,images/Ex9.jpg,left,training,hard,2,,,,,
,,,,,604d5e61486bd0622d2102c0,001,24,Female,British,College,2024-03-06_13h27.07.418,CRL1h,2023.2.3,Win32,144.9275362,65e67470ae2fbf2172c317b2,65e86f082f08b3751d9548e4,,,,,,,,,,,162.091,0.6,162.6921,162.6921,163.243,left,1,0.5492,,163.2431,164.2399,2,7,39,3,1,partial,1,images/Ex12.jpg,left,training,hard,2,,,,,
,,,,,604d5e61486bd0622d2102c0,001,24,Female,British,College,2024-03-06_13h27.07.418,CRL1h,2023.2.3,Win32,144.9275362,65e67470ae2fbf2172c317b2,65e86f082f08b3751d9548e4,,,,,,,,,,,164.2403,0.7,164.9391,164.9391,165.646,left,1,0.7048,,165.6464,166.6424,2,8,40,8,1,partial,1,images/Ex9.jpg,left,training,hard,2,,,,,
,,,,,604d5e61486bd0622d2102c0,001,24,Female,British,College,2024-03-06_13h27.07.418,CRL1h,2023.2.3,Win32,144.9275362,65e67470ae2fbf2172c317b2,65e86f082f08b3751d9548e4,,,,,,,,,,,166.6433,0.7,167.3438,167.3439,167.9083,right,1,0.5624,,167.9084,168.9079,2,9,41,14,1,partial,1,images/Ex15.jpg,right,training,hard,2,,,,,
,,,,,604d5e61486bd0622d2102c0,001,24,Female,British,College,2024-03-06_13h27.07.418,CRL1h,2023.2.3,Win32,144.9275362,65e67470ae2fbf2172c317b2,65e86f082f08b3751d9548e4,,,,,,,,,,,168.9083,1.1,170.008,170.0081,170.5775,right,0,0.5683,,170.5776,171.5728,2,10,42,9,1,partial,1,images/Ex10.jpg,left,training,hard,2,,,,,
,,,,,604d5e61486bd0622d2102c0,001,24,Female,British,College,2024-03-06_13h27.07.418,CRL1h,2023.2.3,Win32,144.9275362,65e67470ae2fbf2172c317b2,65e86f082f08b3751d9548e4,,,,,,,,,,,171.5731,1.1,172.6733,172.6733,173.2072,right,1,0.5305,,173.2073,174.2035,2,11,43,12,1,partial,1,images/Ex13.jpg,right,training,hard,2,,,,,
,,,,,604d5e61486bd0622d2102c0,001,24,Female,British,College,2024-03-06_13h27.07.418,CRL1h,2023.2.3,Win32,144.9275362,65e67470ae2fbf2172c317b2,65e86f082f08b3751d9548e4,,,,,,,,,,,174.2041,1.2,175.3993,175.3993,175.9465,left,0,0.5463,,175.9465,176.9435,2,12,44,6,1,partial,1,images/Ex15.jpg,right,training,hard,2,,,,,
,,,,,604d5e61486bd0622d2102c0,001,24,Female,British,College,2024-03-06_13h27.07.418,CRL1h,2023.2.3,Win32,144.9275362,65e67470ae2fbf2172c317b2,65e86f082f08b3751d9548e4,,,,,,,,,,,176.9439,0.7,177.6396,177.6396,178.6216,right,1,0.9808,,178.6217,179.619,2,13,45,15,1,partial,1,images/Ex16.jpg,right,training,hard,2,,,,,
,,,,,604d5e61486bd0622d2102c0,001,24,Female,British,College,2024-03-06_13h27.07.418,CRL1h,2023.2.3,Win32,144.9275362,65e67470ae2fbf2172c317b2,65e86f082f08b3751d9548e4,,,,,,,,,,,179.6194,0.6,180.2205,180.2205,180.8854,right,1,0.6632,,180.8855,181.884,2,14,46,5,1,partial,1,images/Ex14.jpg,right,training,hard,2,,,,,
,,,,,604d5e61486bd0622d2102c0,001,24,Female,British,College,2024-03-06_13h27.07.418,CRL1h,2023.2.3,Win32,144.9275362,65e67470ae2fbf2172c317b2,65e86f082f08b3751d9548e4,,,,,,,,,,,181.8844,1.1,182.9812,182.9812,183.2452,right,1,0.2624,,183.2453,184.2437,2,15,47,7,1,partial,1,images/Ex16.jpg,right,training,hard,2,,,,,
,,,,,604d5e61486bd0622d2102c0,001,24,Female,British,College,2024-03-06_13h27.07.418,CRL1h,2023.2.3,Win32,144.9275362,65e67470ae2fbf2172c317b2,65e86f082f08b3751d9548e4,,,,,,,,,,,184.244,1.1,185.3455,185.3455,185.7676,right,1,0.4209,,185.7677,186.7638,3,0,48,13,1,partial,1,images/Ex14.jpg,right,training,hard,2,,,,,
,,,,,604d5e61486bd0622d2102c0,001,24,Female,British,College,2024-03-06_13h27.07.418,CRL1h,2023.2.3,Win32,144.9275362,65e67470ae2fbf2172c317b2,65e86f082f08b3751d9548e4,,,,,,,,,,,186.7643,1.1,187.8651,187.8651,188.1843,right,1,0.318,,188.1844,189.1811,3,1,49,6,1,partial,1,images/Ex15.jpg,right,training,hard,2,,,,,
,,,,,604d5e61486bd0622d2102c0,001,24,Female,British,College,2024-03-06_13h27.07.418,CRL1h,2023.2.3,Win32,144.9275362,65e67470ae2fbf2172c317b2,65e86f082f08b3751d9548e4,,,,,,,,,,,189.1815,0.9,190.0819,190.0819,190.4324,right,0,0.3497,,190.4325,191.4289,3,2,50,8,1,partial,1,images/Ex9.jpg,left,training,hard,2,,,,,
,,,,,604d5e61486bd0622d2102c0,001,24,Female,British,College,2024-03-06_13h27.07.418,CRL1h,2023.2.3,Win32,144.9275362,65e67470ae2fbf2172c317b2,65e86f082f08b3751d9548e4,,,,,,,,,,,191.4292,1.4,192.828,192.8281,193.2799,right,0,0.4487,,193.2799,194.2772,3,3,51,3,1,partial,1,images/Ex12.jpg,left,training,hard,2,,,,,
,,,,,604d5e61486bd0622d2102c0,001,24,Female,British,College,2024-03-06_13h27.07.418,CRL1h,2023.2.3,Win32,144.9275362,65e67470ae2fbf2172c317b2,65e86f082f08b3751d9548e4,,,,,,,,,,,194.2775,1.1,195.3781,195.3781,195.7796,right,1,0.3997,,195.7797,196.777,3,4,52,4,1,partial,1,images/Ex13.jpg,right,training,hard,2,,,,,
,,,,,604d5e61486bd0622d2102c0,001,24,Female,British,College,2024-03-06_13h27.07.418,CRL1h,2023.2.3,Win32,144.9275362,65e67470ae2fbf2172c317b2,65e86f082f08b3751d9548e4,,,,,,,,,,,196.7774,0.8,197.5727,197.5727,197.9895,left,1,0.4157,,197.9895,198.9863,3,5,53,9,1,partial,1,images/Ex10.jpg,left,training,hard,2,,,,,
,,,,,604d5e61486bd0622d2102c0,001,24,Female,British,College,2024-03-06_13h27.07.418,CRL1h,2023.2.3,Win32,144.9275362,65e67470ae2fbf2172c317b2,65e86f082f08b3751d9548e4,,,,,,,,,,,198.9866,1.5,200.4824,200.4824,200.9038,left,0,0.4192,,200.9038,201.901,3,6,54,5,1,partial,1,images/Ex14.jpg,right,training,hard,2,,,,,
,,,,,604d5e61486bd0622d2102c0,001,24,Female,British,College,2024-03-06_13h27.07.418,CRL1h,2023.2.3,Win32,144.9275362,65e67470ae2fbf2172c317b2,65e86f082f08b3751d9548e4,,,,,,,,,,,201.9014,1,202.8979,202.8979,203.362,right,1,0.4623,,203.362,204.3589,3,7,55,12,1,partial,1,images/Ex13.jpg,right,training,hard,2,,,,,
,,,,,604d5e61486bd0622d2102c0,001,24,Female,British,College,2024-03-06_13h27.07.418,CRL1h,2023.2.3,Win32,144.9275362,65e67470ae2fbf2172c317b2,65e86f082f08b3751d9548e4,,,,,,,,,,,204.3594,1.1,205.4598,205.4598,205.9448,right,0,0.4835,,205.9448,206.9412,3,8,56,0,1,partial,1,images/Ex9.jpg,left,training,hard,2,,,,,
,,,,,604d5e61486bd0622d2102c0,001,24,Female,British,College,2024-03-06_13h27.07.418,CRL1h,2023.2.3,Win32,144.9275362,65e67470ae2fbf2172c317b2,65e86f082f08b3751d9548e4,,,,,,,,,,,206.9416,0.6,207.537,207.5371,208.2501,right,0,0.7112,,208.2501,209.2477,3,9,57,2,1,partial,1,images/Ex11.jpg,left,training,hard,2,,,,,
,,,,,604d5e61486bd0622d2102c0,001,24,Female,British,College,2024-03-06_13h27.07.418,CRL1h,2023.2.3,Win32,144.9275362,65e67470ae2fbf2172c317b2,65e86f082f08b3751d9548e4,,,,,,,,,,,209.2481,0.6,209.8499,209.8499,210.2168,left,0,0.3648,,210.2169,211.2141,3,10,58,15,1,partial,1,images/Ex16.jpg,right,training,hard,2,,,,,
,,,,,604d5e61486bd0622d2102c0,001,24,Female,British,College,2024-03-06_13h27.07.418,CRL1h,2023.2.3,Win32,144.9275362,65e67470ae2fbf2172c317b2,65e86f082f08b3751d9548e4,,,,,,,,,,,211.2144,0.7,211.9132,211.9133,212.3977,left,0,0.4829,,212.3978,213.3947,3,11,59,14,1,partial,1,images/Ex15.jpg,right,training,hard,2,,,,,
,,,,,604d5e61486bd0622d2102c0,001,24,Female,British,College,2024-03-06_13h27.07.418,CRL1h,2023.2.3,Win32,144.9275362,65e67470ae2fbf2172c317b2,65e86f082f08b3751d9548e4,,,,,,,,,,,213.3952,0.9,214.295,214.295,214.628,right,0,0.3319,,214.6281,215.6251,3,12,60,10,1,partial,1,images/Ex11.jpg,left,training,hard,2,,,,,
,,,,,604d5e61486bd0622d2102c0,001,24,Female,British,College,2024-03-06_13h27.07.418,CRL1h,2023.2.3,Win32,144.9275362,65e67470ae2fbf2172c317b2,65e86f082f08b3751d9548e4,,,,,,,,,,,215.6255,0.7,216.3242,216.3243,217.0282,left,1,0.7028,,217.0282,218.0278,3,13,61,1,1,partial,1,images/Ex10.jpg,left,training,hard,2,,,,,
,,,,,604d5e61486bd0622d2102c0,001,24,Female,British,College,2024-03-06_13h27.07.418,CRL1h,2023.2.3,Win32,144.9275362,65e67470ae2fbf2172c317b2,65e86f082f08b3751d9548e4,,,,,,,,,,,218.0283,0.6,218.6246,218.6247,219.1194,left,1,0.4931,,219.1195,220.1185,3,14,62,11,1,partial,1,images/Ex12.jpg,left,training,hard,2,,,,,
,,,,,604d5e61486bd0622d2102c0,001,24,Female,British,College,2024-03-06_13h27.07.418,CRL1h,2023.2.3,Win32,144.9275362,65e67470ae2fbf2172c317b2,65e86f082f08b3751d9548e4,,,,,,,,,,,220.1189,1.5,221.6141,221.6142,222.0232,left,0,0.4058,,222.0233,223.0207,3,15,63,7,1,partial,1,images/Ex16.jpg,right,training,hard,2,,,,,
,,,,,604d5e61486bd0622d2102c0,001,24,Female,British,College,2024-03-06_13h27.07.418,CRL1h,2023.2.3,Win32,144.9275362,65e67470ae2fbf2172c317b2,65e86f082f08b3751d9548e4,,,,,,,,,,,223.0214,1,224.0168,224.0168,224.3557,right,0,0.3378,,224.3558,225.3531,4,0,64,3,1,partial,1,images/Ex12.jpg,left,training,hard,2,,,,,
,,,,,604d5e61486bd0622d2102c0,001,24,Female,British,College,2024-03-06_13h27.07.418,CRL1h,2023.2.3,Win32,144.9275362,65e67470ae2fbf2172c317b2,65e86f082f08b3751d9548e4,,,,,,,,,,,225.3537,0.7,226.0522,226.0522,226.8208,left,0,0.7668,,226.8208,227.8185,4,1,65,6,1,partial,1,images/Ex15.jpg,right,training,hard,2,,,,,
,,,,,604d5e61486bd0622d2102c0,001,24,Female,British,College,2024-03-06_13h27.07.418,CRL1h,2023.2.3,Win32,144.9275362,65e67470ae2fbf2172c317b2,65e86f082f08b3751d9548e4,,,,,,,,,,,227.819,0.8,228.6147,228.6148,229.2379,right,0,0.6208,,229.2379,230.2346,4,2,66,8,1,partial,1,images/Ex9.jpg,left,training,hard,2,,,,,
,,,,,604d5e61486bd0622d2102c0,001,24,Female,British,College,2024-03-06_13h27.07.418,CRL1h,2023.2.3,Win32,144.9275362,65e67470ae2fbf2172c317b2,65e86f082f08b3751d9548e4,,,,,,,,,,,230.235,0.9,231.135,231.135,231.4123,left,1,0.275,,231.4123,232.409,4,3,67,11,1,partial,1,images/Ex12.jpg,left,training,hard,2,,,,,
,,,,,604d5e61486bd0622d2102c0,001,24,Female,British,College,2024-03-06_13h27.07.418,CRL1h,2023.2.3,Win32,144.9275362,65e67470ae2fbf2172c317b2,65e86f082f08b3751d9548e4,,,,,,,,,,,232.4094,1,233.4061,233.4062,233.6909,left,0,0.2833,,233.691,234.6871,4,4,68,13,1,partial,1,images/Ex14.jpg,right,training,hard,2,,,,,
,,,,,604d5e61486bd0622d2102c0,001,24,Female,British,College,2024-03-06_13h27.07.418,CRL1h,2023.2.3,Win32,144.9275362,65e67470ae2fbf2172c317b2,65e86f082f08b3751d9548e4,,,,,,,,,,,234.6876,0.5,235.1855,235.1855,235.6979,left,0,0.5102,,235.6979,236.6951,4,5,69,14,1,partial,1,images/Ex15.jpg,right,training,hard,2,,,,,
,,,,,604d5e61486bd0622d2102c0,001,24,Female,British,College,2024-03-06_13h27.07.418,CRL1h,2023.2.3,Win32,144.9275362,65e67470ae2fbf2172c317b2,65e86f082f08b3751d9548e4,,,,,,,,,,,236.6956,1.3,237.9973,237.9973,238.2465,right,1,0.2483,,238.2465,239.2435,4,6,70,15,1,partial,1,images/Ex16.jpg,right,training,hard,2,,,,,
,,,,,604d5e61486bd0622d2102c0,001,24,Female,British,College,2024-03-06_13h27.07.418,CRL1h,2023.2.3,Win32,144.9275362,65e67470ae2fbf2172c317b2,65e86f082f08b3751d9548e4,,,,,,,,,,,239.2439,0.5,239.742,239.742,240.2269,right,0,0.4824,,240.227,241.2237,4,7,71,1,1,partial,1,images/Ex10.jpg,left,training,hard,2,,,,,
,,,,,604d5e61486bd0622d2102c0,001,24,Female,British,College,2024-03-06_13h27.07.418,CRL1h,2023.2.3,Win32,144.9275362,65e67470ae2fbf2172c317b2,65e86f082f08b3751d9548e4,,,,,,,,,,,241.2241,1.3,242.5253,242.5254,242.9201,left,0,0.3924,,242.9201,243.9214,4,8,72,5,1,partial,1,images/Ex14.jpg,right,training,hard,2,,,,,
,,,,,604d5e61486bd0622d2102c0,001,24,Female,British,College,2024-03-06_13h27.07.418,CRL1h,2023.2.3,Win32,144.9275362,65e67470ae2fbf2172c317b2,65e86f082f08b3751d9548e4,,,,,,,,,,,243.9217,0.6,244.517,244.5171,245.7242,right,0,1.2042,,245.7243,246.7194,4,9,73,10,1,partial,1,images/Ex11.jpg,left,training,hard,2,,,,,
,,,,,604d5e61486bd0622d2102c0,001,24,Female,British,College,2024-03-06_13h27.07.418,CRL1h,2023.2.3,Win32,144.9275362,65e67470ae2fbf2172c317b2,65e86f082f08b3751d9548e4,,,,,,,,,,,246.7197,1.3,248.0208,248.0208,248.3898,right,1,0.366,,248.3899,249.3872,4,10,74,12,1,partial,1,images/Ex13.jpg,right,training,hard,2,,,,,
,,,,,604d5e61486bd0622d2102c0,001,24,Female,British,College,2024-03-06_13h27.07.418,CRL1h,2023.2.3,Win32,144.9275362,65e67470ae2fbf2172c317b2,65e86f082f08b3751d9548e4,,,,,,,,,,,249.3875,0.9,250.2875,250.2875,250.8141,left,1,0.5252,,250.8141,251.8108,4,11,75,9,1,partial,1,images/Ex10.jpg,left,training,hard,2,,,,,
,,,,,604d5e61486bd0622d2102c0,001,24,Female,British,College,2024-03-06_13h27.07.418,CRL1h,2023.2.3,Win32,144.9275362,65e67470ae2fbf2172c317b2,65e86f082f08b3751d9548e4,,,,,,,,,,,251.8112,0.8,252.6072,252.6073,253.23,right,1,0.6216,,253.2302,254.2276,4,12,76,4,1,partial,1,images/Ex13.jpg,right,training,hard,2,,,,,
,,,,,604d5e61486bd0622d2102c0,001,24,Female,British,College,2024-03-06_13h27.07.418,CRL1h,2023.2.3,Win32,144.9275362,65e67470ae2fbf2172c317b2,65e86f082f08b3751d9548e4,,,,,,,,,,,254.2281,1.4,255.6261,255.6261,256.734,left,1,1.1069,,256.7341,257.731,4,13,77,0,1,partial,1,images/Ex9.jpg,left,training,hard,2,,,,,
,,,,,604d5e61486bd0622d2102c0,001,24,Female,British,College,2024-03-06_13h27.07.418,CRL1h,2023.2.3,Win32,144.9275362,65e67470ae2fbf2172c317b2,65e86f082f08b3751d9548e4,,,,,,,,,,,257.7318,1.2,258.9288,258.9288,259.6353,left,1,0.704,,259.6353,260.637,4,14,78,2,1,partial,1,images/Ex11.jpg,left,training,hard,2,,,,,
,,,,,604d5e61486bd0622d2102c0,001,24,Female,British,College,2024-03-06_13h27.07.418,CRL1h,2023.2.3,Win32,144.9275362,65e67470ae2fbf2172c317b2,65e86f082f08b3751d9548e4,,,,,,,,,,,260.6374,1.1,261.7377,261.7377,262.7441,left,0,1.0047,,262.7441,263.7389,4,15,79,7,1,partial,1,images/Ex16.jpg,right,training,hard,2,,,,,
,,,,,604d5e61486bd0622d2102c0,001,24,Female,British,College,2024-03-06_13h27.07.418,CRL1h,2023.2.3,Win32,144.9275362,65e67470ae2fbf2172c317b2,65e86f082f08b3751d9548e4,,,,,,,,,,,263.7394,0.7,264.4377,264.4377,265.1934,left,1,0.7547,,265.1934,266.1922,5,0,80,1,1,partial,1,images/Ex10.jpg,left,training,hard,2,,,,,
,,,,,604d5e61486bd0622d2102c0,001,24,Female,British,College,2024-03-06_13h27.07.418,CRL1h,2023.2.3,Win32,144.9275362,65e67470ae2fbf2172c317b2,65e86f082f08b3751d9548e4,,,,,,,,,,,266.1926,0.9,267.097,267.0971,267.8174,right,1,0.7192,,267.8174,268.8137,5,1,81,6,1,partial,1,images/Ex15.jpg,right,training,hard,2,,,,,
,,,,,604d5e61486bd0622d2102c0,001,24,Female,British,College,2024-03-06_13h27.07.418,CRL1h,2023.2.3,Win32,144.9275362,65e67470ae2fbf2172c317b2,65e86f082f08b3751d9548e4,,,,,,,,,,,268.8142,1,269.8136,269.8136,270.6237,right,1,0.8085,,270.6238,271.6204,5,2,82,7,1,partial,1,images/Ex16.jpg,right,training,hard,2,,,,,
,,,,,604d5e61486bd0622d2102c0,001,24,Female,British,College,2024-03-06_13h27.07.418,CRL1h,2023.2.3,Win32,144.9275362,65e67470ae2fbf2172c317b2,65e86f082f08b3751d9548e4,,,,,,,,,,,271.6209,0.5,272.1168,272.1169,272.9298,right,0,0.8097,,272.9298,273.9286,5,3,83,11,1,partial,1,images/Ex12.jpg,left,training,hard,2,,,,,
,,,,,604d5e61486bd0622d2102c0,001,24,Female,British,College,2024-03-06_13h27.07.418,CRL1h,2023.2.3,Win32,144.9275362,65e67470ae2fbf2172c317b2,65e86f082f08b3751d9548e4,,,,,,,,,,,273.9291,1.2,275.1244,275.1244,275.651,left,1,0.5244,,275.651,276.6518,5,4,84,3,1,partial,1,images/Ex12.jpg,left,training,hard,2,,,,,
,,,,,604d5e61486bd0622d2102c0,001,24,Female,British,College,2024-03-06_13h27.07.418,CRL1h,2023.2.3,Win32,144.9275362,65e67470ae2fbf2172c317b2,65e86f082f08b3751d9548e4,,,,,,,,,,,276.6523,0.9,277.5476,277.5476,278.2061,left,1,0.6554,,278.2062,279.2061,5,5,85,2,1,partial,1,images/Ex11.jpg,left,training,hard,2,,,,,
,,,,,604d5e61486bd0622d2102c0,001,24,Female,British,College,2024-03-06_13h27.07.418,CRL1h,2023.2.3,Win32,144.9275362,65e67470ae2fbf2172c317b2,65e86f082f08b3751d9548e4,,,,,,,,,,,279.2066,0.8,280.011,280.0111,280.738,left,0,0.7259,,280.738,281.7372,5,6,86,4,1,partial,1,images/Ex13.jpg,right,training,hard,2,,,,,
,,,,,604d5e61486bd0622d2102c0,001,24,Female,British,College,2024-03-06_13h27.07.418,CRL1h,2023.2.3,Win32,144.9275362,65e67470ae2fbf2172c317b2,65e86f082f08b3751d9548e4,,,,,,,,,,,281.7377,1.5,283.2328,283.2328,283.4962,left,0,0.26,,283.4962,284.4934,5,7,87,12,1,partial,1,images/Ex13.jpg,right,training,hard,2,,,,,
,,,,,604d5e61486bd0622d2102c0,001,24,Female,British,College,2024-03-06_13h27.07.418,CRL1h,2023.2.3,Win32,144.9275362,65e67470ae2fbf2172c317b2,65e86f082f08b3751d9548e4,,,,,,,,,,,284.4938,0.9,285.391,285.3911,286.0559,right,0,0.6637,,286.0559,287.0597,5,8,88,9,1,partial,1,images/Ex10.jpg,left,training,hard,2,,,,,
,,,,,604d5e61486bd0622d2102c0,001,24,Female,British,College,2024-03-06_13h27.07.418,CRL1h,2023.2.3,Win32,144.9275362,65e67470ae2fbf2172c317b2,65e86f082f08b3751d9548e4,,,,,,,,,,,287.0601,0.7,287.7583,287.7584,288.378,right,0,0.616,,288.378,289.3769,5,9,89,0,1,partial,1,images/Ex9.jpg,left,training,hard,2,,,,,
,,,,,604d5e61486bd0622d2102c0,001,24,Female,British,College,2024-03-06_13h27.07.418,CRL1h,2023.2.3,Win32,144.9275362,65e67470ae2fbf2172c317b2,65e86f082f08b3751d9548e4,,,,,,,,,,,289.3773,0.8,290.1828,290.1828,291.5536,right,1,1.3698,,291.5537,292.5525,5,10,90,15,1,partial,1,images/Ex16.jpg,right,training,hard,2,,,,,
,,,,,604d5e61486bd0622d2102c0,001,24,Female,British,College,2024-03-06_13h27.07.418,CRL1h,2023.2.3,Win32,144.9275362,65e67470ae2fbf2172c317b2,65e86f082f08b3751d9548e4,,,,,,,,,,,292.5528,0.8,293.3531,293.3531,293.9488,left,0,0.595,,293.9489,294.9527,5,11,91,14,1,partial,1,images/Ex15.jpg,right,training,hard,2,,,,,
,,,,,604d5e61486bd0622d2102c0,001,24,Female,British,College,2024-03-06_13h27.07.418,CRL1h,2023.2.3,Win32,144.9275362,65e67470ae2fbf2172c317b2,65e86f082f08b3751d9548e4,,,,,,,,,,,294.9532,0.8,295.7519,295.7519,296.7629,left,0,1.0076,,296.763,297.7645,5,12,92,5,1,partial,1,images/Ex14.jpg,right,training,hard,2,,,,,
,,,,,604d5e61486bd0622d2102c0,001,24,Female,British,College,2024-03-06_13h27.07.418,CRL1h,2023.2.3,Win32,144.9275362,65e67470ae2fbf2172c317b2,65e86f082f08b3751d9548e4,,,,,,,,,,,297.7648,0.9,298.66,298.6601,299.3701,right,0,0.7093,,299.3701,300.3701,5,13,93,10,1,partial,1,images/Ex11.jpg,left,training,hard,2,,,,,
,,,,,604d5e61486bd0622d2102c0,001,24,Female,British,College,2024-03-06_13h27.07.418,CRL1h,2023.2.3,Win32,144.9275362,65e67470ae2fbf2172c317b2,65e86f082f08b3751d9548e4,,,,,,,,,,,300.3706,1.4,301.766,301.7661,302.7521,right,1,0.9835,,302.7521,303.7498,5,14,94,13,1,partial,1,images/Ex14.jpg,right,training,hard,2,,,,,
,,,,,604d5e61486bd0622d2102c0,001,24,Female,British,College,2024-03-06_13h27.07.418,CRL1h,2023.2.3,Win32,144.9275362,65e67470ae2fbf2172c317b2,65e86f082f08b3751d9548e4,,,,,,,,,,,303.75,1,304.7493,304.7493,305.4596,left,1,0.7066,,305.4596,306.4604,5,15,95,8,1,partial,1,images/Ex9.jpg,left,training,hard,2,,,,,
,,,,,604d5e61486bd0622d2102c0,001,24,Female,British,College,2024-03-06_13h27.07.418,CRL1h,2023.2.3,Win32,144.9275362,65e67470ae2fbf2172c317b2,65e86f082f08b3751d9548e4,,,,,,,,,,,306.4608,0.9,307.357,307.357,308.0047,right,0,0.6469,,308.0047,309.0096,6,0,96,1,1,partial,1,images/Ex10.jpg,left,training,hard,2,,,,,
,,,,,604d5e61486bd0622d2102c0,001,24,Female,British,College,2024-03-06_13h27.07.418,CRL1h,2023.2.3,Win32,144.9275362,65e67470ae2fbf2172c317b2,65e86f082f08b3751d9548e4,,,,,,,,,,,309.0104,0.5,309.5053,309.5053,310.1727,left,1,0.6663,,310.1727,311.1766,6,1,97,8,1,partial,1,images/Ex9.jpg,left,training,hard,2,,,,,
,,,,,604d5e61486bd0622d2102c0,001,24,Female,British,College,2024-03-06_13h27.07.418,CRL1h,2023.2.3,Win32,144.9275362,65e67470ae2fbf2172c317b2,65e86f082f08b3751d9548e4,,,,,,,,,,,311.1771,0.8,311.9726,311.9727,312.3512,left,0,0.3775,,312.3513,313.3462,6,2,98,5,1,partial,1,images/Ex14.jpg,right,training,hard,2,,,,,
,,,,,604d5e61486bd0622d2102c0,001,24,Female,British,College,2024-03-06_13h27.07.418,CRL1h,2023.2.3,Win32,144.9275362,65e67470ae2fbf2172c317b2,65e86f082f08b3751d9548e4,,,,,,,,,,,313.3466,1,314.344,314.3441,315.1261,left,0,0.7786,,315.1262,316.124,6,3,99,12,1,partial,1,images/Ex13.jpg,right,training,hard,2,,,,,
,,,,,604d5e61486bd0622d2102c0,001,24,Female,British,College,2024-03-06_13h27.07.418,CRL1h,2023.2.3,Win32,144.9275362,65e67470ae2fbf2172c317b2,65e86f082f08b3751d9548e4,,,,,,,,,,,316.1244,0.6,316.7229,316.7229,317.4802,right,0,0.7559,,317.4802,318.4772,6,4,100,0,1,partial,1,images/Ex9.jpg,left,training,hard,2,,,,,
,,,,,604d5e61486bd0622d2102c0,001,24,Female,British,College,2024-03-06_13h27.07.418,CRL1h,2023.2.3,Win32,144.9275362,65e67470ae2fbf2172c317b2,65e86f082f08b3751d9548e4,,,,,,,,,,,318.4776,0.8,319.2735,319.2735,319.6614,left,0,0.3868,,319.6614,320.6585,6,5,101,14,1,partial,1,images/Ex15.jpg,right,training,hard,2,,,,,
,,,,,604d5e61486bd0622d2102c0,001,24,Female,British,College,2024-03-06_13h27.07.418,CRL1h,2023.2.3,Win32,144.9275362,65e67470ae2fbf2172c317b2,65e86f082f08b3751d9548e4,,,,,,,,,,,320.6588,0.5,321.1568,321.1568,321.6252,right,0,0.4675,,321.6252,322.6294,6,6,102,10,1,partial,1,images/Ex11.jpg,left,training,hard,2,,,,,
,,,,,604d5e61486bd0622d2102c0,001,24,Female,British,College,2024-03-06_13h27.07.418,CRL1h,2023.2.3,Win32,144.9275362,65e67470ae2fbf2172c317b2,65e86f082f08b3751d9548e4,,,,,,,,,,,322.6297,1,323.6327,323.6328,324.1274,right,0,0.4906,,324.1274,325.1239,6,7,103,2,1,partial,1,images/Ex11.jpg,left,training,hard,2,,,,,
,,,,,604d5e61486bd0622d2102c0,001,24,Female,British,College,2024-03-06_13h27.07.418,CRL1h,2023.2.3,Win32,144.9275362,65e67470ae2fbf2172c317b2,65e86f082f08b3751d9548e4,,,,,,,,,,,325.1243,1.4,326.5275,326.5275,327.4927,left,1,0.9634,,327.4927,328.49,6,8,104,9,1,partial,1,images/Ex10.jpg,left,training,hard,2,,,,,
,,,,,604d5e61486bd0622d2102c0,001,24,Female,British,College,2024-03-06_13h27.07.418,CRL1h,2023.2.3,Win32,144.9275362,65e67470ae2fbf2172c317b2,65e86f082f08b3751d9548e4,,,,,,,,,,,328.4903,1.4,329.8884,329.8885,330.6474,right,0,0.7581,,330.6474,331.6448,6,9,105,11,1,partial,1,images/Ex12.jpg,left,training,hard,2,,,,,
,,,,,604d5e61486bd0622d2102c0,001,24,Female,British,College,2024-03-06_13h27.07.418,CRL1h,2023.2.3,Win32,144.9275362,65e67470ae2fbf2172c317b2,65e86f082f08b3751d9548e4,,,,,,,,,,,331.6452,1.2,332.8424,332.8425,333.2878,left,0,0.444,,333.2878,334.2878,6,10,106,6,1,partial,1,images/Ex15.jpg,right,training,hard,2,,,,,
,,,,,604d5e61486bd0622d2102c0,001,24,Female,British,College,2024-03-06_13h27.07.418,CRL1h,2023.2.3,Win32,144.9275362,65e67470ae2fbf2172c317b2,65e86f082f08b3751d9548e4,,,,,,,,,,,334.2885,1.4,335.6848,335.6848,336.0137,right,1,0.3279,,336.0137,337.0134,6,11,107,13,1,partial,1,images/Ex14.jpg,right,training,hard,2,,,,,
,,,,,604d5e61486bd0622d2102c0,001,24,Female,British,College,2024-03-06_13h27.07.418,CRL1h,2023.2.3,Win32,144.9275362,65e67470ae2fbf2172c317b2,65e86f082f08b3751d9548e4,,,,,,,,,,,337.0138,0.6,337.6093,337.6094,338.4925,right,1,0.8807,,338.4925,339.4922,6,12,108,15,1,partial,1,images/Ex16.jpg,right,training,hard,2,,,,,
,,,,,604d5e61486bd0622d2102c0,001,24,Female,British,College,2024-03-06_13h27.07.418,CRL1h,2023.2.3,Win32,144.9275362,65e67470ae2fbf2172c317b2,65e86f082f08b3751d9548e4,,,,,,,,,,,339.4927,1.2,340.6915,340.6916,341.0891,right,1,0.3966,,341.0891,342.0893,6,13,109,7,1,partial,1,images/Ex16.jpg,right,training,hard,2,,,,,
,,,,,604d5e61486bd0622d2102c0,001,24,Female,British,College,2024-03-06_13h27.07.418,CRL1h,2023.2.3,Win32,144.9275362,65e67470ae2fbf2172c317b2,65e86f082f08b3751d9548e4,,,,,,,,,,,342.0897,1,343.0859,343.0859,343.4875,right,1,0.3996,,343.4875,344.4846,6,14,110,4,1,partial,1,images/Ex13.jpg,right,training,hard,2,,,,,
,,,,,604d5e61486bd0622d2102c0,001,24,Female,British,College,2024-03-06_13h27.07.418,CRL1h,2023.2.3,Win32,144.9275362,65e67470ae2fbf2172c317b2,65e86f082f08b3751d9548e4,,,,,,,,,,,344.485,0.7,345.184,345.184,346.1892,right,0,1.004,,346.1893,347.1851,6,15,111,3,1,partial,1,images/Ex12.jpg,left,training,hard,2,,,,,
,,,,,604d5e61486bd0622d2102c0,001,24,Female,British,College,2024-03-06_13h27.07.418,CRL1h,2023.2.3,Win32,144.9275362,65e67470ae2fbf2172c317b2,65e86f082f08b3751d9548e4,,,,,,,,,,,347.1854,1.2,348.3829,348.383,348.9441,right,1,0.5592,,348.9441,349.941,7,0,112,7,1,partial,1,images/Ex16.jpg,right,training,hard,2,,,,,
,,,,,604d5e61486bd0622d2102c0,001,24,Female,British,College,2024-03-06_13h27.07.418,CRL1h,2023.2.3,Win32,144.9275362,65e67470ae2fbf2172c317b2,65e86f082f08b3751d9548e4,,,,,,,,,,,349.9413,1.4,351.3396,351.3396,351.7418,left,1,0.3999,,351.7418,352.7389,7,1,113,3,1,partial,1,images/Ex12.jpg,left,training,hard,2,,,,,
,,,,,604d5e61486bd0622d2102c0,001,24,Female,British,College,2024-03-06_13h27.07.418,CRL1h,2023.2.3,Win32,144.9275362,65e67470ae2fbf2172c317b2,65e86f082f08b3751d9548e4,,,,,,,,,,,352.739,1.4,354.1369,354.137,354.7227,left,0,0.5846,,354.7228,355.7203,7,2,114,5,1,partial,1,images/Ex14.jpg,right,training,hard,2,,,,,
,,,,,604d5e61486bd0622d2102c0,001,24,Female,British,College,2024-03-06_13h27.07.418,CRL1h,2023.2.3,Win32,144.9275362,65e67470ae2fbf2172c317b2,65e86f082f08b3751d9548e4,,,,,,,,,,,355.7207,1.2,356.921,356.921,357.3912,left,1,0.4684,,357.3912,358.393,7,3,115,8,1,partial,1,images/Ex9.jpg,left,training,hard,2,,,,,
,,,,,604d5e61486bd0622d2102c0,001,24,Female,British,College,2024-03-06_13h27.07.418,CRL1h,2023.2.3,Win32,144.9275362,65e67470ae2fbf2172c317b2,65e86f082f08b3751d9548e4,,,,,,,,,,,358.3933,0.6,358.991,358.9911,359.5425,right,0,0.5504,,359.5425,360.542,7,4,116,10,1,partial,1,images/Ex11.jpg,left,training,hard,2,,,,,
,,,,,604d5e61486bd0622d2102c0,001,24,Female,British,College,2024-03-06_13h27.07.418,CRL1h,2023.2.3,Win32,144.9275362,65e67470ae2fbf2172c317b2,65e86f082f08b3751d9548e4,,,,,,,,,,,360.5423,0.7,361.2415,361.2415,361.8504,right,1,0.6067,,361.8504,362.8476,7,5,117,15,1,partial,1,images/Ex16.jpg,right,training,hard,2,,,,,
,,,,,604d5e61486bd0622d2102c0,001,24,Female,British,College,2024-03-06_13h27.07.418,CRL1h,2023.2.3,Win32,144.9275362,65e67470ae2fbf2172c317b2,65e86f082f08b3751d9548e4,,,,,,,,,,,362.8479,1.2,364.0457,364.0457,364.6344,left,1,0.5868,,364.6344,365.6312,7,6,118,0,1,partial,1,images/Ex9.jpg,left,training,hard,2,,,,,
,,,,,604d5e61486bd0622d2102c0,001,24,Female,British,College,2024-03-06_13h27.07.418,CRL1h,2023.2.3,Win32,144.9275362,65e67470ae2fbf2172c317b2,65e86f082f08b3751d9548e4,,,,,,,,,,,365.6318,1.3,366.933,366.933,367.4002,left,1,0.4662,,367.4003,368.399,7,7,119,2,1,partial,1,images/Ex11.jpg,left,training,hard,2,,,,,
,,,,,604d5e61486bd0622d2102c0,001,24,Female,British,College,2024-03-06_13h27.07.418,CRL1h,2023.2.3,Win32,144.9275362,65e67470ae2fbf2172c317b2,65e86f082f08b3751d9548e4,,,,,,,,,,,368.3994,1.3,369.6991,369.6991,370.5875,right,0,0.8874,,370.5875,371.5832,7,8,120,9,1,partial,1,images/Ex10.jpg,left,training,hard,2,,,,,
,,,,,604d5e61486bd0622d2102c0,001,24,Female,British,College,2024-03-06_13h27.07.418,CRL1h,2023.2.3,Win32,144.9275362,65e67470ae2fbf2172c317b2,65e86f082f08b3751d9548e4,,,,,,,,,,,371.5838,1,372.587,372.587,373.7333,left,0,1.1449,,373.7333,374.7299,7,9,121,4,1,partial,1,images/Ex13.jpg,right,training,hard,2,,,,,
,,,,,604d5e61486bd0622d2102c0,001,24,Female,British,College,2024-03-06_13h27.07.418,CRL1h,2023.2.3,Win32,144.9275362,65e67470ae2fbf2172c317b2,65e86f082f08b3751d9548e4,,,,,,,,,,,374.7302,1.5,376.2253,376.2253,376.8764,right,0,0.6489,,376.8765,377.8735,7,10,122,1,1,partial,1,images/Ex10.jpg,left,training,hard,2,,,,,
,,,,,604d5e61486bd0622d2102c0,001,24,Female,British,College,2024-03-06_13h27.07.418,CRL1h,2023.2.3,Win32,144.9275362,65e67470ae2fbf2172c317b2,65e86f082f08b3751d9548e4,,,,,,,,,,,377.8738,0.7,378.573,378.573,379.2721,right,0,0.6977,,379.2721,380.2699,7,11,123,11,1,partial,1,images/Ex12.jpg,left,training,hard,2,,,,,
,,,,,604d5e61486bd0622d2102c0,001,24,Female,British,College,2024-03-06_13h27.07.418,CRL1h,2023.2.3,Win32,144.9275362,65e67470ae2fbf2172c317b2,65e86f082f08b3751d9548e4,,,,,,,,,,,380.2704,1.3,381.5709,381.5709,382.6124,left,0,1.0401,,382.6125,383.6133,7,12,124,12,1,partial,1,images/Ex13.jpg,right,training,hard,2,,,,,
,,,,,604d5e61486bd0622d2102c0,001,24,Female,British,College,2024-03-06_13h27.07.418,CRL1h,2023.2.3,Win32,144.9275362,65e67470ae2fbf2172c317b2,65e86f082f08b3751d9548e4,,,,,,,,,,,383.6135,0.9,384.514,384.5141,385.1718,right,1,0.6549,,385.1718,386.1686,7,13,125,13,1,partial,1,images/Ex14.jpg,right,training,hard,2,,,,,
,,,,,604d5e61486bd0622d2102c0,001,24,Female,British,College,2024-03-06_13h27.07.418,CRL1h,2023.2.3,Win32,144.9275362,65e67470ae2fbf2172c317b2,65e86f082f08b3751d9548e4,,,,,,,,,,,386.1689,0.7,386.8679,386.8679,387.3178,right,1,0.448,,387.3178,388.315,7,14,126,6,1,partial,1,images/Ex15.jpg,right,training,hard,2,,,,,
,,,,,604d5e61486bd0622d2102c0,001,24,Female,British,College,2024-03-06_13h27.07.418,CRL1h,2023.2.3,Win32,144.9275362,65e67470ae2fbf2172c317b2,65e86f082f08b3751d9548e4,,,,,,,,,,,388.3154,1,389.3121,389.3121,389.7483,right,1,0.434,,389.7483,390.7457,7,15,127,14,1,partial,1,images/Ex15.jpg,right,training,hard,2,,,,,
,,,,,604d5e61486bd0622d2102c0,001,24,Female,British,College,2024-03-06_13h27.07.418,CRL1h,2023.2.3,Win32,144.9275362,65e67470ae2fbf2172c317b2,65e86f082f08b3751d9548e4,,,,,,,,,,,390.7504,1.5,392.2489,392.249,392.747,right,0,0.4954,,392.7471,393.7436,0,0,0,14,1,partial,2,images/Ex15.jpg,left,reversed,hard,2,,,,,
,,,,,604d5e61486bd0622d2102c0,001,24,Female,British,College,2024-03-06_13h27.07.418,CRL1h,2023.2.3,Win32,144.9275362,65e67470ae2fbf2172c317b2,65e86f082f08b3751d9548e4,,,,,,,,,,,393.7439,0.6,394.3395,394.3395,394.8445,left,0,0.5034,,394.8445,395.8465,0,1,1,9,1,partial,2,images/Ex10.jpg,right,reversed,hard,2,,,,,
,,,,,604d5e61486bd0622d2102c0,001,24,Female,British,College,2024-03-06_13h27.07.418,CRL1h,2023.2.3,Win32,144.9275362,65e67470ae2fbf2172c317b2,65e86f082f08b3751d9548e4,,,,,,,,,,,395.847,1,396.8437,396.8437,397.225,right,0,0.3803,,397.225,398.2231,0,2,2,10,1,partial,2,images/Ex11.jpg,left,nonreversed,hard,2,,,,,
,,,,,604d5e61486bd0622d2102c0,001,24,Female,British,College,2024-03-06_13h27.07.418,CRL1h,2023.2.3,Win32,144.9275362,65e67470ae2fbf2172c317b2,65e86f082f08b3751d9548e4,,,,,,,,,,,398.2233,1.5,399.7192,399.7193,400.2707,left,0,0.5505,,400.2707,401.2681,0,3,3,8,1,partial,2,images/Ex9.jpg,right,reversed,hard,2,,,,,
,,,,,604d5e61486bd0622d2102c0,001,24,Female,British,College,2024-03-06_13h27.07.418,CRL1h,2023.2.3,Win32,144.9275362,65e67470ae2fbf2172c317b2,65e86f082f08b3751d9548e4,,,,,,,,,,,401.2686,0.9,402.1681,402.1681,402.8102,right,0,0.6407,,402.8102,403.812,0,4,4,2,1,partial,2,images/Ex11.jpg,left,nonreversed,hard,2,,,,,
,,,,,604d5e61486bd0622d2102c0,001,24,Female,British,College,2024-03-06_13h27.07.418,CRL1h,2023.2.3,Win32,144.9275362,65e67470ae2fbf2172c317b2,65e86f082f08b3751d9548e4,,,,,,,,,,,403.8122,0.8,404.6079,404.6079,405.2802,right,0,0.6703,,405.2803,406.2772,0,5,5,15,1,partial,2,images/Ex16.jpg,left,reversed,hard,2,,,,,
,,,,,604d5e61486bd0622d2102c0,001,24,Female,British,College,2024-03-06_13h27.07.418,CRL1h,2023.2.3,Win32,144.9275362,65e67470ae2fbf2172c317b2,65e86f082f08b3751d9548e4,,,,,,,,,,,406.2775,1.1,407.3728,407.3728,408.5338,left,0,1.1585,,408.5339,409.5329,0,6,6,13,1,partial,2,images/Ex14.jpg,right,nonreversed,hard,2,,,,,
,,,,,604d5e61486bd0622d2102c0,001,24,Female,British,College,2024-03-06_13h27.07.418,CRL1h,2023.2.3,Win32,144.9275362,65e67470ae2fbf2172c317b2,65e86f082f08b3751d9548e4,,,,,,,,,,,409.542,0.6,410.1398,410.1399,410.4621,right,1,0.3214,,410.4621,411.4627,0,7,7,12,1,partial,2,images/Ex13.jpg,right,nonreversed,hard,2,,,,,
,,,,,604d5e61486bd0622d2102c0,001,24,Female,British,College,2024-03-06_13h27.07.418,CRL1h,2023.2.3,Win32,144.9275362,65e67470ae2fbf2172c317b2,65e86f082f08b3751d9548e4,,,,,,,,,,,411.4632,0.7,412.16,412.16,412.5639,right,0,0.401,,412.564,413.5646,0,8,8,11,1,partial,2,images/Ex12.jpg,left,nonreversed,hard,2,,,,,
,,,,,604d5e61486bd0622d2102c0,001,24,Female,British,College,2024-03-06_13h27.07.418,CRL1h,2023.2.3,Win32,144.9275362,65e67470ae2fbf2172c317b2,65e86f082f08b3751d9548e4,,,,,,,,,,,413.5649,1.4,414.9706,414.9706,415.2325,left,1,0.2601,,415.2325,416.2336,0,9,9,6,1,partial,2,images/Ex15.jpg,left,reversed,hard,2,,,,,
,,,,,604d5e61486bd0622d2102c0,001,24,Female,British,College,2024-03-06_13h27.07.418,CRL1h,2023.2.3,Win32,144.9275362,65e67470ae2fbf2172c317b2,65e86f082f08b3751d9548e4,,,,,,,,,,,416.2339,1.3,417.5386,417.5387,417.8643,left,1,0.3245,,417.8643,418.8645,0,10,10,3,1,partial,2,images/Ex12.jpg,left,nonreversed,hard,2,,,,,
,,,,,604d5e61486bd0622d2102c0,001,24,Female,British,College,2024-03-06_13h27.07.418,CRL1h,2023.2.3,Win32,144.9275362,65e67470ae2fbf2172c317b2,65e86f082f08b3751d9548e4,,,,,,,,,,,418.8649,1,419.8621,419.8621,420.4854,right,1,0.6219,,420.4855,421.4824,0,11,11,0,1,partial,2,images/Ex9.jpg,right,reversed,hard,2,,,,,
,,,,,604d5e61486bd0622d2102c0,001,24,Female,British,College,2024-03-06_13h27.07.418,CRL1h,2023.2.3,Win32,144.9275362,65e67470ae2fbf2172c317b2,65e86f082f08b3751d9548e4,,,,,,,,,,,421.4828,0.7,422.1817,422.1818,422.9036,left,0,0.7203,,422.9037,423.8986,0,12,12,5,1,partial,2,images/Ex14.jpg,right,nonreversed,hard,2,,,,,
,,,,,604d5e61486bd0622d2102c0,001,24,Female,British,College,2024-03-06_13h27.07.418,CRL1h,2023.2.3,Win32,144.9275362,65e67470ae2fbf2172c317b2,65e86f082f08b3751d9548e4,,,,,,,,,,,423.8988,0.7,424.5982,424.5982,425.1178,right,1,0.5182,,425.1178,426.1144,0,13,13,4,1,partial,2,images/Ex13.jpg,right,nonreversed,hard,2,,,,,
,,,,,604d5e61486bd0622d2102c0,001,24,Female,British,College,2024-03-06_13h27.07.418,CRL1h,2023.2.3,Win32,144.9275362,65e67470ae2fbf2172c317b2,65e86f082f08b3751d9548e4,,,,,,,,,,,426.1148,1.1,427.2099,427.2099,427.8778,right,0,0.667,,427.8778,428.875,0,14,14,7,1,partial,2,images/Ex16.jpg,left,reversed,hard,2,,,,,
,,,,,604d5e61486bd0622d2102c0,001,24,Female,British,College,2024-03-06_13h27.07.418,CRL1h,2023.2.3,Win32,144.9275362,65e67470ae2fbf2172c317b2,65e86f082f08b3751d9548e4,,,,,,,,,,,428.8754,0.9,429.7753,429.7753,430.3593,right,1,0.583,,430.3593,431.356,0,15,15,1,1,partial,2,images/Ex10.jpg,right,reversed,hard,2,,,,,
,,,,,604d5e61486bd0622d2102c0,001,24,Female,British,College,2024-03-06_13h27.07.418,CRL1h,2023.2.3,Win32,144.9275362,65e67470ae2fbf2172c317b2,65e86f082f08b3751d9548e4,,,,,,,,,,,431.3565,1.1,432.457,432.457,432.9258,right,0,0.4679,,432.9259,433.9227,1,0,16,14,1,partial,2,images/Ex15.jpg,left,reversed,hard,2,,,,,
,,,,,604d5e61486bd0622d2102c0,001,24,Female,British,College,2024-03-06_13h27.07.418,CRL1h,2023.2.3,Win32,144.9275362,65e67470ae2fbf2172c317b2,65e86f082f08b3751d9548e4,,,,,,,,,,,433.9231,0.9,434.8204,434.8204,435.3629,left,1,0.5418,,435.3629,436.362,1,1,17,10,1,partial,2,images/Ex11.jpg,left,nonreversed,hard,2,,,,,
,,,,,604d5e61486bd0622d2102c0,001,24,Female,British,College,2024-03-06_13h27.07.418,CRL1h,2023.2.3,Win32,144.9275362,65e67470ae2fbf2172c317b2,65e86f082f08b3751d9548e4,,,,,,,,,,,436.3625,0.7,437.0617,437.0618,437.8878,right,0,0.8246,,437.8879,438.8934,1,2,18,3,1,partial,2,images/Ex12.jpg,left,nonreversed,hard,2,,,,,
,,,,,604d5e61486bd0622d2102c0,001,24,Female,British,College,2024-03-06_13h27.07.418,CRL1h,2023.2.3,Win32,144.9275362,65e67470ae2fbf2172c317b2,65e86f082f08b3751d9548e4,,,,,,,,,,,438.8937,0.6,439.489,439.4891,440.1202,left,0,0.6301,,440.1202,441.1192,1,3,19,8,1,partial,2,images/Ex9.jpg,right,reversed,hard,2,,,,,
,,,,,604d5e61486bd0622d2102c0,001,24,Female,British,College,2024-03-06_13h27.07.418,CRL1h,2023.2.3,Win32,144.9275362,65e67470ae2fbf2172c317b2,65e86f082f08b3751d9548e4,,,,,,,,,,,441.1196,0.9,442.0192,442.0192,442.7956,left,0,0.7744,,442.7957,443.7966,1,4,20,13,1,partial,2,images/Ex14.jpg,right,nonreversed,hard,2,,,,,
,,,,,604d5e61486bd0622d2102c0,001,24,Female,British,College,2024-03-06_13h27.07.418,CRL1h,2023.2.3,Win32,144.9275362,65e67470ae2fbf2172c317b2,65e86f082f08b3751d9548e4,,,,,,,,,,,443.797,1.4,445.1953,445.1953,445.7687,right,0,0.5725,,445.7689,446.7667,1,5,21,15,1,partial,2,images/Ex16.jpg,left,reversed,hard,2,,,,,
,,,,,604d5e61486bd0622d2102c0,001,24,Female,British,College,2024-03-06_13h27.07.418,CRL1h,2023.2.3,Win32,144.9275362,65e67470ae2fbf2172c317b2,65e86f082f08b3751d9548e4,,,,,,,,,,,446.7672,1.2,447.9646,447.9647,448.4938,left,1,0.5265,,448.4938,449.4956,1,6,22,6,1,partial,2,images/Ex15.jpg,left,reversed,hard,2,,,,,
,,,,,604d5e61486bd0622d2102c0,001,24,Female,British,College,2024-03-06_13h27.07.418,CRL1h,2023.2.3,Win32,144.9275362,65e67470ae2fbf2172c317b2,65e86f082f08b3751d9548e4,,,,,,,,,,,449.496,0.6,450.0976,450.0976,450.481,left,1,0.3806,,450.4811,451.4828,1,7,23,11,1,partial,2,images/Ex12.jpg,left,nonreversed,hard,2,,,,,
,,,,,604d5e61486bd0622d2102c0,001,24,Female,British,College,2024-03-06_13h27.07.418,CRL1h,2023.2.3,Win32,144.9275362,65e67470ae2fbf2172c317b2,65e86f082f08b3751d9548e4,,,,,,,,,,,451.4831,1.5,452.9803,452.9803,453.2343,left,0,0.2527,,453.2344,454.2334,1,8,24,9,1,partial,2,images/Ex10.jpg,right,reversed,hard,2,,,,,
,,,,,604d5e61486bd0622d2102c0,001,24,Female,British,College,2024-03-06_13h27.07.418,CRL1h,2023.2.3,Win32,144.9275362,65e67470ae2fbf2172c317b2,65e86f082f08b3751d9548e4,,,,,,,,,,,454.2339,0.8,455.03,455.03,455.2896,right,0,0.2585,,455.2896,456.2903,1,9,25,7,1,partial,2,images/Ex16.jpg,left,reversed,hard,2,,,,,
,,,,,604d5e61486bd0622d2102c0,001,24,Female,British,College,2024-03-06_13h27.07.418,CRL1h,2023.2.3,Win32,144.9275362,65e67470ae2fbf2172c317b2,65e86f082f08b3751d9548e4,,,,,,,,,,,456.2908,1,457.2873,457.2873,457.488,left,0,0.1981,,457.4881,458.4853,1,10,26,5,1,partial,2,images/Ex14.jpg,right,nonreversed,hard,2,,,,,
,,,,,604d5e61486bd0622d2102c0,001,24,Female,British,College,2024-03-06_13h27.07.418,CRL1h,2023.2.3,Win32,144.9275362,65e67470ae2fbf2172c317b2,65e86f082f08b3751d9548e4,,,,,,,,,,,458.4857,1,459.4824,459.4824,459.6696,right,0,0.1853,,459.6697,460.6662,1,11,27,2,1,partial,2,images/Ex11.jpg,left,nonreversed,hard,2,,,,,
,,,,,604d5e61486bd0622d2102c0,001,24,Female,British,College,2024-03-06_13h27.07.418,CRL1h,2023.2.3,Win32,144.9275362,65e67470ae2fbf2172c317b2,65e86f082f08b3751d9548e4,,,,,,,,,,,460.6666,0.8,461.4626,461.4626,461.6842,left,0,0.2195,,461.6842,462.6816,1,12,28,4,1,partial,2,images/Ex13.jpg,right,nonreversed,hard,2,,,,,
,,,,,604d5e61486bd0622d2102c0,001,24,Female,British,College,2024-03-06_13h27.07.418,CRL1h,2023.2.3,Win32,144.9275362,65e67470ae2fbf2172c317b2,65e86f082f08b3751d9548e4,,,,,,,,,,,462.6821,1.5,464.184,464.1841,464.5165,left,0,0.3305,,464.5166,465.513,1,13,29,1,1,partial,2,images/Ex10.jpg,right,reversed,hard,2,,,,,
,,,,,604d5e61486bd0622d2102c0,001,24,Female,British,College,2024-03-06_13h27.07.418,CRL1h,2023.2.3,Win32,144.9275362,65e67470ae2fbf2172c317b2,65e86f082f08b3751d9548e4,,,,,,,,,,,465.5131,1,466.5106,466.5106,466.739,right,1,0.2257,,466.739,467.736,1,14,30,12,1,partial,2,images/Ex13.jpg,right,nonreversed,hard,2,,,,,
,,,,,604d5e61486bd0622d2102c0,001,24,Female,British,College,2024-03-06_13h27.07.418,CRL1h,2023.2.3,Win32,144.9275362,65e67470ae2fbf2172c317b2,65e86f082f08b3751d9548e4,,,,,,,,,,,467.7364,0.8,468.5322,468.5322,468.9967,right,1,0.4632,,468.9967,469.9932,1,15,31,0,1,partial,2,images/Ex9.jpg,right,reversed,hard,2,,,,,
,,,,,604d5e61486bd0622d2102c0,001,24,Female,British,College,2024-03-06_13h27.07.418,CRL1h,2023.2.3,Win32,144.9275362,65e67470ae2fbf2172c317b2,65e86f082f08b3751d9548e4,,,,,,,,,,,469.9935,1.2,471.1914,471.1914,471.7941,right,0,0.6003,,471.7942,472.7905,2,0,32,7,1,partial,2,images/Ex16.jpg,left,reversed,hard,2,,,,,
,,,,,604d5e61486bd0622d2102c0,001,24,Female,British,College,2024-03-06_13h27.07.418,CRL1h,2023.2.3,Win32,144.9275362,65e67470ae2fbf2172c317b2,65e86f082f08b3751d9548e4,,,,,,,,,,,472.7907,1.4,474.1896,474.1896,474.4881,left,0,0.2965,,474.4882,475.4843,2,1,33,8,1,partial,2,images/Ex9.jpg,right,reversed,hard,2,,,,,
,,,,,604d5e61486bd0622d2102c0,001,24,Female,British,College,2024-03-06_13h27.07.418,CRL1h,2023.2.3,Win32,144.9275362,65e67470ae2fbf2172c317b2,65e86f082f08b3751d9548e4,,,,,,,,,,,475.4847,0.9,476.3844,476.3845,476.701,right,0,0.3157,,476.701,477.6998,2,2,34,6,1,partial,2,images/Ex15.jpg,left,reversed,hard,2,,,,,
,,,,,604d5e61486bd0622d2102c0,001,24,Female,British,College,2024-03-06_13h27.07.418,CRL1h,2023.2.3,Win32,144.9275362,65e67470ae2fbf2172c317b2,65e86f082f08b3751d9548e4,,,,,,,,,,,477.7002,0.7,478.3991,478.3992,479.0482,right,0,0.648,,479.0482,480.0452,2,3,35,15,1,partial,2,images/Ex16.jpg,left,reversed,hard,2,,,,,
,,,,,604d5e61486bd0622d2102c0,001,24,Female,British,College,2024-03-06_13h27.07.418,CRL1h,2023.2.3,Win32,144.9275362,65e67470ae2fbf2172c317b2,65e86f082f08b3751d9548e4,,,,,,,,,,,480.0456,0.8,480.8418,480.8418,481.2914,right,0,0.4486,,481.2915,482.2911,2,4,36,14,1,partial,2,images/Ex15.jpg,left,reversed,hard,2,,,,,
,,,,,604d5e61486bd0622d2102c0,001,24,Female,British,College,2024-03-06_13h27.07.418,CRL1h,2023.2.3,Win32,144.9275362,65e67470ae2fbf2172c317b2,65e86f082f08b3751d9548e4,,,,,,,,,,,482.2917,1.3,483.5946,483.5946,483.8419,left,0,0.2461,,483.8421,484.839,2,5,37,0,1,partial,2,images/Ex9.jpg,right,reversed,hard,2,,,,,
,,,,,604d5e61486bd0622d2102c0,001,24,Female,British,College,2024-03-06_13h27.07.418,CRL1h,2023.2.3,Win32,144.9275362,65e67470ae2fbf2172c317b2,65e86f082f08b3751d9548e4,,,,,,,,,,,484.8397,1.3,486.1407,486.1409,486.3481,left,0,0.2051,,486.3482,487.3455,2,6,38,1,1,partial,2,images/Ex10.jpg,right,reversed,hard,2,,,,,
,,,,,604d5e61486bd0622d2102c0,001,24,Female,British,College,2024-03-06_13h27.07.418,CRL1h,2023.2.3,Win32,144.9275362,65e67470ae2fbf2172c317b2,65e86f082f08b3751d9548e4,,,,,,,,,,,487.3461,0.8,488.1417,488.1417,488.474,right,1,0.3306,,488.474,489.4718,2,7,39,9,1,partial,2,images/Ex10.jpg,right,reversed,hard,2,,,,,
,,,,,604d5e61486bd0622d2102c0,001,24,Female,British,College,2024-03-06_13h27.07.418,CRL1h,2023.2.3,Win32,144.9275362,65e67470ae2fbf2172c317b2,65e86f082f08b3751d9548e4,,,,,,,,,,,489.4721,1.4,490.8701,490.8702,491.3221,right,0,0.4501,,491.3221,492.3173,2,8,40,3,1,partial,2,images/Ex12.jpg,left,nonreversed,hard,2,,,,,
,,,,,604d5e61486bd0622d2102c0,001,24,Female,British,College,2024-03-06_13h27.07.418,CRL1h,2023.2.3,Win32,144.9275362,65e67470ae2fbf2172c317b2,65e86f082f08b3751d9548e4,,,,,,,,,,,492.3178,1.2,493.5151,493.5151,493.7579,left,0,0.2404,,493.7579,494.7544,2,9,41,5,1,partial,2,images/Ex14.jpg,right,nonreversed,hard,2,,,,,
,,,,,604d5e61486bd0622d2102c0,001,24,Female,British,College,2024-03-06_13h27.07.418,CRL1h,2023.2.3,Win32,144.9275362,65e67470ae2fbf2172c317b2,65e86f082f08b3751d9548e4,,,,,,,,,,,494.7547,1.1,495.8551,495.8553,496.4375,right,1,0.5803,,496.4376,497.4347,2,10,42,13,1,partial,2,images/Ex14.jpg,right,nonreversed,hard,2,,,,,
,,,,,604d5e61486bd0622d2102c0,001,24,Female,British,College,2024-03-06_13h27.07.418,CRL1h,2023.2.3,Win32,144.9275362,65e67470ae2fbf2172c317b2,65e86f082f08b3751d9548e4,,,,,,,,,,,497.435,1.1,498.535,498.5351,498.9374,left,0,0.4007,,498.9374,499.9337,2,11,43,4,1,partial,2,images/Ex13.jpg,right,nonreversed,hard,2,,,,,
,,,,,604d5e61486bd0622d2102c0,001,24,Female,British,College,2024-03-06_13h27.07.418,CRL1h,2023.2.3,Win32,144.9275362,65e67470ae2fbf2172c317b2,65e86f082f08b3751d9548e4,,,,,,,,,,,499.9343,0.5,500.4318,500.4318,500.7996,right,0,0.3654,,500.7996,501.7973,2,12,44,11,1,partial,2,images/Ex12.jpg,left,nonreversed,hard,2,,,,,
,,,,,604d5e61486bd0622d2102c0,001,24,Female,British,College,2024-03-06_13h27.07.418,CRL1h,2023.2.3,Win32,144.9275362,65e67470ae2fbf2172c317b2,65e86f082f08b3751d9548e4,,,,,,,,,,,501.7976,1.4,503.195,503.195,503.8026,right,1,0.6066,,503.8026,504.8018,2,13,45,12,1,partial,2,images/Ex13.jpg,right,nonreversed,hard,2,,,,,
,,,,,604d5e61486bd0622d2102c0,001,24,Female,British,College,2024-03-06_13h27.07.418,CRL1h,2023.2.3,Win32,144.9275362,65e67470ae2fbf2172c317b2,65e86f082f08b3751d9548e4,,,,,,,,,,,504.8024,1.5,506.3081,506.3081,507.0538,left,1,0.7445,,507.0539,508.0498,2,14,46,2,1,partial,2,images/Ex11.jpg,left,nonreversed,hard,2,,,,,
,,,,,604d5e61486bd0622d2102c0,001,24,Female,British,College,2024-03-06_13h27.07.418,CRL1h,2023.2.3,Win32,144.9275362,65e67470ae2fbf2172c317b2,65e86f082f08b3751d9548e4,,,,,,,,,,,508.0502,1.2,509.2472,509.2472,509.96,left,1,0.7117,,509.96,510.9574,2,15,47,10,1,partial,2,images/Ex11.jpg,left,nonreversed,hard,2,,,,,
,,,,,604d5e61486bd0622d2102c0,001,24,Female,British,College,2024-03-06_13h27.07.418,CRL1h,2023.2.3,Win32,144.9275362,65e67470ae2fbf2172c317b2,65e86f082f08b3751d9548e4,,,,,,,,,,,510.9579,1,511.9544,511.9544,512.8753,left,1,0.9187,,512.8753,513.8721,3,0,48,14,1,partial,2,images/Ex15.jpg,left,reversed,hard,2,,,,,
,,,,,604d5e61486bd0622d2102c0,001,24,Female,British,College,2024-03-06_13h27.07.418,CRL1h,2023.2.3,Win32,144.9275362,65e67470ae2fbf2172c317b2,65e86f082f08b3751d9548e4,,,,,,,,,,,513.8724,1.3,515.1677,515.1677,515.8405,left,1,0.6718,,515.8405,516.8355,3,1,49,2,1,partial,2,images/Ex11.jpg,left,nonreversed,hard,2,,,,,
,,,,,604d5e61486bd0622d2102c0,001,24,Female,British,College,2024-03-06_13h27.07.418,CRL1h,2023.2.3,Win32,144.9275362,65e67470ae2fbf2172c317b2,65e86f082f08b3751d9548e4,,,,,,,,,,,516.836,1.4,518.2343,518.2343,518.9687,right,1,0.7325,,518.9688,519.9657,3,2,50,1,1,partial,2,images/Ex10.jpg,right,reversed,hard,2,,,,,
,,,,,604d5e61486bd0622d2102c0,001,24,Female,British,College,2024-03-06_13h27.07.418,CRL1h,2023.2.3,Win32,144.9275362,65e67470ae2fbf2172c317b2,65e86f082f08b3751d9548e4,,,,,,,,,,,519.9662,1.1,521.0667,521.0667,521.7453,left,0,0.6764,,521.7453,522.7423,3,3,51,0,1,partial,2,images/Ex9.jpg,right,reversed,hard,2,,,,,
,,,,,604d5e61486bd0622d2102c0,001,24,Female,British,College,2024-03-06_13h27.07.418,CRL1h,2023.2.3,Win32,144.9275362,65e67470ae2fbf2172c317b2,65e86f082f08b3751d9548e4,,,,,,,,,,,522.7426,0.8,523.5386,523.5386,524.0373,right,1,0.4977,,524.0374,525.0342,3,4,52,8,1,partial,2,images/Ex9.jpg,right,reversed,hard,2,,,,,
,,,,,604d5e61486bd0622d2102c0,001,24,Female,British,College,2024-03-06_13h27.07.418,CRL1h,2023.2.3,Win32,144.9275362,65e67470ae2fbf2172c317b2,65e86f082f08b3751d9548e4,,,,,,,,,,,525.0345,1.4,526.433,526.433,527.1327,left,1,0.6984,,527.1327,528.1294,3,5,53,3,1,partial,2,images/Ex12.jpg,left,nonreversed,hard,2,,,,,
,,,,,604d5e61486bd0622d2102c0,001,24,Female,British,College,2024-03-06_13h27.07.418,CRL1h,2023.2.3,Win32,144.9275362,65e67470ae2fbf2172c317b2,65e86f082f08b3751d9548e4,,,,,,,,,,,528.1299,0.8,528.9257,528.9257,529.4872,left,1,0.5597,,529.4872,530.4834,3,6,54,11,1,partial,2,images/Ex12.jpg,left,nonreversed,hard,2,,,,,
,,,,,604d5e61486bd0622d2102c0,001,24,Female,British,College,2024-03-06_13h27.07.418,CRL1h,2023.2.3,Win32,144.9275362,65e67470ae2fbf2172c317b2,65e86f082f08b3751d9548e4,,,,,,,,,,,530.4837,1,531.4807,531.4807,532.3227,right,1,0.8408,,532.3227,533.32,3,7,55,4,1,partial,2,images/Ex13.jpg,right,nonreversed,hard,2,,,,,
,,,,,604d5e61486bd0622d2102c0,001,24,Female,British,College,2024-03-06_13h27.07.418,CRL1h,2023.2.3,Win32,144.9275362,65e67470ae2fbf2172c317b2,65e86f082f08b3751d9548e4,,,,,,,,,,,533.3207,1.3,534.6223,534.6223,535.415,left,0,0.7913,,535.4151,536.4144,3,8,56,9,1,partial,2,images/Ex10.jpg,right,reversed,hard,2,,,,,
,,,,,604d5e61486bd0622d2102c0,001,24,Female,British,College,2024-03-06_13h27.07.418,CRL1h,2023.2.3,Win32,144.9275362,65e67470ae2fbf2172c317b2,65e86f082f08b3751d9548e4,,,,,,,,,,,536.4146,0.9,537.3106,537.3106,538.1147,right,1,0.8032,,538.1149,539.1112,3,9,57,5,1,partial,2,images/Ex14.jpg,right,nonreversed,hard,2,,,,,
,,,,,604d5e61486bd0622d2102c0,001,24,Female,British,College,2024-03-06_13h27.07.418,CRL1h,2023.2.3,Win32,144.9275362,65e67470ae2fbf2172c317b2,65e86f082f08b3751d9548e4,,,,,,,,,,,539.112,1,540.1079,540.1079,541.0705,left,1,0.9598,,541.0706,542.0677,3,10,58,7,1,partial,2,images/Ex16.jpg,left,reversed,hard,2,,,,,
,,,,,604d5e61486bd0622d2102c0,001,24,Female,British,College,2024-03-06_13h27.07.418,CRL1h,2023.2.3,Win32,144.9275362,65e67470ae2fbf2172c317b2,65e86f082f08b3751d9548e4,,,,,,,,,,,542.0681,1.2,543.2655,543.2657,544.0522,left,1,0.7858,,544.0523,545.0497,3,11,59,10,1,partial,2,images/Ex11.jpg,left,nonreversed,hard,2,,,,,
,,,,,604d5e61486bd0622d2102c0,001,24,Female,British,College,2024-03-06_13h27.07.418,CRL1h,2023.2.3,Win32,144.9275362,65e67470ae2fbf2172c317b2,65e86f082f08b3751d9548e4,,,,,,,,,,,545.05,1.3,546.3515,546.3515,547.0118,right,1,0.657,,547.0119,548.0087,3,12,60,13,1,partial,2,images/Ex14.jpg,right,nonreversed,hard,2,,,,,
,,,,,604d5e61486bd0622d2102c0,001,24,Female,British,College,2024-03-06_13h27.07.418,CRL1h,2023.2.3,Win32,144.9275362,65e67470ae2fbf2172c317b2,65e86f082f08b3751d9548e4,,,,,,,,,,,548.0092,0.8,548.8051,548.8051,549.9084,right,1,1.1022,,549.9084,550.9036,3,13,61,12,1,partial,2,images/Ex13.jpg,right,nonreversed,hard,2,,,,,
,,,,,604d5e61486bd0622d2102c0,001,24,Female,British,College,2024-03-06_13h27.07.418,CRL1h,2023.2.3,Win32,144.9275362,65e67470ae2fbf2172c317b2,65e86f082f08b3751d9548e4,,,,,,,,,,,550.904,1.1,552.004,552.0041,552.8533,left,1,0.8484,,552.8533,553.8503,3,14,62,15,1,partial,2,images/Ex16.jpg,left,reversed,hard,2,,,,,
,,,,,604d5e61486bd0622d2102c0,001,24,Female,British,College,2024-03-06_13h27.07.418,CRL1h,2023.2.3,Win32,144.9275362,65e67470ae2fbf2172c317b2,65e86f082f08b3751d9548e4,,,,,,,,,,,553.8505,0.8,554.6465,554.6466,555.5557,left,1,0.9076,,555.5557,556.5551,3,15,63,6,1,partial,2,images/Ex15.jpg,left,reversed,hard,2,,,,,
,,,,,604d5e61486bd0622d2102c0,001,24,Female,British,College,2024-03-06_13h27.07.418,CRL1h,2023.2.3,Win32,144.9275362,65e67470ae2fbf2172c317b2,65e86f082f08b3751d9548e4,,,,,,556.5561,562.2306,space,5.6657,,562.2372,1.1,563.3355,563.3355,564.4618,left,0,1.1221,,564.4618,565.458,0,0,0,5,1,total,1,images/Ex6.jpg,right,training,hard,2,,,,,
,,,,,604d5e61486bd0622d2102c0,001,24,Female,British,College,2024-03-06_13h27.07.418,CRL1h,2023.2.3,Win32,144.9275362,65e67470ae2fbf2172c317b2,65e86f082f08b3751d9548e4,,,,,,,,,,,565.4583,1.4,566.8541,566.8542,567.6634,left,0,0.8082,,567.6635,568.6612,0,1,1,15,1,total,1,images/Ex8.jpg,right,training,hard,2,,,,,
,,,,,604d5e61486bd0622d2102c0,001,24,Female,British,College,2024-03-06_13h27.07.418,CRL1h,2023.2.3,Win32,144.9275362,65e67470ae2fbf2172c317b2,65e86f082f08b3751d9548e4,,,,,,,,,,,568.6617,0.5,569.1571,569.1572,569.9629,right,1,0.8046,,569.9629,570.9625,0,2,2,14,1,total,1,images/Ex7.jpg,right,training,hard,2,,,,,
,,,,,604d5e61486bd0622d2102c0,001,24,Female,British,College,2024-03-06_13h27.07.418,CRL1h,2023.2.3,Win32,144.9275362,65e67470ae2fbf2172c317b2,65e86f082f08b3751d9548e4,,,,,,,,,,,570.9628,0.6,571.5582,571.5582,572.0773,left,1,0.5171,,572.0773,573.0744,0,3,3,0,1,total,1,images/Ex1.jpg,left,training,hard,2,,,,,
,,,,,604d5e61486bd0622d2102c0,001,24,Female,British,College,2024-03-06_13h27.07.418,CRL1h,2023.2.3,Win32,144.9275362,65e67470ae2fbf2172c317b2,65e86f082f08b3751d9548e4,,,,,,,,,,,573.0747,1.4,574.4733,574.4733,574.871,right,0,0.3971,,574.871,575.8718,0,4,4,8,1,total,1,images/Ex1.jpg,left,training,hard,2,,,,,
,,,,,604d5e61486bd0622d2102c0,001,24,Female,British,College,2024-03-06_13h27.07.418,CRL1h,2023.2.3,Win32,144.9275362,65e67470ae2fbf2172c317b2,65e86f082f08b3751d9548e4,,,,,,,,,,,575.8722,1.2,577.0695,577.0695,577.5549,left,1,0.4817,,577.555,578.5561,0,5,5,10,1,total,1,images/Ex3.jpg,left,training,hard,2,,,,,
,,,,,604d5e61486bd0622d2102c0,001,24,Female,British,College,2024-03-06_13h27.07.418,CRL1h,2023.2.3,Win32,144.9275362,65e67470ae2fbf2172c317b2,65e86f082f08b3751d9548e4,,,,,,,,,,,578.5564,0.7,579.2558,579.2558,579.8377,left,1,0.5809,,579.8377,580.8373,0,6,6,2,1,total,1,images/Ex3.jpg,left,training,hard,2,,,,,
,,,,,604d5e61486bd0622d2102c0,001,24,Female,British,College,2024-03-06_13h27.07.418,CRL1h,2023.2.3,Win32,144.9275362,65e67470ae2fbf2172c317b2,65e86f082f08b3751d9548e4,,,,,,,,,,,580.8376,1,581.8366,581.8366,582.3463,right,1,0.5084,,582.3464,583.3429,0,7,7,7,1,total,1,images/Ex8.jpg,right,training,hard,2,,,,,
,,,,,604d5e61486bd0622d2102c0,001,24,Female,British,College,2024-03-06_13h27.07.418,CRL1h,2023.2.3,Win32,144.9275362,65e67470ae2fbf2172c317b2,65e86f082f08b3751d9548e4,,,,,,,,,,,583.3432,0.7,584.0425,584.0425,584.8524,left,1,0.8079,,584.8525,585.8497,0,8,8,11,1,total,1,images/Ex4.jpg,left,training,hard,2,,,,,
,,,,,604d5e61486bd0622d2102c0,001,24,Female,British,College,2024-03-06_13h27.07.418,CRL1h,2023.2.3,Win32,144.9275362,65e67470ae2fbf2172c317b2,65e86f082f08b3751d9548e4,,,,,,,,,,,585.8499,1.3,587.152,587.152,587.8925,left,0,0.7379,,587.8925,588.8902,0,9,9,12,1,total,1,images/Ex5.jpg,right,training,hard,2,,,,,
,,,,,604d5e61486bd0622d2102c0,001,24,Female,British,College,2024-03-06_13h27.07.418,CRL1h,2023.2.3,Win32,144.9275362,65e67470ae2fbf2172c317b2,65e86f082f08b3751d9548e4,,,,,,,,,,,588.8907,1.4,590.2894,590.2894,590.5444,left,1,0.2519,,590.5444,591.5447,0,10,10,3,1,total,1,images/Ex4.jpg,left,training,hard,2,,,,,
,,,,,604d5e61486bd0622d2102c0,001,24,Female,British,College,2024-03-06_13h27.07.418,CRL1h,2023.2.3,Win32,144.9275362,65e67470ae2fbf2172c317b2,65e86f082f08b3751d9548e4,,,,,,,,,,,591.5449,0.7,592.242,592.242,592.8359,right,1,0.5919,,592.8359,593.8338,0,11,11,6,1,total,1,images/Ex7.jpg,right,training,hard,2,,,,,
,,,,,604d5e61486bd0622d2102c0,001,24,Female,British,College,2024-03-06_13h27.07.418,CRL1h,2023.2.3,Win32,144.9275362,65e67470ae2fbf2172c317b2,65e86f082f08b3751d9548e4,,,,,,,,,,,593.8343,0.8,594.6384,594.6385,595.312,right,0,0.6725,,595.312,596.3148,0,12,12,1,1,total,1,images/Ex2.jpg,left,training,hard,2,,,,,
,,,,,604d5e61486bd0622d2102c0,001,24,Female,British,College,2024-03-06_13h27.07.418,CRL1h,2023.2.3,Win32,144.9275362,65e67470ae2fbf2172c317b2,65e86f082f08b3751d9548e4,,,,,,,,,,,596.3153,0.7,597.0113,597.0115,598.0084,left,0,0.9937,,598.0084,599.0057,0,13,13,4,1,total,1,images/Ex5.jpg,right,training,hard,2,,,,,
,,,,,604d5e61486bd0622d2102c0,001,24,Female,British,College,2024-03-06_13h27.07.418,CRL1h,2023.2.3,Win32,144.9275362,65e67470ae2fbf2172c317b2,65e86f082f08b3751d9548e4,,,,,,,,,,,599.0059,1,600.0029,600.0031,600.2597,right,0,0.254,,600.2598,601.2561,0,14,14,9,1,total,1,images/Ex2.jpg,left,training,hard,2,,,,,
,,,,,604d5e61486bd0622d2102c0,001,24,Female,British,College,2024-03-06_13h27.07.418,CRL1h,2023.2.3,Win32,144.9275362,65e67470ae2fbf2172c317b2,65e86f082f08b3751d9548e4,,,,,,,,,,,601.2565,0.5,601.7549,601.7549,602.487,right,1,0.731,,602.487,603.4863,0,15,15,13,1,total,1,images/Ex6.jpg,right,training,hard,2,,,,,
,,,,,604d5e61486bd0622d2102c0,001,24,Female,British,College,2024-03-06_13h27.07.418,CRL1h,2023.2.3,Win32,144.9275362,65e67470ae2fbf2172c317b2,65e86f082f08b3751d9548e4,,,,,,,,,,,603.4869,1.5,604.9855,604.9856,605.3114,left,0,0.3249,,605.3114,606.3148,1,0,16,14,1,total,1,images/Ex7.jpg,right,training,hard,2,,,,,
,,,,,604d5e61486bd0622d2102c0,001,24,Female,British,College,2024-03-06_13h27.07.418,CRL1h,2023.2.3,Win32,144.9275362,65e67470ae2fbf2172c317b2,65e86f082f08b3751d9548e4,,,,,,,,,,,606.3151,0.7,607.0105,607.0106,607.7336,left,0,0.7213,,607.7337,608.7298,1,1,17,7,1,total,1,images/Ex8.jpg,right,training,hard,2,,,,,
,,,,,604d5e61486bd0622d2102c0,001,24,Female,British,College,2024-03-06_13h27.07.418,CRL1h,2023.2.3,Win32,144.9275362,65e67470ae2fbf2172c317b2,65e86f082f08b3751d9548e4,,,,,,,,,,,608.7301,1.3,610.029,610.029,610.5214,left,0,0.4909,,610.5216,611.5178,1,2,18,4,1,total,1,images/Ex5.jpg,right,training,hard,2,,,,,
,,,,,604d5e61486bd0622d2102c0,001,24,Female,British,College,2024-03-06_13h27.07.418,CRL1h,2023.2.3,Win32,144.9275362,65e67470ae2fbf2172c317b2,65e86f082f08b3751d9548e4,,,,,,,,,,,611.5181,1.3,612.8196,612.8196,613.2422,left,1,0.4209,,613.2422,614.239,1,3,19,9,1,total,1,images/Ex2.jpg,left,training,hard,2,,,,,
,,,,,604d5e61486bd0622d2102c0,001,24,Female,British,College,2024-03-06_13h27.07.418,CRL1h,2023.2.3,Win32,144.9275362,65e67470ae2fbf2172c317b2,65e86f082f08b3751d9548e4,,,,,,,,,,,614.2394,1.4,615.6377,615.6377,616.3372,left,0,0.6976,,616.3372,617.3386,1,4,20,13,1,total,1,images/Ex6.jpg,right,training,hard,2,,,,,
,,,,,604d5e61486bd0622d2102c0,001,24,Female,British,College,2024-03-06_13h27.07.418,CRL1h,2023.2.3,Win32,144.9275362,65e67470ae2fbf2172c317b2,65e86f082f08b3751d9548e4,,,,,,,,,,,617.3391,1.2,618.5367,618.5369,619.2426,left,0,0.7048,,619.2427,620.2422,1,5,21,15,1,total,1,images/Ex8.jpg,right,training,hard,2,,,,,
,,,,,604d5e61486bd0622d2102c0,001,24,Female,British,College,2024-03-06_13h27.07.418,CRL1h,2023.2.3,Win32,144.9275362,65e67470ae2fbf2172c317b2,65e86f082f08b3751d9548e4,,,,,,,,,,,620.2425,0.9,621.1426,621.1426,621.8278,left,1,0.6829,,621.8278,622.825,1,6,22,10,1,total,1,images/Ex3.jpg,left,training,hard,2,,,,,
,,,,,604d5e61486bd0622d2102c0,001,24,Female,British,College,2024-03-06_13h27.07.418,CRL1h,2023.2.3,Win32,144.9275362,65e67470ae2fbf2172c317b2,65e86f082f08b3751d9548e4,,,,,,,,,,,622.8254,0.8,623.6217,623.6217,623.9057,right,1,0.2831,,623.906,624.9021,1,7,23,12,1,total,1,images/Ex5.jpg,right,training,hard,2,,,,,
,,,,,604d5e61486bd0622d2102c0,001,24,Female,British,College,2024-03-06_13h27.07.418,CRL1h,2023.2.3,Win32,144.9275362,65e67470ae2fbf2172c317b2,65e86f082f08b3751d9548e4,,,,,,,,,,,624.9024,1.3,626.2022,626.2023,626.686,right,0,0.4827,,626.686,627.6859,1,8,24,1,1,total,1,images/Ex2.jpg,left,training,hard,2,,,,,
,,,,,604d5e61486bd0622d2102c0,001,24,Female,British,College,2024-03-06_13h27.07.418,CRL1h,2023.2.3,Win32,144.9275362,65e67470ae2fbf2172c317b2,65e86f082f08b3751d9548e4,,,,,,,,,,,627.6862,1.2,628.8842,628.8842,629.105,right,1,0.2193,,629.1051,630.1025,1,9,25,6,1,total,1,images/Ex7.jpg,right,training,hard,2,,,,,
,,,,,604d5e61486bd0622d2102c0,001,24,Female,British,College,2024-03-06_13h27.07.418,CRL1h,2023.2.3,Win32,144.9275362,65e67470ae2fbf2172c317b2,65e86f082f08b3751d9548e4,,,,,,,,,,,630.1028,0.7,630.8019,630.802,631.2045,right,0,0.4017,,631.2046,632.2004,1,10,26,8,1,total,1,images/Ex1.jpg,left,training,hard,2,,,,,
,,,,,604d5e61486bd0622d2102c0,001,24,Female,British,College,2024-03-06_13h27.07.418,CRL1h,2023.2.3,Win32,144.9275362,65e67470ae2fbf2172c317b2,65e86f082f08b3751d9548e4,,,,,,,,,,,632.2008,0.7,632.8997,632.8998,633.4507,right,0,0.55,,633.4507,634.4507,1,11,27,3,1,total,1,images/Ex4.jpg,left,training,hard,2,,,,,
,,,,,604d5e61486bd0622d2102c0,001,24,Female,British,College,2024-03-06_13h27.07.418,CRL1h,2023.2.3,Win32,144.9275362,65e67470ae2fbf2172c317b2,65e86f082f08b3751d9548e4,,,,,,,,,,,634.451,1.1,635.5475,635.5475,635.7921,right,0,0.2436,,635.7921,636.7881,1,12,28,2,1,total,1,images/Ex3.jpg,left,training,hard,2,,,,,
,,,,,604d5e61486bd0622d2102c0,001,24,Female,British,College,2024-03-06_13h27.07.418,CRL1h,2023.2.3,Win32,144.9275362,65e67470ae2fbf2172c317b2,65e86f082f08b3751d9548e4,,,,,,,,,,,636.7885,1.1,637.8867,637.8867,638.4945,left,1,0.606,,638.4946,639.4964,1,13,29,11,1,total,1,images/Ex4.jpg,left,training,hard,2,,,,,
,,,,,604d5e61486bd0622d2102c0,001,24,Female,British,College,2024-03-06_13h27.07.418,CRL1h,2023.2.3,Win32,144.9275362,65e67470ae2fbf2172c317b2,65e86f082f08b3751d9548e4,,,,,,,,,,,639.4969,1.1,640.5932,640.5932,641.1416,left,0,0.5472,,641.1416,642.1383,1,14,30,5,1,total,1,images/Ex6.jpg,right,training,hard,2,,,,,
,,,,,604d5e61486bd0622d2102c0,001,24,Female,British,College,2024-03-06_13h27.07.418,CRL1h,2023.2.3,Win32,144.9275362,65e67470ae2fbf2172c317b2,65e86f082f08b3751d9548e4,,,,,,,,,,,642.1387,1.4,643.54,643.54,643.8105,right,0,0.2695,,643.8106,644.8101,1,15,31,0,1,total,1,images/Ex1.jpg,left,training,hard,2,,,,,
,,,,,604d5e61486bd0622d2102c0,001,24,Female,British,College,2024-03-06_13h27.07.418,CRL1h,2023.2.3,Win32,144.9275362,65e67470ae2fbf2172c317b2,65e86f082f08b3751d9548e4,,,,,,,,,,,644.8105,1.2,646.0078,646.0078,646.2682,left,1,0.2589,,646.2682,647.2675,2,0,32,9,1,total,1,images/Ex2.jpg,left,training,hard,2,,,,,
,,,,,604d5e61486bd0622d2102c0,001,24,Female,British,College,2024-03-06_13h27.07.418,CRL1h,2023.2.3,Win32,144.9275362,65e67470ae2fbf2172c317b2,65e86f082f08b3751d9548e4,,,,,,,,,,,647.2678,1.3,648.5629,648.5629,649.4398,left,0,0.876,,649.4398,650.4369,2,1,33,6,1,total,1,images/Ex7.jpg,right,training,hard,2,,,,,
,,,,,604d5e61486bd0622d2102c0,001,24,Female,British,College,2024-03-06_13h27.07.418,CRL1h,2023.2.3,Win32,144.9275362,65e67470ae2fbf2172c317b2,65e86f082f08b3751d9548e4,,,,,,,,,,,650.4374,0.7,651.1356,651.1357,651.7197,right,1,0.5813,,651.7198,652.7182,2,2,34,12,1,total,1,images/Ex5.jpg,right,training,hard,2,,,,,
,,,,,604d5e61486bd0622d2102c0,001,24,Female,British,College,2024-03-06_13h27.07.418,CRL1h,2023.2.3,Win32,144.9275362,65e67470ae2fbf2172c317b2,65e86f082f08b3751d9548e4,,,,,,,,,,,652.7187,1.1,653.8183,653.8183,654.5548,left,0,0.7356,,654.5548,655.5521,2,3,35,13,1,total,1,images/Ex6.jpg,right,training,hard,2,,,,,
,,,,,604d5e61486bd0622d2102c0,001,24,Female,British,College,2024-03-06_13h27.07.418,CRL1h,2023.2.3,Win32,144.9275362,65e67470ae2fbf2172c317b2,65e86f082f08b3751d9548e4,,,,,,,,,,,655.5523,1.3,656.8547,656.8547,657.5291,left,1,0.6713,,657.5292,658.5282,2,4,36,0,1,total,1,images/Ex1.jpg,left,training,hard,2,,,,,
,,,,,604d5e61486bd0622d2102c0,001,24,Female,British,College,2024-03-06_13h27.07.418,CRL1h,2023.2.3,Win32,144.9275362,65e67470ae2fbf2172c317b2,65e86f082f08b3751d9548e4,,,,,,,,,,,658.5285,0.7,659.2304,659.2304,659.8765,left,1,0.644,,659.8765,660.8759,2,5,37,1,1,total,1,images/Ex2.jpg,left,training,hard,2,,,,,
,,,,,604d5e61486bd0622d2102c0,001,24,Female,British,College,2024-03-06_13h27.07.418,CRL1h,2023.2.3,Win32,144.9275362,65e67470ae2fbf2172c317b2,65e86f082f08b3751d9548e4,,,,,,,,,,,660.8762,0.8,661.6724,661.6724,662.2272,left,0,0.5542,,662.2273,663.2246,2,6,38,5,1,total,1,images/Ex6.jpg,right,training,hard,2,,,,,
,,,,,604d5e61486bd0622d2102c0,001,24,Female,British,College,2024-03-06_13h27.07.418,CRL1h,2023.2.3,Win32,144.9275362,65e67470ae2fbf2172c317b2,65e86f082f08b3751d9548e4,,,,,,,,,,,663.225,0.6,663.8237,663.8237,664.5699,left,1,0.745,,664.5699,665.5687,2,7,39,11,1,total,1,images/Ex4.jpg,left,training,hard,2,,,,,
,,,,,604d5e61486bd0622d2102c0,001,24,Female,British,College,2024-03-06_13h27.07.418,CRL1h,2023.2.3,Win32,144.9275362,65e67470ae2fbf2172c317b2,65e86f082f08b3751d9548e4,,,,,,,,,,,665.5692,1.4,666.9722,666.9722,667.7728,left,1,0.7995,,667.7728,668.7718,2,8,40,8,1,total,1,images/Ex1.jpg,left,training,hard,2,,,,,
,,,,,604d5e61486bd0622d2102c0,001,24,Female,British,College,2024-03-06_13h27.07.418,CRL1h,2023.2.3,Win32,144.9275362,65e67470ae2fbf2172c317b2,65e86f082f08b3751d9548e4,,,,,,,,,,,668.7722,1,669.7691,669.7691,670.5052,left,0,0.7341,,670.5053,671.507,2,9,41,14,1,total,1,images/Ex7.jpg,right,training,hard,2,,,,,
,,,,,604d5e61486bd0622d2102c0,001,24,Female,British,College,2024-03-06_13h27.07.418,CRL1h,2023.2.3,Win32,144.9275362,65e67470ae2fbf2172c317b2,65e86f082f08b3751d9548e4,,,,,,,,,,,671.5074,0.8,672.3035,672.3035,673.0155,left,1,0.7112,,673.0155,674.0206,2,10,42,2,1,total,1,images/Ex3.jpg,left,training,hard,2,,,,,
,,,,,604d5e61486bd0622d2102c0,001,24,Female,British,College,2024-03-06_13h27.07.418,CRL1h,2023.2.3,Win32,144.9275362,65e67470ae2fbf2172c317b2,65e86f082f08b3751d9548e4,,,,,,,,,,,674.0215,1.3,675.3198,675.3198,675.5968,right,1,0.2762,,675.5968,676.5948,2,11,43,15,1,total,1,images/Ex8.jpg,right,training,hard,2,,,,,
,,,,,604d5e61486bd0622d2102c0,001,24,Female,British,College,2024-03-06_13h27.07.418,CRL1h,2023.2.3,Win32,144.9275362,65e67470ae2fbf2172c317b2,65e86f082f08b3751d9548e4,,,,,,,,,,,676.595,0.6,677.1972,677.1972,677.7967,right,1,0.5972,,677.7968,678.7935,2,12,44,7,1,total,1,images/Ex8.jpg,right,training,hard,2,,,,,
,,,,,604d5e61486bd0622d2102c0,001,24,Female,British,College,2024-03-06_13h27.07.418,CRL1h,2023.2.3,Win32,144.9275362,65e67470ae2fbf2172c317b2,65e86f082f08b3751d9548e4,,,,,,,,,,,678.7939,0.8,679.5898,679.5899,680.2687,left,0,0.6768,,680.2687,681.2656,2,13,45,4,1,total,1,images/Ex5.jpg,right,training,hard,2,,,,,
,,,,,604d5e61486bd0622d2102c0,001,24,Female,British,College,2024-03-06_13h27.07.418,CRL1h,2023.2.3,Win32,144.9275362,65e67470ae2fbf2172c317b2,65e86f082f08b3751d9548e4,,,,,,,,,,,681.2659,0.8,682.062,682.062,682.9765,left,1,0.9128,,682.9766,683.9729,2,14,46,3,1,total,1,images/Ex4.jpg,left,training,hard,2,,,,,
,,,,,604d5e61486bd0622d2102c0,001,24,Female,British,College,2024-03-06_13h27.07.418,CRL1h,2023.2.3,Win32,144.9275362,65e67470ae2fbf2172c317b2,65e86f082f08b3751d9548e4,,,,,,,,,,,683.9733,0.9,684.8732,684.8732,685.289,right,0,0.4145,,685.2891,686.2856,2,15,47,10,1,total,1,images/Ex3.jpg,left,training,hard,2,,,,,
,,,,,604d5e61486bd0622d2102c0,001,24,Female,British,College,2024-03-06_13h27.07.418,CRL1h,2023.2.3,Win32,144.9275362,65e67470ae2fbf2172c317b2,65e86f082f08b3751d9548e4,,,,,,,,,,,686.2859,0.6,686.8818,686.8819,687.965,right,1,1.0819,,687.965,688.9653,3,0,48,13,1,total,1,images/Ex6.jpg,right,training,hard,2,,,,,
,,,,,604d5e61486bd0622d2102c0,001,24,Female,British,College,2024-03-06_13h27.07.418,CRL1h,2023.2.3,Win32,144.9275362,65e67470ae2fbf2172c317b2,65e86f082f08b3751d9548e4,,,,,,,,,,,688.9656,0.7,689.6646,689.6646,690.1921,right,0,0.5268,,690.1921,691.1889,3,1,49,2,1,total,1,images/Ex3.jpg,left,training,hard,2,,,,,
,,,,,604d5e61486bd0622d2102c0,001,24,Female,British,College,2024-03-06_13h27.07.418,CRL1h,2023.2.3,Win32,144.9275362,65e67470ae2fbf2172c317b2,65e86f082f08b3751d9548e4,,,,,,,,,,,691.1893,1.3,692.4897,692.4898,693.4878,right,1,0.9966,,693.4879,694.4842,3,2,50,7,1,total,1,images/Ex8.jpg,right,training,hard,2,,,,,
,,,,,604d5e61486bd0622d2102c0,001,24,Female,British,College,2024-03-06_13h27.07.418,CRL1h,2023.2.3,Win32,144.9275362,65e67470ae2fbf2172c317b2,65e86f082f08b3751d9548e4,,,,,,,,,,,694.4846,1.2,695.682,695.682,696.631,right,0,0.9472,,696.631,697.6275,3,3,51,11,1,total,1,images/Ex4.jpg,left,training,hard,2,,,,,
,,,,,604d5e61486bd0622d2102c0,001,24,Female,British,College,2024-03-06_13h27.07.418,CRL1h,2023.2.3,Win32,144.9275362,65e67470ae2fbf2172c317b2,65e86f082f08b3751d9548e4,,,,,,,,,,,697.6282,1.4,699.0265,699.0265,699.8782,left,1,0.8499,,699.8783,700.8801,3,4,52,1,1,total,1,images/Ex2.jpg,left,training,hard,2,,,,,
,,,,,604d5e61486bd0622d2102c0,001,24,Female,British,College,2024-03-06_13h27.07.418,CRL1h,2023.2.3,Win32,144.9275362,65e67470ae2fbf2172c317b2,65e86f082f08b3751d9548e4,,,,,,,,,,,700.8806,1,701.8835,701.8835,703.1031,left,1,1.2181,,703.1031,704.1019,3,5,53,0,1,total,1,images/Ex1.jpg,left,training,hard,2,,,,,
,,,,,604d5e61486bd0622d2102c0,001,24,Female,British,College,2024-03-06_13h27.07.418,CRL1h,2023.2.3,Win32,144.9275362,65e67470ae2fbf2172c317b2,65e86f082f08b3751d9548e4,,,,,,,,,,,704.1119,1.3,705.4103,705.4103,706.2974,right,1,0.8838,,706.2974,707.2937,3,6,54,6,1,total,1,images/Ex7.jpg,right,training,hard,2,,,,,
,,,,,604d5e61486bd0622d2102c0,001,24,Female,British,College,2024-03-06_13h27.07.418,CRL1h,2023.2.3,Win32,144.9275362,65e67470ae2fbf2172c317b2,65e86f082f08b3751d9548e4,,,,,,,,,,,707.2942,1.1,708.3897,708.3898,709.0735,left,1,0.6809,,709.0735,710.0732,3,7,55,10,1,total,1,images/Ex3.jpg,left,training,hard,2,,,,,
,,,,,604d5e61486bd0622d2102c0,001,24,Female,British,College,2024-03-06_13h27.07.418,CRL1h,2023.2.3,Win32,144.9275362,65e67470ae2fbf2172c317b2,65e86f082f08b3751d9548e4,,,,,,,,,,,710.0737,1.1,711.169,711.169,712.0376,right,1,0.8674,,712.0376,713.0377,3,8,56,5,1,total,1,images/Ex6.jpg,right,training,hard,2,,,,,
,,,,,604d5e61486bd0622d2102c0,001,24,Female,British,College,2024-03-06_13h27.07.418,CRL1h,2023.2.3,Win32,144.9275362,65e67470ae2fbf2172c317b2,65e86f082f08b3751d9548e4,,,,,,,,,,,713.0381,1.3,714.3365,714.3366,715.2157,left,0,0.877,,715.2157,716.2123,3,9,57,4,1,total,1,images/Ex5.jpg,right,training,hard,2,,,,,
,,,,,604d5e61486bd0622d2102c0,001,24,Female,British,College,2024-03-06_13h27.07.418,CRL1h,2023.2.3,Win32,144.9275362,65e67470ae2fbf2172c317b2,65e86f082f08b3751d9548e4,,,,,,,,,,,716.2128,0.9,717.1123,717.1123,718.1244,right,1,1.0101,,718.1244,719.1207,3,10,58,14,1,total,1,images/Ex7.jpg,right,training,hard,2,,,,,
,,,,,604d5e61486bd0622d2102c0,001,24,Female,British,College,2024-03-06_13h27.07.418,CRL1h,2023.2.3,Win32,144.9275362,65e67470ae2fbf2172c317b2,65e86f082f08b3751d9548e4,,,,,,,,,,,719.1215,0.7,719.8202,719.8203,721.0802,left,1,1.2579,,721.0803,722.0771,3,11,59,9,1,total,1,images/Ex2.jpg,left,training,hard,2,,,,,
,,,,,604d5e61486bd0622d2102c0,001,24,Female,British,College,2024-03-06_13h27.07.418,CRL1h,2023.2.3,Win32,144.9275362,65e67470ae2fbf2172c317b2,65e86f082f08b3751d9548e4,,,,,,,,,,,722.0856,1.1,723.185,723.1851,724.1337,right,1,0.9464,,724.1337,725.1314,3,12,60,15,1,total,1,images/Ex8.jpg,right,training,hard,2,,,,,
,,,,,604d5e61486bd0622d2102c0,001,24,Female,British,College,2024-03-06_13h27.07.418,CRL1h,2023.2.3,Win32,144.9275362,65e67470ae2fbf2172c317b2,65e86f082f08b3751d9548e4,,,,,,,,,,,725.1319,0.8,725.9269,725.9271,726.9935,right,0,1.0641,,726.9935,727.9905,3,13,61,3,1,total,1,images/Ex4.jpg,left,training,hard,2,,,,,
,,,,,604d5e61486bd0622d2102c0,001,24,Female,British,College,2024-03-06_13h27.07.418,CRL1h,2023.2.3,Win32,144.9275362,65e67470ae2fbf2172c317b2,65e86f082f08b3751d9548e4,,,,,,,,,,,727.9996,1.4,729.3961,729.3962,730.296,left,1,0.8967,,730.2961,731.2931,3,14,62,8,1,total,1,images/Ex1.jpg,left,training,hard,2,,,,,
,,,,,604d5e61486bd0622d2102c0,001,24,Female,British,College,2024-03-06_13h27.07.418,CRL1h,2023.2.3,Win32,144.9275362,65e67470ae2fbf2172c317b2,65e86f082f08b3751d9548e4,,,,,,,,,,,731.2934,1,732.2904,732.2904,733.1909,left,0,0.8983,,733.191,734.1886,3,15,63,12,1,total,1,images/Ex5.jpg,right,training,hard,2,,,,,
,,,,,604d5e61486bd0622d2102c0,001,24,Female,British,College,2024-03-06_13h27.07.418,CRL1h,2023.2.3,Win32,144.9275362,65e67470ae2fbf2172c317b2,65e86f082f08b3751d9548e4,,,,,,,,,,,734.1891,1.3,735.4939,735.4939,736.3245,right,1,0.8296,,736.3245,737.3224,4,0,64,15,1,total,1,images/Ex8.jpg,right,training,hard,2,,,,,
,,,,,604d5e61486bd0622d2102c0,001,24,Female,British,College,2024-03-06_13h27.07.418,CRL1h,2023.2.3,Win32,144.9275362,65e67470ae2fbf2172c317b2,65e86f082f08b3751d9548e4,,,,,,,,,,,737.3226,1.2,738.5203,738.5204,739.4291,left,1,0.9063,,739.4292,740.4288,4,1,65,11,1,total,1,images/Ex4.jpg,left,training,hard,2,,,,,
,,,,,604d5e61486bd0622d2102c0,001,24,Female,British,College,2024-03-06_13h27.07.418,CRL1h,2023.2.3,Win32,144.9275362,65e67470ae2fbf2172c317b2,65e86f082f08b3751d9548e4,,,,,,,,,,,740.4294,1.5,741.9289,741.929,742.836,right,1,0.9059,,742.836,743.8375,4,2,66,6,1,total,1,images/Ex7.jpg,right,training,hard,2,,,,,
,,,,,604d5e61486bd0622d2102c0,001,24,Female,British,College,2024-03-06_13h27.07.418,CRL1h,2023.2.3,Win32,144.9275362,65e67470ae2fbf2172c317b2,65e86f082f08b3751d9548e4,,,,,,,,,,,743.8378,1,744.835,744.835,745.7376,left,1,0.9016,,745.7377,746.7353,4,3,67,10,1,total,1,images/Ex3.jpg,left,training,hard,2,,,,,
,,,,,604d5e61486bd0622d2102c0,001,24,Female,British,College,2024-03-06_13h27.07.418,CRL1h,2023.2.3,Win32,144.9275362,65e67470ae2fbf2172c317b2,65e86f082f08b3751d9548e4,,,,,,,,,,,746.7357,0.7,747.4317,747.4318,748.3377,right,1,0.9049,,748.3378,749.3333,4,4,68,14,1,total,1,images/Ex7.jpg,right,training,hard,2,,,,,
,,,,,604d5e61486bd0622d2102c0,001,24,Female,British,College,2024-03-06_13h27.07.418,CRL1h,2023.2.3,Win32,144.9275362,65e67470ae2fbf2172c317b2,65e86f082f08b3751d9548e4,,,,,,,,,,,749.3337,1,750.3316,750.3317,750.9855,left,1,0.651,,750.9855,751.9831,4,5,69,8,1,total,1,images/Ex1.jpg,left,training,hard,2,,,,,
,,,,,604d5e61486bd0622d2102c0,001,24,Female,British,College,2024-03-06_13h27.07.418,CRL1h,2023.2.3,Win32,144.9275362,65e67470ae2fbf2172c317b2,65e86f082f08b3751d9548e4,,,,,,,,,,,751.9835,1.3,753.2851,753.2851,754.1574,left,1,0.8689,,754.1576,755.1581,4,6,70,1,1,total,1,images/Ex2.jpg,left,training,hard,2,,,,,
,,,,,604d5e61486bd0622d2102c0,001,24,Female,British,College,2024-03-06_13h27.07.418,CRL1h,2023.2.3,Win32,144.9275362,65e67470ae2fbf2172c317b2,65e86f082f08b3751d9548e4,,,,,,,,,,,755.1585,1.3,756.4576,756.4577,757.3216,right,0,0.8614,,757.3216,758.3235,4,7,71,3,1,total,1,images/Ex4.jpg,left,training,hard,2,,,,,
,,,,,604d5e61486bd0622d2102c0,001,24,Female,British,College,2024-03-06_13h27.07.418,CRL1h,2023.2.3,Win32,144.9275362,65e67470ae2fbf2172c317b2,65e86f082f08b3751d9548e4,,,,,,,,,,,758.3238,1.1,759.4239,759.424,760.3651,left,0,0.9404,,760.3652,761.3655,4,8,72,5,1,total,1,images/Ex6.jpg,right,training,hard,2,,,,,
,,,,,604d5e61486bd0622d2102c0,001,24,Female,British,College,2024-03-06_13h27.07.418,CRL1h,2023.2.3,Win32,144.9275362,65e67470ae2fbf2172c317b2,65e86f082f08b3751d9548e4,,,,,,,,,,,761.3658,1.2,762.5628,762.5628,763.367,right,1,0.8022,,763.367,764.3637,4,9,73,4,1,total,1,images/Ex5.jpg,right,training,hard,2,,,,,
,,,,,604d5e61486bd0622d2102c0,001,24,Female,British,College,2024-03-06_13h27.07.418,CRL1h,2023.2.3,Win32,144.9275362,65e67470ae2fbf2172c317b2,65e86f082f08b3751d9548e4,,,,,,,,,,,764.3642,1.3,765.6647,765.6648,766.3204,left,1,0.6551,,766.3204,767.3176,4,10,74,0,1,total,1,images/Ex1.jpg,left,training,hard,2,,,,,
,,,,,604d5e61486bd0622d2102c0,001,24,Female,British,College,2024-03-06_13h27.07.418,CRL1h,2023.2.3,Win32,144.9275362,65e67470ae2fbf2172c317b2,65e86f082f08b3751d9548e4,,,,,,,,,,,767.3178,0.7,768.0168,768.0168,769.0378,left,0,1.0175,,769.0378,770.0349,4,11,75,12,1,total,1,images/Ex5.jpg,right,training,hard,2,,,,,
,,,,,604d5e61486bd0622d2102c0,001,24,Female,British,College,2024-03-06_13h27.07.418,CRL1h,2023.2.3,Win32,144.9275362,65e67470ae2fbf2172c317b2,65e86f082f08b3751d9548e4,,,,,,,,,,,770.0353,0.6,770.6407,770.6408,771.4538,left,1,0.8107,,771.4538,772.4521,4,12,76,2,1,total,1,images/Ex3.jpg,left,training,hard,2,,,,,
,,,,,604d5e61486bd0622d2102c0,001,24,Female,British,College,2024-03-06_13h27.07.418,CRL1h,2023.2.3,Win32,144.9275362,65e67470ae2fbf2172c317b2,65e86f082f08b3751d9548e4,,,,,,,,,,,772.4524,0.9,773.3491,773.3491,774.1539,left,0,0.8019,,774.154,775.1535,4,13,77,13,1,total,1,images/Ex6.jpg,right,training,hard,2,,,,,
,,,,,604d5e61486bd0622d2102c0,001,24,Female,British,College,2024-03-06_13h27.07.418,CRL1h,2023.2.3,Win32,144.9275362,65e67470ae2fbf2172c317b2,65e86f082f08b3751d9548e4,,,,,,,,,,,775.1537,0.7,775.8505,775.8505,776.8523,right,1,1.0011,,776.8524,777.8428,4,14,78,7,1,total,1,images/Ex8.jpg,right,training,hard,2,,,,,
,,,,,604d5e61486bd0622d2102c0,001,24,Female,British,College,2024-03-06_13h27.07.418,CRL1h,2023.2.3,Win32,144.9275362,65e67470ae2fbf2172c317b2,65e86f082f08b3751d9548e4,,,,,,,,,,,777.8439,1.2,779.0431,779.0432,779.7355,right,0,0.6889,,779.7355,780.7344,4,15,79,9,1,total,1,images/Ex2.jpg,left,training,hard,2,,,,,
,,,,,604d5e61486bd0622d2102c0,001,24,Female,British,College,2024-03-06_13h27.07.418,CRL1h,2023.2.3,Win32,144.9275362,65e67470ae2fbf2172c317b2,65e86f082f08b3751d9548e4,,,,,,,,,,,780.7348,1.1,781.8333,781.8334,782.768,left,0,0.9308,,782.7681,783.7653,5,0,80,13,1,total,1,images/Ex6.jpg,right,training,hard,2,,,,,
,,,,,604d5e61486bd0622d2102c0,001,24,Female,British,College,2024-03-06_13h27.07.418,CRL1h,2023.2.3,Win32,144.9275362,65e67470ae2fbf2172c317b2,65e86f082f08b3751d9548e4,,,,,,,,,,,783.7656,1.1,784.8658,784.8659,785.9165,right,1,1.0496,,785.9165,786.9154,5,1,81,15,1,total,1,images/Ex8.jpg,right,training,hard,2,,,,,
,,,,,604d5e61486bd0622d2102c0,001,24,Female,British,College,2024-03-06_13h27.07.418,CRL1h,2023.2.3,Win32,144.9275362,65e67470ae2fbf2172c317b2,65e86f082f08b3751d9548e4,,,,,,,,,,,786.9157,1,787.9125,787.9125,788.6339,left,1,0.7205,,788.634,789.6304,5,2,82,10,1,total,1,images/Ex3.jpg,left,training,hard,2,,,,,
,,,,,604d5e61486bd0622d2102c0,001,24,Female,British,College,2024-03-06_13h27.07.418,CRL1h,2023.2.3,Win32,144.9275362,65e67470ae2fbf2172c317b2,65e86f082f08b3751d9548e4,,,,,,,,,,,789.6308,1.3,790.9317,790.9318,791.6109,right,1,0.6766,,791.6109,792.6079,5,3,83,12,1,total,1,images/Ex5.jpg,right,training,hard,2,,,,,
,,,,,604d5e61486bd0622d2102c0,001,24,Female,British,College,2024-03-06_13h27.07.418,CRL1h,2023.2.3,Win32,144.9275362,65e67470ae2fbf2172c317b2,65e86f082f08b3751d9548e4,,,,,,,,,,,792.6082,1.2,793.8053,793.8053,794.7082,left,1,0.9018,,794.7082,795.7097,5,4,84,1,1,total,1,images/Ex2.jpg,left,training,hard,2,,,,,
,,,,,604d5e61486bd0622d2102c0,001,24,Female,British,College,2024-03-06_13h27.07.418,CRL1h,2023.2.3,Win32,144.9275362,65e67470ae2fbf2172c317b2,65e86f082f08b3751d9548e4,,,,,,,,,,,795.71,1.3,797.0117,797.0118,797.7943,left,1,0.7799,,797.7944,798.7909,5,5,85,8,1,total,1,images/Ex1.jpg,left,training,hard,2,,,,,
,,,,,604d5e61486bd0622d2102c0,001,24,Female,British,College,2024-03-06_13h27.07.418,CRL1h,2023.2.3,Win32,144.9275362,65e67470ae2fbf2172c317b2,65e86f082f08b3751d9548e4,,,,,,,,,,,798.7914,1,799.7877,799.7877,800.8477,right,1,1.0575,,800.8477,801.8444,5,6,86,4,1,total,1,images/Ex5.jpg,right,training,hard,2,,,,,
,,,,,604d5e61486bd0622d2102c0,001,24,Female,British,College,2024-03-06_13h27.07.418,CRL1h,2023.2.3,Win32,144.9275362,65e67470ae2fbf2172c317b2,65e86f082f08b3751d9548e4,,,,,,,,,,,801.8449,1,802.8416,802.8417,803.6145,left,1,0.772,,803.6145,804.6116,5,7,87,2,1,total,1,images/Ex3.jpg,left,training,hard,2,,,,,
,,,,,604d5e61486bd0622d2102c0,001,24,Female,British,College,2024-03-06_13h27.07.418,CRL1h,2023.2.3,Win32,144.9275362,65e67470ae2fbf2172c317b2,65e86f082f08b3751d9548e4,,,,,,,,,,,804.6119,1.5,806.107,806.107,806.8575,right,0,0.7498,,806.8576,807.8547,5,8,88,3,1,total,1,images/Ex4.jpg,left,training,hard,2,,,,,
,,,,,604d5e61486bd0622d2102c0,001,24,Female,British,College,2024-03-06_13h27.07.418,CRL1h,2023.2.3,Win32,144.9275362,65e67470ae2fbf2172c317b2,65e86f082f08b3751d9548e4,,,,,,,,,,,807.855,0.9,808.7547,808.7547,809.6277,right,1,0.8715,,809.6277,810.6242,5,9,89,7,1,total,1,images/Ex8.jpg,right,training,hard,2,,,,,
,,,,,604d5e61486bd0622d2102c0,001,24,Female,British,College,2024-03-06_13h27.07.418,CRL1h,2023.2.3,Win32,144.9275362,65e67470ae2fbf2172c317b2,65e86f082f08b3751d9548e4,,,,,,,,,,,810.6246,1.4,812.0233,812.0233,813.5652,left,1,1.5409,,813.5653,814.5641,5,10,90,11,1,total,1,images/Ex4.jpg,left,training,hard,2,,,,,
,,,,,604d5e61486bd0622d2102c0,001,24,Female,British,College,2024-03-06_13h27.07.418,CRL1h,2023.2.3,Win32,144.9275362,65e67470ae2fbf2172c317b2,65e86f082f08b3751d9548e4,,,,,,,,,,,814.5723,0.6,815.1735,815.1735,816.0802,left,1,0.9034,,816.0802,817.0778,5,11,91,9,1,total,1,images/Ex2.jpg,left,training,hard,2,,,,,
,,,,,604d5e61486bd0622d2102c0,001,24,Female,British,College,2024-03-06_13h27.07.418,CRL1h,2023.2.3,Win32,144.9275362,65e67470ae2fbf2172c317b2,65e86f082f08b3751d9548e4,,,,,,,,,,,817.0783,0.7,817.777,817.777,818.2214,right,1,0.4431,,818.2214,819.2188,5,12,92,5,1,total,1,images/Ex6.jpg,right,training,hard,2,,,,,
,,,,,604d5e61486bd0622d2102c0,001,24,Female,British,College,2024-03-06_13h27.07.418,CRL1h,2023.2.3,Win32,144.9275362,65e67470ae2fbf2172c317b2,65e86f082f08b3751d9548e4,,,,,,,,,,,819.2196,0.8,820.0204,820.0205,820.6227,right,1,0.6009,,820.6227,821.6201,5,13,93,14,1,total,1,images/Ex7.jpg,right,training,hard,2,,,,,
,,,,,604d5e61486bd0622d2102c0,001,24,Female,British,College,2024-03-06_13h27.07.418,CRL1h,2023.2.3,Win32,144.9275362,65e67470ae2fbf2172c317b2,65e86f082f08b3751d9548e4,,,,,,,,,,,821.6205,1.4,823.0189,823.0189,823.47,right,0,0.4497,,823.47,824.4659,5,14,94,0,1,total,1,images/Ex1.jpg,left,training,hard,2,,,,,
,,,,,604d5e61486bd0622d2102c0,001,24,Female,British,College,2024-03-06_13h27.07.418,CRL1h,2023.2.3,Win32,144.9275362,65e67470ae2fbf2172c317b2,65e86f082f08b3751d9548e4,,,,,,,,,,,824.4662,0.5,824.9648,824.9649,825.7468,right,1,0.7801,,825.7468,826.7439,5,15,95,6,1,total,1,images/Ex7.jpg,right,training,hard,2,,,,,
,,,,,604d5e61486bd0622d2102c0,001,24,Female,British,College,2024-03-06_13h27.07.418,CRL1h,2023.2.3,Win32,144.9275362,65e67470ae2fbf2172c317b2,65e86f082f08b3751d9548e4,,,,,,,,,,,826.7441,1.4,828.1425,828.1426,828.9113,left,1,0.7669,,828.9114,829.9083,6,0,96,3,1,total,1,images/Ex4.jpg,left,training,hard,2,,,,,
,,,,,604d5e61486bd0622d2102c0,001,24,Female,British,College,2024-03-06_13h27.07.418,CRL1h,2023.2.3,Win32,144.9275362,65e67470ae2fbf2172c317b2,65e86f082f08b3751d9548e4,,,,,,,,,,,829.9086,0.5,830.4068,830.4068,831.5426,right,1,1.1335,,831.5426,832.5396,6,1,97,7,1,total,1,images/Ex8.jpg,right,training,hard,2,,,,,
,,,,,604d5e61486bd0622d2102c0,001,24,Female,British,College,2024-03-06_13h27.07.418,CRL1h,2023.2.3,Win32,144.9275362,65e67470ae2fbf2172c317b2,65e86f082f08b3751d9548e4,,,,,,,,,,,832.54,1.1,833.6402,833.6402,834.2785,right,1,0.6373,,834.2785,835.2744,6,2,98,6,1,total,1,images/Ex7.jpg,right,training,hard,2,,,,,
,,,,,604d5e61486bd0622d2102c0,001,24,Female,British,College,2024-03-06_13h27.07.418,CRL1h,2023.2.3,Win32,144.9275362,65e67470ae2fbf2172c317b2,65e86f082f08b3751d9548e4,,,,,,,,,,,835.2747,0.6,835.8699,835.8699,836.5622,left,1,0.6901,,836.5622,837.5593,6,3,99,8,1,total,1,images/Ex1.jpg,left,training,hard,2,,,,,
,,,,,604d5e61486bd0622d2102c0,001,24,Female,British,College,2024-03-06_13h27.07.418,CRL1h,2023.2.3,Win32,144.9275362,65e67470ae2fbf2172c317b2,65e86f082f08b3751d9548e4,,,,,,,,,,,837.5597,1.5,839.0551,839.0551,840.0021,left,0,0.9459,,840.0023,841.0049,6,4,100,12,1,total,1,images/Ex5.jpg,right,training,hard,2,,,,,
,,,,,604d5e61486bd0622d2102c0,001,24,Female,British,College,2024-03-06_13h27.07.418,CRL1h,2023.2.3,Win32,144.9275362,65e67470ae2fbf2172c317b2,65e86f082f08b3751d9548e4,,,,,,,,,,,841.0054,0.8,841.8044,841.8045,842.727,right,1,0.9216,,842.727,843.7296,6,5,101,5,1,total,1,images/Ex6.jpg,right,training,hard,2,,,,,
,,,,,604d5e61486bd0622d2102c0,001,24,Female,British,College,2024-03-06_13h27.07.418,CRL1h,2023.2.3,Win32,144.9275362,65e67470ae2fbf2172c317b2,65e86f082f08b3751d9548e4,,,,,,,,,,,843.7301,1.4,845.1277,845.1278,845.8408,left,1,0.7104,,845.8408,846.8382,6,6,102,2,1,total,1,images/Ex3.jpg,left,training,hard,2,,,,,
,,,,,604d5e61486bd0622d2102c0,001,24,Female,British,College,2024-03-06_13h27.07.418,CRL1h,2023.2.3,Win32,144.9275362,65e67470ae2fbf2172c317b2,65e86f082f08b3751d9548e4,,,,,,,,,,,846.8386,0.6,847.4335,847.4335,847.9664,left,1,0.5315,,847.9664,848.9639,6,7,103,10,1,total,1,images/Ex3.jpg,left,training,hard,2,,,,,
,,,,,604d5e61486bd0622d2102c0,001,24,Female,British,College,2024-03-06_13h27.07.418,CRL1h,2023.2.3,Win32,144.9275362,65e67470ae2fbf2172c317b2,65e86f082f08b3751d9548e4,,,,,,,,,,,848.9643,0.8,849.7602,849.7602,850.3165,right,0,0.5552,,850.3166,851.3115,6,8,104,11,1,total,1,images/Ex4.jpg,left,training,hard,2,,,,,
,,,,,604d5e61486bd0622d2102c0,001,24,Female,British,College,2024-03-06_13h27.07.418,CRL1h,2023.2.3,Win32,144.9275362,65e67470ae2fbf2172c317b2,65e86f082f08b3751d9548e4,,,,,,,,,,,851.312,1,852.3087,852.3087,853.1465,right,0,0.8362,,853.1465,854.1435,6,9,105,9,1,total,1,images/Ex2.jpg,left,training,hard,2,,,,,
,,,,,604d5e61486bd0622d2102c0,001,24,Female,British,College,2024-03-06_13h27.07.418,CRL1h,2023.2.3,Win32,144.9275362,65e67470ae2fbf2172c317b2,65e86f082f08b3751d9548e4,,,,,,,,,,,854.1443,0.6,854.7455,854.7455,855.7498,right,1,1.0022,,855.7498,856.7466,6,10,106,14,1,total,1,images/Ex7.jpg,right,training,hard,2,,,,,
,,,,,604d5e61486bd0622d2102c0,001,24,Female,British,College,2024-03-06_13h27.07.418,CRL1h,2023.2.3,Win32,144.9275362,65e67470ae2fbf2172c317b2,65e86f082f08b3751d9548e4,,,,,,,,,,,856.7468,0.9,857.6467,857.6468,858.381,right,1,0.7319,,858.381,859.3778,6,11,107,13,1,total,1,images/Ex6.jpg,right,training,hard,2,,,,,
,,,,,604d5e61486bd0622d2102c0,001,24,Female,British,College,2024-03-06_13h27.07.418,CRL1h,2023.2.3,Win32,144.9275362,65e67470ae2fbf2172c317b2,65e86f082f08b3751d9548e4,,,,,,,,,,,859.3781,0.7,860.0772,860.0772,860.908,left,0,0.8284,,860.9081,861.9053,6,12,108,4,1,total,1,images/Ex5.jpg,right,training,hard,2,,,,,
,,,,,604d5e61486bd0622d2102c0,001,24,Female,British,College,2024-03-06_13h27.07.418,CRL1h,2023.2.3,Win32,144.9275362,65e67470ae2fbf2172c317b2,65e86f082f08b3751d9548e4,,,,,,,,,,,861.9056,0.8,862.7017,862.7017,863.4012,left,1,0.697,,863.4012,864.398,6,13,109,0,1,total,1,images/Ex1.jpg,left,training,hard,2,,,,,
,,,,,604d5e61486bd0622d2102c0,001,24,Female,British,College,2024-03-06_13h27.07.418,CRL1h,2023.2.3,Win32,144.9275362,65e67470ae2fbf2172c317b2,65e86f082f08b3751d9548e4,,,,,,,,,,,864.3983,0.9,865.2981,865.2981,866.1844,left,1,0.8842,,866.1844,867.1817,6,14,110,1,1,total,1,images/Ex2.jpg,left,training,hard,2,,,,,
,,,,,604d5e61486bd0622d2102c0,001,24,Female,British,College,2024-03-06_13h27.07.418,CRL1h,2023.2.3,Win32,144.9275362,65e67470ae2fbf2172c317b2,65e86f082f08b3751d9548e4,,,,,,,,,,,867.1821,1.4,868.5801,868.5801,869.4052,right,1,0.8238,,869.4052,870.4056,6,15,111,15,1,total,1,images/Ex8.jpg,right,training,hard,2,,,,,
,,,,,604d5e61486bd0622d2102c0,001,24,Female,British,College,2024-03-06_13h27.07.418,CRL1h,2023.2.3,Win32,144.9275362,65e67470ae2fbf2172c317b2,65e86f082f08b3751d9548e4,,,,,,,,,,,870.4059,1.4,871.8045,871.8045,872.7318,left,0,0.9264,,872.7319,873.7296,7,0,112,14,1,total,1,images/Ex7.jpg,right,training,hard,2,,,,,
,,,,,604d5e61486bd0622d2102c0,001,24,Female,British,College,2024-03-06_13h27.07.418,CRL1h,2023.2.3,Win32,144.9275362,65e67470ae2fbf2172c317b2,65e86f082f08b3751d9548e4,,,,,,,,,,,873.7299,0.9,874.6279,874.6279,875.8622,left,1,1.2335,,875.8622,876.8589,7,1,113,2,1,total,1,images/Ex3.jpg,left,training,hard,2,,,,,
,,,,,604d5e61486bd0622d2102c0,001,24,Female,British,College,2024-03-06_13h27.07.418,CRL1h,2023.2.3,Win32,144.9275362,65e67470ae2fbf2172c317b2,65e86f082f08b3751d9548e4,,,,,,,,,,,876.8592,1.2,878.0632,878.0633,879.0425,left,1,0.9763,,879.0425,880.0444,7,2,114,11,1,total,1,images/Ex4.jpg,left,training,hard,2,,,,,
,,,,,604d5e61486bd0622d2102c0,001,24,Female,British,College,2024-03-06_13h27.07.418,CRL1h,2023.2.3,Win32,144.9275362,65e67470ae2fbf2172c317b2,65e86f082f08b3751d9548e4,,,,,,,,,,,880.0447,1,881.0415,881.0415,881.7333,left,1,0.691,,881.7334,882.7282,7,3,115,8,1,total,1,images/Ex1.jpg,left,training,hard,2,,,,,
,,,,,604d5e61486bd0622d2102c0,001,24,Female,British,College,2024-03-06_13h27.07.418,CRL1h,2023.2.3,Win32,144.9275362,65e67470ae2fbf2172c317b2,65e86f082f08b3751d9548e4,,,,,,,,,,,882.7286,0.7,883.4299,883.4299,884.2606,left,1,0.8301,,884.2606,885.2607,7,4,116,0,1,total,1,images/Ex1.jpg,left,training,hard,2,,,,,
,,,,,604d5e61486bd0622d2102c0,001,24,Female,British,College,2024-03-06_13h27.07.418,CRL1h,2023.2.3,Win32,144.9275362,65e67470ae2fbf2172c317b2,65e86f082f08b3751d9548e4,,,,,,,,,,,885.2612,1.4,886.6608,886.6608,887.8473,right,1,1.1858,,887.8474,888.8471,7,5,117,7,1,total,1,images/Ex8.jpg,right,training,hard,2,,,,,
,,,,,604d5e61486bd0622d2102c0,001,24,Female,British,College,2024-03-06_13h27.07.418,CRL1h,2023.2.3,Win32,144.9275362,65e67470ae2fbf2172c317b2,65e86f082f08b3751d9548e4,,,,,,,,,,,888.8476,1.1,889.9427,889.9427,890.6681,left,0,0.7228,,890.6681,891.6701,7,6,118,5,1,total,1,images/Ex6.jpg,right,training,hard,2,,,,,
,,,,,604d5e61486bd0622d2102c0,001,24,Female,British,College,2024-03-06_13h27.07.418,CRL1h,2023.2.3,Win32,144.9275362,65e67470ae2fbf2172c317b2,65e86f082f08b3751d9548e4,,,,,,,,,,,891.6704,1.2,892.8675,892.8675,893.8858,left,0,1.0175,,893.8858,894.8865,7,7,119,4,1,total,1,images/Ex5.jpg,right,training,hard,2,,,,,
,,,,,604d5e61486bd0622d2102c0,001,24,Female,British,College,2024-03-06_13h27.07.418,CRL1h,2023.2.3,Win32,144.9275362,65e67470ae2fbf2172c317b2,65e86f082f08b3751d9548e4,,,,,,,,,,,894.8867,1.4,896.2882,896.2883,896.7483,left,1,0.4568,,896.7485,897.7453,7,8,120,10,1,total,1,images/Ex3.jpg,left,training,hard,2,,,,,
,,,,,604d5e61486bd0622d2102c0,001,24,Female,British,College,2024-03-06_13h27.07.418,CRL1h,2023.2.3,Win32,144.9275362,65e67470ae2fbf2172c317b2,65e86f082f08b3751d9548e4,,,,,,,,,,,897.7457,1.1,898.8501,898.8501,899.7058,right,1,0.8541,,899.7058,900.7015,7,9,121,13,1,total,1,images/Ex6.jpg,right,training,hard,2,,,,,
,,,,,604d5e61486bd0622d2102c0,001,24,Female,British,College,2024-03-06_13h27.07.418,CRL1h,2023.2.3,Win32,144.9275362,65e67470ae2fbf2172c317b2,65e86f082f08b3751d9548e4,,,,,,,,,,,900.7017,0.5,901.2005,901.2005,902.2316,right,1,1.0298,,902.2316,903.2286,7,10,122,6,1,total,1,images/Ex7.jpg,right,training,hard,2,,,,,
