infCons.started,infCons.stopped,resp_consent.keys,resp_consent.rt,resp_consent.duration,participant,session,Age?,Gender?,Nationality?,Highest Educational Degree?,date,expName,psychopyVersion,OS,frameRate,STUDY_ID,SESSION_ID,instructions.started,instructions.stopped,resp_instructions.keys,resp_instructions.rt,resp_instructions.duration,nextTask.started,nextTask.stopped,ready_task.keys,ready_task.rt,ready_task.duration,fixation.started,ITI,fixation.stopped,stim.started,stim.stopped,response.keys,response.corr,response.rt,response.duration,feedback.started,feedback.stopped,trials.thisRepN,trials.thisTrialN,trials.thisN,trials.thisIndex,trials.ran,task,phase,Exemplars,r_correct,condition,difficulty,set,end.started,end.stopped,resp_end.keys,resp_end.rt,resp_end.duration
0.0003,21.5016,space,21.4695,,6128affc7322ddbb3e16dcb3,001,26,FEMALE,Scottish,Scottish Highers ,2024-03-06_14h28.33.606,CRL1h,2023.2.3,Win32,60.24096386,65e67470ae2fbf2172c317b2,65e87d724ed22479407e1c6b,,,,,,,,,,,,,,,,,,,,,,,,,,,,,,,,,,,,,,
,,,,,6128affc7322ddbb3e16dcb3,001,26,FEMALE,Scottish,Scottish Highers ,2024-03-06_14h28.33.606,CRL1h,2023.2.3,Win32,60.24096386,65e67470ae2fbf2172c317b2,65e87d724ed22479407e1c6b,21.502,51.0777,space,29.5493,,,,,,,,,,,,,,,,,,,,,,,,,,,,,,,,,,
,,,,,6128affc7322ddbb3e16dcb3,001,26,FEMALE,Scottish,Scottish Highers ,2024-03-06_14h28.33.606,CRL1h,2023.2.3,Win32,60.24096386,65e67470ae2fbf2172c317b2,65e87d724ed22479407e1c6b,,,,,,51.1003,54.075,space,2.9523,,54.0857,0.9,54.9754,54.9757,56.4079,left,0,1.4129,,56.4081,57.4125,0,0,0,7,1,total,1,images/Ex16.jpg,right,training,hard,3,,,,,
,,,,,6128affc7322ddbb3e16dcb3,001,26,FEMALE,Scottish,Scottish Highers ,2024-03-06_14h28.33.606,CRL1h,2023.2.3,Win32,60.24096386,65e67470ae2fbf2172c317b2,65e87d724ed22479407e1c6b,,,,,,,,,,,57.4136,1.1,58.5081,58.5081,59.4912,right,1,0.9802,,59.4914,60.4914,0,1,1,14,1,total,1,images/Ex15.jpg,right,training,hard,3,,,,,
,,,,,6128affc7322ddbb3e16dcb3,001,26,FEMALE,Scottish,Scottish Highers ,2024-03-06_14h28.33.606,CRL1h,2023.2.3,Win32,60.24096386,65e67470ae2fbf2172c317b2,65e87d724ed22479407e1c6b,,,,,,,,,,,60.4923,1.3,61.791,61.791,62.6912,right,0,0.8915,,62.6912,63.6913,0,2,2,11,1,total,1,images/Ex12.jpg,left,training,hard,3,,,,,
,,,,,6128affc7322ddbb3e16dcb3,001,26,FEMALE,Scottish,Scottish Highers ,2024-03-06_14h28.33.606,CRL1h,2023.2.3,Win32,60.24096386,65e67470ae2fbf2172c317b2,65e87d724ed22479407e1c6b,,,,,,,,,,,63.692,0.9,64.5908,64.5909,66.0751,left,0,1.4785,,66.0752,67.0741,0,3,3,5,1,total,1,images/Ex14.jpg,right,training,hard,3,,,,,
,,,,,6128affc7322ddbb3e16dcb3,001,26,FEMALE,Scottish,Scottish Highers ,2024-03-06_14h28.33.606,CRL1h,2023.2.3,Win32,60.24096386,65e67470ae2fbf2172c317b2,65e87d724ed22479407e1c6b,,,,,,,,,,,67.0748,1,68.074,68.0741,69.3651,left,0,1.2889,,69.3651,70.3648,0,4,4,12,1,total,1,images/Ex13.jpg,right,training,hard,3,,,,,
,,,,,6128affc7322ddbb3e16dcb3,001,26,FEMALE,Scottish,Scottish Highers ,2024-03-06_14h28.33.606,CRL1h,2023.2.3,Win32,60.24096386,65e67470ae2fbf2172c317b2,65e87d724ed22479407e1c6b,,,,,,,,,,,70.3653,0.5,70.8644,70.8645,71.9816,right,1,1.1155,,71.9818,72.9741,0,5,5,4,1,total,1,images/Ex13.jpg,right,training,hard,3,,,,,
,,,,,6128affc7322ddbb3e16dcb3,001,26,FEMALE,Scottish,Scottish Highers ,2024-03-06_14h28.33.606,CRL1h,2023.2.3,Win32,60.24096386,65e67470ae2fbf2172c317b2,65e87d724ed22479407e1c6b,,,,,,,,,,,72.9746,0.6,73.5739,73.5741,75.8914,right,0,2.3091,,75.8915,76.8905,0,6,6,3,1,total,1,images/Ex12.jpg,left,training,hard,3,,,,,
,,,,,6128affc7322ddbb3e16dcb3,001,26,FEMALE,Scottish,Scottish Highers ,2024-03-06_14h28.33.606,CRL1h,2023.2.3,Win32,60.24096386,65e67470ae2fbf2172c317b2,65e87d724ed22479407e1c6b,,,,,,,,,,,76.8912,1.4,78.2909,78.2909,79.5741,left,1,1.279,,79.5743,80.5745,0,7,7,10,1,total,1,images/Ex11.jpg,left,training,hard,3,,,,,
,,,,,6128affc7322ddbb3e16dcb3,001,26,FEMALE,Scottish,Scottish Highers ,2024-03-06_14h28.33.606,CRL1h,2023.2.3,Win32,60.24096386,65e67470ae2fbf2172c317b2,65e87d724ed22479407e1c6b,,,,,,,,,,,80.5753,0.9,81.474,81.474,82.5245,left,1,1.039,,82.5246,83.5237,0,8,8,9,1,total,1,images/Ex10.jpg,left,training,hard,3,,,,,
,,,,,6128affc7322ddbb3e16dcb3,001,26,FEMALE,Scottish,Scottish Highers ,2024-03-06_14h28.33.606,CRL1h,2023.2.3,Win32,60.24096386,65e67470ae2fbf2172c317b2,65e87d724ed22479407e1c6b,,,,,,,,,,,83.5244,1.1,84.6237,84.6238,85.4578,right,0,0.8326,,85.4579,86.4571,0,9,9,1,1,total,1,images/Ex10.jpg,left,training,hard,3,,,,,
,,,,,6128affc7322ddbb3e16dcb3,001,26,FEMALE,Scottish,Scottish Highers ,2024-03-06_14h28.33.606,CRL1h,2023.2.3,Win32,60.24096386,65e67470ae2fbf2172c317b2,65e87d724ed22479407e1c6b,,,,,,,,,,,86.4577,1.3,87.7569,87.757,88.7903,right,1,1.0265,,88.7903,89.7901,0,10,10,13,1,total,1,images/Ex14.jpg,right,training,hard,3,,,,,
,,,,,6128affc7322ddbb3e16dcb3,001,26,FEMALE,Scottish,Scottish Highers ,2024-03-06_14h28.33.606,CRL1h,2023.2.3,Win32,60.24096386,65e67470ae2fbf2172c317b2,65e87d724ed22479407e1c6b,,,,,,,,,,,89.7907,0.9,90.6906,90.6906,91.8576,left,1,1.157,,91.8576,92.8567,0,11,11,8,1,total,1,images/Ex9.jpg,left,training,hard,3,,,,,
,,,,,6128affc7322ddbb3e16dcb3,001,26,FEMALE,Scottish,Scottish Highers ,2024-03-06_14h28.33.606,CRL1h,2023.2.3,Win32,60.24096386,65e67470ae2fbf2172c317b2,65e87d724ed22479407e1c6b,,,,,,,,,,,92.8574,0.6,93.4571,93.4571,94.2146,left,1,0.7561,,94.2146,95.2071,0,12,12,0,1,total,1,images/Ex9.jpg,left,training,hard,3,,,,,
,,,,,6128affc7322ddbb3e16dcb3,001,26,FEMALE,Scottish,Scottish Highers ,2024-03-06_14h28.33.606,CRL1h,2023.2.3,Win32,60.24096386,65e67470ae2fbf2172c317b2,65e87d724ed22479407e1c6b,,,,,,,,,,,95.2078,1,96.2136,96.2137,97.0247,right,1,0.8057,,97.0247,98.0234,0,13,13,6,1,total,1,images/Ex15.jpg,right,training,hard,3,,,,,
,,,,,6128affc7322ddbb3e16dcb3,001,26,FEMALE,Scottish,Scottish Highers ,2024-03-06_14h28.33.606,CRL1h,2023.2.3,Win32,60.24096386,65e67470ae2fbf2172c317b2,65e87d724ed22479407e1c6b,,,,,,,,,,,98.0241,1.1,99.1235,99.1236,100.0235,left,1,0.8935,,100.0235,101.0234,0,14,14,2,1,total,1,images/Ex11.jpg,left,training,hard,3,,,,,
,,,,,6128affc7322ddbb3e16dcb3,001,26,FEMALE,Scottish,Scottish Highers ,2024-03-06_14h28.33.606,CRL1h,2023.2.3,Win32,60.24096386,65e67470ae2fbf2172c317b2,65e87d724ed22479407e1c6b,,,,,,,,,,,101.024,0.9,101.9236,101.9236,103.4901,right,1,1.5569,,103.4901,104.4902,0,15,15,15,1,total,1,images/Ex16.jpg,right,training,hard,3,,,,,
,,,,,6128affc7322ddbb3e16dcb3,001,26,FEMALE,Scottish,Scottish Highers ,2024-03-06_14h28.33.606,CRL1h,2023.2.3,Win32,60.24096386,65e67470ae2fbf2172c317b2,65e87d724ed22479407e1c6b,,,,,,,,,,,104.4907,0.7,105.1902,105.1902,106.1399,left,0,0.9411,,106.14,107.1396,1,0,16,13,1,total,1,images/Ex14.jpg,right,training,hard,3,,,,,
,,,,,6128affc7322ddbb3e16dcb3,001,26,FEMALE,Scottish,Scottish Highers ,2024-03-06_14h28.33.606,CRL1h,2023.2.3,Win32,60.24096386,65e67470ae2fbf2172c317b2,65e87d724ed22479407e1c6b,,,,,,,,,,,107.1402,1.5,108.6401,108.6401,110.5065,right,1,1.861,,110.5066,111.5062,1,1,17,15,1,total,1,images/Ex16.jpg,right,training,hard,3,,,,,
,,,,,6128affc7322ddbb3e16dcb3,001,26,FEMALE,Scottish,Scottish Highers ,2024-03-06_14h28.33.606,CRL1h,2023.2.3,Win32,60.24096386,65e67470ae2fbf2172c317b2,65e87d724ed22479407e1c6b,,,,,,,,,,,111.521,0.8,112.3235,112.3236,113.3569,left,1,1.0212,,113.3569,114.3567,1,2,18,11,1,total,1,images/Ex12.jpg,left,training,hard,3,,,,,
,,,,,6128affc7322ddbb3e16dcb3,001,26,FEMALE,Scottish,Scottish Highers ,2024-03-06_14h28.33.606,CRL1h,2023.2.3,Win32,60.24096386,65e67470ae2fbf2172c317b2,65e87d724ed22479407e1c6b,,,,,,,,,,,114.3572,1.3,115.6562,115.6562,117.2063,right,0,1.5438,,117.2063,118.1965,1,3,19,0,1,total,1,images/Ex9.jpg,left,training,hard,3,,,,,
,,,,,6128affc7322ddbb3e16dcb3,001,26,FEMALE,Scottish,Scottish Highers ,2024-03-06_14h28.33.606,CRL1h,2023.2.3,Win32,60.24096386,65e67470ae2fbf2172c317b2,65e87d724ed22479407e1c6b,,,,,,,,,,,118.1971,1.3,119.4899,119.49,121.0803,right,1,1.5889,,121.0805,122.073,1,4,20,12,1,total,1,images/Ex13.jpg,right,training,hard,3,,,,,
,,,,,6128affc7322ddbb3e16dcb3,001,26,FEMALE,Scottish,Scottish Highers ,2024-03-06_14h28.33.606,CRL1h,2023.2.3,Win32,60.24096386,65e67470ae2fbf2172c317b2,65e87d724ed22479407e1c6b,,,,,,,,,,,122.0737,1.4,123.4726,123.4727,124.1562,left,1,0.6721,,124.1562,125.1564,1,5,21,1,1,total,1,images/Ex10.jpg,left,training,hard,3,,,,,
,,,,,6128affc7322ddbb3e16dcb3,001,26,FEMALE,Scottish,Scottish Highers ,2024-03-06_14h28.33.606,CRL1h,2023.2.3,Win32,60.24096386,65e67470ae2fbf2172c317b2,65e87d724ed22479407e1c6b,,,,,,,,,,,125.1569,1.2,126.3558,126.3558,127.2107,right,1,0.8531,,127.2107,128.2057,1,6,22,14,1,total,1,images/Ex15.jpg,right,training,hard,3,,,,,
,,,,,6128affc7322ddbb3e16dcb3,001,26,FEMALE,Scottish,Scottish Highers ,2024-03-06_14h28.33.606,CRL1h,2023.2.3,Win32,60.24096386,65e67470ae2fbf2172c317b2,65e87d724ed22479407e1c6b,,,,,,,,,,,128.2063,1.4,129.6061,129.6062,130.3228,right,0,0.7151,,130.3229,131.3235,1,7,23,9,1,total,1,images/Ex10.jpg,left,training,hard,3,,,,,
,,,,,6128affc7322ddbb3e16dcb3,001,26,FEMALE,Scottish,Scottish Highers ,2024-03-06_14h28.33.606,CRL1h,2023.2.3,Win32,60.24096386,65e67470ae2fbf2172c317b2,65e87d724ed22479407e1c6b,,,,,,,,,,,131.3242,1,132.3228,132.3229,133.0063,left,0,0.674,,133.0063,134.0056,1,8,24,6,1,total,1,images/Ex15.jpg,right,training,hard,3,,,,,
,,,,,6128affc7322ddbb3e16dcb3,001,26,FEMALE,Scottish,Scottish Highers ,2024-03-06_14h28.33.606,CRL1h,2023.2.3,Win32,60.24096386,65e67470ae2fbf2172c317b2,65e87d724ed22479407e1c6b,,,,,,,,,,,134.0062,0.6,134.606,134.606,135.1641,right,0,0.5567,,135.1642,136.1623,1,9,25,8,1,total,1,images/Ex9.jpg,left,training,hard,3,,,,,
,,,,,6128affc7322ddbb3e16dcb3,001,26,FEMALE,Scottish,Scottish Highers ,2024-03-06_14h28.33.606,CRL1h,2023.2.3,Win32,60.24096386,65e67470ae2fbf2172c317b2,65e87d724ed22479407e1c6b,,,,,,,,,,,136.163,1.1,137.2555,137.2555,137.8723,right,1,0.6061,,137.8723,138.8722,1,10,26,4,1,total,1,images/Ex13.jpg,right,training,hard,3,,,,,
,,,,,6128affc7322ddbb3e16dcb3,001,26,FEMALE,Scottish,Scottish Highers ,2024-03-06_14h28.33.606,CRL1h,2023.2.3,Win32,60.24096386,65e67470ae2fbf2172c317b2,65e87d724ed22479407e1c6b,,,,,,,,,,,138.873,1.1,139.9622,139.9622,140.656,right,0,0.6836,,140.656,141.6554,1,11,27,10,1,total,1,images/Ex11.jpg,left,training,hard,3,,,,,
,,,,,6128affc7322ddbb3e16dcb3,001,26,FEMALE,Scottish,Scottish Highers ,2024-03-06_14h28.33.606,CRL1h,2023.2.3,Win32,60.24096386,65e67470ae2fbf2172c317b2,65e87d724ed22479407e1c6b,,,,,,,,,,,141.656,1,142.6461,142.6462,143.0296,right,1,0.3819,,143.0297,144.0227,1,12,28,5,1,total,1,images/Ex14.jpg,right,training,hard,3,,,,,
,,,,,6128affc7322ddbb3e16dcb3,001,26,FEMALE,Scottish,Scottish Highers ,2024-03-06_14h28.33.606,CRL1h,2023.2.3,Win32,60.24096386,65e67470ae2fbf2172c317b2,65e87d724ed22479407e1c6b,,,,,,,,,,,144.0233,1.1,145.1218,145.1219,145.9561,left,1,0.8311,,145.9562,146.9552,1,13,29,3,1,total,1,images/Ex12.jpg,left,training,hard,3,,,,,
,,,,,6128affc7322ddbb3e16dcb3,001,26,FEMALE,Scottish,Scottish Highers ,2024-03-06_14h28.33.606,CRL1h,2023.2.3,Win32,60.24096386,65e67470ae2fbf2172c317b2,65e87d724ed22479407e1c6b,,,,,,,,,,,146.9559,1.4,148.3552,148.3554,149.239,right,0,0.8806,,149.2391,150.2389,1,14,30,2,1,total,1,images/Ex11.jpg,left,training,hard,3,,,,,
,,,,,6128affc7322ddbb3e16dcb3,001,26,FEMALE,Scottish,Scottish Highers ,2024-03-06_14h28.33.606,CRL1h,2023.2.3,Win32,60.24096386,65e67470ae2fbf2172c317b2,65e87d724ed22479407e1c6b,,,,,,,,,,,150.2395,1.1,151.3384,151.3385,152.0891,right,1,0.7427,,152.0891,153.0888,1,15,31,7,1,total,1,images/Ex16.jpg,right,training,hard,3,,,,,
,,,,,6128affc7322ddbb3e16dcb3,001,26,FEMALE,Scottish,Scottish Highers ,2024-03-06_14h28.33.606,CRL1h,2023.2.3,Win32,60.24096386,65e67470ae2fbf2172c317b2,65e87d724ed22479407e1c6b,,,,,,,,,,,153.0895,1.3,154.3888,154.3889,155.2053,right,0,0.81,,155.2054,156.205,2,0,32,0,1,total,1,images/Ex9.jpg,left,training,hard,3,,,,,
,,,,,6128affc7322ddbb3e16dcb3,001,26,FEMALE,Scottish,Scottish Highers ,2024-03-06_14h28.33.606,CRL1h,2023.2.3,Win32,60.24096386,65e67470ae2fbf2172c317b2,65e87d724ed22479407e1c6b,,,,,,,,,,,156.2057,1.2,157.405,157.4052,158.1718,right,1,0.7545,,158.1718,159.1715,2,1,33,4,1,total,1,images/Ex13.jpg,right,training,hard,3,,,,,
,,,,,6128affc7322ddbb3e16dcb3,001,26,FEMALE,Scottish,Scottish Highers ,2024-03-06_14h28.33.606,CRL1h,2023.2.3,Win32,60.24096386,65e67470ae2fbf2172c317b2,65e87d724ed22479407e1c6b,,,,,,,,,,,159.1722,1.3,160.4715,160.4715,161.905,right,1,1.4219,,161.9051,162.9048,2,2,34,15,1,total,1,images/Ex16.jpg,right,training,hard,3,,,,,
,,,,,6128affc7322ddbb3e16dcb3,001,26,FEMALE,Scottish,Scottish Highers ,2024-03-06_14h28.33.606,CRL1h,2023.2.3,Win32,60.24096386,65e67470ae2fbf2172c317b2,65e87d724ed22479407e1c6b,,,,,,,,,,,162.9054,0.5,163.4047,163.4048,164.3884,left,1,0.971,,164.3885,165.388,2,3,35,3,1,total,1,images/Ex12.jpg,left,training,hard,3,,,,,
,,,,,6128affc7322ddbb3e16dcb3,001,26,FEMALE,Scottish,Scottish Highers ,2024-03-06_14h28.33.606,CRL1h,2023.2.3,Win32,60.24096386,65e67470ae2fbf2172c317b2,65e87d724ed22479407e1c6b,,,,,,,,,,,165.3886,1,166.388,166.388,168.1393,left,0,1.7383,,168.1394,169.1383,2,4,36,6,1,total,1,images/Ex15.jpg,right,training,hard,3,,,,,
,,,,,6128affc7322ddbb3e16dcb3,001,26,FEMALE,Scottish,Scottish Highers ,2024-03-06_14h28.33.606,CRL1h,2023.2.3,Win32,60.24096386,65e67470ae2fbf2172c317b2,65e87d724ed22479407e1c6b,,,,,,,,,,,169.139,0.6,169.7384,169.7385,171.1718,left,1,1.4292,,171.1719,172.1715,2,5,37,8,1,total,1,images/Ex9.jpg,left,training,hard,3,,,,,
,,,,,6128affc7322ddbb3e16dcb3,001,26,FEMALE,Scottish,Scottish Highers ,2024-03-06_14h28.33.606,CRL1h,2023.2.3,Win32,60.24096386,65e67470ae2fbf2172c317b2,65e87d724ed22479407e1c6b,,,,,,,,,,,172.1723,1,173.1716,173.1717,174.5049,left,1,1.3218,,174.505,175.5044,2,6,38,1,1,total,1,images/Ex10.jpg,left,training,hard,3,,,,,
,,,,,6128affc7322ddbb3e16dcb3,001,26,FEMALE,Scottish,Scottish Highers ,2024-03-06_14h28.33.606,CRL1h,2023.2.3,Win32,60.24096386,65e67470ae2fbf2172c317b2,65e87d724ed22479407e1c6b,,,,,,,,,,,175.5191,1,176.5216,176.5217,177.8389,right,1,1.3087,,177.8389,178.8377,2,7,39,14,1,total,1,images/Ex15.jpg,right,training,hard,3,,,,,
,,,,,6128affc7322ddbb3e16dcb3,001,26,FEMALE,Scottish,Scottish Highers ,2024-03-06_14h28.33.606,CRL1h,2023.2.3,Win32,60.24096386,65e67470ae2fbf2172c317b2,65e87d724ed22479407e1c6b,,,,,,,,,,,178.8382,0.7,179.5376,179.5377,181.7044,right,0,2.1552,,181.7045,182.7042,2,8,40,11,1,total,1,images/Ex12.jpg,left,training,hard,3,,,,,
,,,,,6128affc7322ddbb3e16dcb3,001,26,FEMALE,Scottish,Scottish Highers ,2024-03-06_14h28.33.606,CRL1h,2023.2.3,Win32,60.24096386,65e67470ae2fbf2172c317b2,65e87d724ed22479407e1c6b,,,,,,,,,,,182.7047,1,183.7042,183.7044,184.3879,left,1,0.6717,,184.3879,185.3876,2,9,41,10,1,total,1,images/Ex11.jpg,left,training,hard,3,,,,,
,,,,,6128affc7322ddbb3e16dcb3,001,26,FEMALE,Scottish,Scottish Highers ,2024-03-06_14h28.33.606,CRL1h,2023.2.3,Win32,60.24096386,65e67470ae2fbf2172c317b2,65e87d724ed22479407e1c6b,,,,,,,,,,,185.3882,0.7,186.0879,186.0879,186.8719,right,0,0.7823,,186.8719,187.8712,2,10,42,9,1,total,1,images/Ex10.jpg,left,training,hard,3,,,,,
,,,,,6128affc7322ddbb3e16dcb3,001,26,FEMALE,Scottish,Scottish Highers ,2024-03-06_14h28.33.606,CRL1h,2023.2.3,Win32,60.24096386,65e67470ae2fbf2172c317b2,65e87d724ed22479407e1c6b,,,,,,,,,,,187.8719,0.9,188.7712,188.7712,189.238,left,0,0.4544,,189.2381,190.2374,2,11,43,12,1,total,1,images/Ex13.jpg,right,training,hard,3,,,,,
,,,,,6128affc7322ddbb3e16dcb3,001,26,FEMALE,Scottish,Scottish Highers ,2024-03-06_14h28.33.606,CRL1h,2023.2.3,Win32,60.24096386,65e67470ae2fbf2172c317b2,65e87d724ed22479407e1c6b,,,,,,,,,,,190.2381,1.2,191.4376,191.4376,192.2044,right,1,0.7632,,192.2045,193.194,2,12,44,5,1,total,1,images/Ex14.jpg,right,training,hard,3,,,,,
,,,,,6128affc7322ddbb3e16dcb3,001,26,FEMALE,Scottish,Scottish Highers ,2024-03-06_14h28.33.606,CRL1h,2023.2.3,Win32,60.24096386,65e67470ae2fbf2172c317b2,65e87d724ed22479407e1c6b,,,,,,,,,,,193.1945,0.9,194.0877,194.0877,195.0381,left,0,0.9399,,195.0382,196.0281,2,13,45,13,1,total,1,images/Ex14.jpg,right,training,hard,3,,,,,
,,,,,6128affc7322ddbb3e16dcb3,001,26,FEMALE,Scottish,Scottish Highers ,2024-03-06_14h28.33.606,CRL1h,2023.2.3,Win32,60.24096386,65e67470ae2fbf2172c317b2,65e87d724ed22479407e1c6b,,,,,,,,,,,196.0285,1.2,197.2205,197.2206,197.8043,right,0,0.5803,,197.8044,198.7938,2,14,46,2,1,total,1,images/Ex11.jpg,left,training,hard,3,,,,,
,,,,,6128affc7322ddbb3e16dcb3,001,26,FEMALE,Scottish,Scottish Highers ,2024-03-06_14h28.33.606,CRL1h,2023.2.3,Win32,60.24096386,65e67470ae2fbf2172c317b2,65e87d724ed22479407e1c6b,,,,,,,,,,,198.7944,1.1,199.888,199.888,200.8546,left,0,0.9552,,200.8547,201.8539,2,15,47,7,1,total,1,images/Ex16.jpg,right,training,hard,3,,,,,
,,,,,6128affc7322ddbb3e16dcb3,001,26,FEMALE,Scottish,Scottish Highers ,2024-03-06_14h28.33.606,CRL1h,2023.2.3,Win32,60.24096386,65e67470ae2fbf2172c317b2,65e87d724ed22479407e1c6b,,,,,,,,,,,201.8546,0.8,202.6538,202.6538,204.3206,right,1,1.658,,204.3207,205.3204,3,0,48,12,1,total,1,images/Ex13.jpg,right,training,hard,3,,,,,
,,,,,6128affc7322ddbb3e16dcb3,001,26,FEMALE,Scottish,Scottish Highers ,2024-03-06_14h28.33.606,CRL1h,2023.2.3,Win32,60.24096386,65e67470ae2fbf2172c317b2,65e87d724ed22479407e1c6b,,,,,,,,,,,205.321,1.1,206.4206,206.4207,207.1279,right,0,0.7056,,207.1279,208.1208,3,1,49,0,1,total,1,images/Ex9.jpg,left,training,hard,3,,,,,
,,,,,6128affc7322ddbb3e16dcb3,001,26,FEMALE,Scottish,Scottish Highers ,2024-03-06_14h28.33.606,CRL1h,2023.2.3,Win32,60.24096386,65e67470ae2fbf2172c317b2,65e87d724ed22479407e1c6b,,,,,,,,,,,208.1214,0.8,208.9202,208.9203,209.7205,left,0,0.7946,,209.7206,210.7209,3,2,50,15,1,total,1,images/Ex16.jpg,right,training,hard,3,,,,,
,,,,,6128affc7322ddbb3e16dcb3,001,26,FEMALE,Scottish,Scottish Highers ,2024-03-06_14h28.33.606,CRL1h,2023.2.3,Win32,60.24096386,65e67470ae2fbf2172c317b2,65e87d724ed22479407e1c6b,,,,,,,,,,,210.7214,0.8,211.5206,211.5207,213.087,right,0,1.5566,,213.0871,214.0775,3,3,51,9,1,total,1,images/Ex10.jpg,left,training,hard,3,,,,,
,,,,,6128affc7322ddbb3e16dcb3,001,26,FEMALE,Scottish,Scottish Highers ,2024-03-06_14h28.33.606,CRL1h,2023.2.3,Win32,60.24096386,65e67470ae2fbf2172c317b2,65e87d724ed22479407e1c6b,,,,,,,,,,,214.0782,1.5,215.5752,215.5752,216.2736,left,0,0.6841,,216.2737,217.27,3,4,52,6,1,total,1,images/Ex15.jpg,right,training,hard,3,,,,,
,,,,,6128affc7322ddbb3e16dcb3,001,26,FEMALE,Scottish,Scottish Highers ,2024-03-06_14h28.33.606,CRL1h,2023.2.3,Win32,60.24096386,65e67470ae2fbf2172c317b2,65e87d724ed22479407e1c6b,,,,,,,,,,,217.2706,1.2,218.47,218.47,219.154,left,0,0.6737,,219.1541,220.1535,3,5,53,4,1,total,1,images/Ex13.jpg,right,training,hard,3,,,,,
,,,,,6128affc7322ddbb3e16dcb3,001,26,FEMALE,Scottish,Scottish Highers ,2024-03-06_14h28.33.606,CRL1h,2023.2.3,Win32,60.24096386,65e67470ae2fbf2172c317b2,65e87d724ed22479407e1c6b,,,,,,,,,,,220.1542,0.5,220.6534,220.6535,221.7447,right,1,1.0894,,221.7448,222.7365,3,6,54,7,1,total,1,images/Ex16.jpg,right,training,hard,3,,,,,
,,,,,6128affc7322ddbb3e16dcb3,001,26,FEMALE,Scottish,Scottish Highers ,2024-03-06_14h28.33.606,CRL1h,2023.2.3,Win32,60.24096386,65e67470ae2fbf2172c317b2,65e87d724ed22479407e1c6b,,,,,,,,,,,222.737,0.6,223.3264,223.3265,224.1274,left,1,0.7992,,224.1275,225.1277,3,7,55,8,1,total,1,images/Ex9.jpg,left,training,hard,3,,,,,
,,,,,6128affc7322ddbb3e16dcb3,001,26,FEMALE,Scottish,Scottish Highers ,2024-03-06_14h28.33.606,CRL1h,2023.2.3,Win32,60.24096386,65e67470ae2fbf2172c317b2,65e87d724ed22479407e1c6b,,,,,,,,,,,225.1282,1.3,226.427,226.427,227.4034,right,0,0.9699,,227.4034,228.403,3,8,56,3,1,total,1,images/Ex12.jpg,left,training,hard,3,,,,,
,,,,,6128affc7322ddbb3e16dcb3,001,26,FEMALE,Scottish,Scottish Highers ,2024-03-06_14h28.33.606,CRL1h,2023.2.3,Win32,60.24096386,65e67470ae2fbf2172c317b2,65e87d724ed22479407e1c6b,,,,,,,,,,,228.4036,0.6,228.9935,228.9936,229.9607,right,1,0.9651,,229.9608,230.953,3,9,57,5,1,total,1,images/Ex14.jpg,right,training,hard,3,,,,,
,,,,,6128affc7322ddbb3e16dcb3,001,26,FEMALE,Scottish,Scottish Highers ,2024-03-06_14h28.33.606,CRL1h,2023.2.3,Win32,60.24096386,65e67470ae2fbf2172c317b2,65e87d724ed22479407e1c6b,,,,,,,,,,,230.9537,1.5,232.453,232.453,233.2773,right,1,0.8229,,233.2773,234.2699,3,10,58,13,1,total,1,images/Ex14.jpg,right,training,hard,3,,,,,
,,,,,6128affc7322ddbb3e16dcb3,001,26,FEMALE,Scottish,Scottish Highers ,2024-03-06_14h28.33.606,CRL1h,2023.2.3,Win32,60.24096386,65e67470ae2fbf2172c317b2,65e87d724ed22479407e1c6b,,,,,,,,,,,234.2704,1.4,235.6596,235.6596,237.2606,left,0,1.5992,,237.2607,238.2538,3,11,59,14,1,total,1,images/Ex15.jpg,right,training,hard,3,,,,,
,,,,,6128affc7322ddbb3e16dcb3,001,26,FEMALE,Scottish,Scottish Highers ,2024-03-06_14h28.33.606,CRL1h,2023.2.3,Win32,60.24096386,65e67470ae2fbf2172c317b2,65e87d724ed22479407e1c6b,,,,,,,,,,,238.2542,0.9,239.1533,239.1533,240.0196,left,1,0.8625,,240.0196,241.0098,3,12,60,2,1,total,1,images/Ex11.jpg,left,training,hard,3,,,,,
,,,,,6128affc7322ddbb3e16dcb3,001,26,FEMALE,Scottish,Scottish Highers ,2024-03-06_14h28.33.606,CRL1h,2023.2.3,Win32,60.24096386,65e67470ae2fbf2172c317b2,65e87d724ed22479407e1c6b,,,,,,,,,,,241.0104,1.3,242.3093,242.3093,242.9527,left,1,0.6356,,242.9528,243.9598,3,13,61,10,1,total,1,images/Ex11.jpg,left,training,hard,3,,,,,
,,,,,6128affc7322ddbb3e16dcb3,001,26,FEMALE,Scottish,Scottish Highers ,2024-03-06_14h28.33.606,CRL1h,2023.2.3,Win32,60.24096386,65e67470ae2fbf2172c317b2,65e87d724ed22479407e1c6b,,,,,,,,,,,243.9604,0.7,244.6524,244.6524,246.904,left,1,2.2399,,246.904,247.9029,3,14,62,11,1,total,1,images/Ex12.jpg,left,training,hard,3,,,,,
,,,,,6128affc7322ddbb3e16dcb3,001,26,FEMALE,Scottish,Scottish Highers ,2024-03-06_14h28.33.606,CRL1h,2023.2.3,Win32,60.24096386,65e67470ae2fbf2172c317b2,65e87d724ed22479407e1c6b,,,,,,,,,,,247.9181,1.5,249.4243,249.4243,250.4362,right,0,1.0063,,250.4363,251.4426,3,15,63,1,1,total,1,images/Ex10.jpg,left,training,hard,3,,,,,
,,,,,6128affc7322ddbb3e16dcb3,001,26,FEMALE,Scottish,Scottish Highers ,2024-03-06_14h28.33.606,CRL1h,2023.2.3,Win32,60.24096386,65e67470ae2fbf2172c317b2,65e87d724ed22479407e1c6b,,,,,,,,,,,251.4438,1.3,252.7359,252.736,253.5742,left,1,0.8365,,253.5743,254.5691,4,0,64,11,1,total,1,images/Ex12.jpg,left,training,hard,3,,,,,
,,,,,6128affc7322ddbb3e16dcb3,001,26,FEMALE,Scottish,Scottish Highers ,2024-03-06_14h28.33.606,CRL1h,2023.2.3,Win32,60.24096386,65e67470ae2fbf2172c317b2,65e87d724ed22479407e1c6b,,,,,,,,,,,254.5697,0.6,255.1758,255.1759,257.7357,left,1,2.555,,257.7358,258.7355,4,1,65,2,1,total,1,images/Ex11.jpg,left,training,hard,3,,,,,
,,,,,6128affc7322ddbb3e16dcb3,001,26,FEMALE,Scottish,Scottish Highers ,2024-03-06_14h28.33.606,CRL1h,2023.2.3,Win32,60.24096386,65e67470ae2fbf2172c317b2,65e87d724ed22479407e1c6b,,,,,,,,,,,258.7503,0.9,259.6528,259.6529,262.61,right,0,2.9554,,262.61,263.6022,4,2,66,0,1,total,1,images/Ex9.jpg,left,training,hard,3,,,,,
,,,,,6128affc7322ddbb3e16dcb3,001,26,FEMALE,Scottish,Scottish Highers ,2024-03-06_14h28.33.606,CRL1h,2023.2.3,Win32,60.24096386,65e67470ae2fbf2172c317b2,65e87d724ed22479407e1c6b,,,,,,,,,,,263.6028,1.1,264.7027,264.7029,265.2692,right,1,0.5546,,265.2692,266.2693,4,3,67,7,1,total,1,images/Ex16.jpg,right,training,hard,3,,,,,
,,,,,6128affc7322ddbb3e16dcb3,001,26,FEMALE,Scottish,Scottish Highers ,2024-03-06_14h28.33.606,CRL1h,2023.2.3,Win32,60.24096386,65e67470ae2fbf2172c317b2,65e87d724ed22479407e1c6b,,,,,,,,,,,266.27,0.8,267.0691,267.0692,267.9524,left,1,0.8779,,267.9524,268.9524,4,4,68,3,1,total,1,images/Ex12.jpg,left,training,hard,3,,,,,
,,,,,6128affc7322ddbb3e16dcb3,001,26,FEMALE,Scottish,Scottish Highers ,2024-03-06_14h28.33.606,CRL1h,2023.2.3,Win32,60.24096386,65e67470ae2fbf2172c317b2,65e87d724ed22479407e1c6b,,,,,,,,,,,268.9531,0.8,269.7519,269.7519,270.4594,left,0,0.7058,,270.4595,271.4587,4,5,69,15,1,total,1,images/Ex16.jpg,right,training,hard,3,,,,,
,,,,,6128affc7322ddbb3e16dcb3,001,26,FEMALE,Scottish,Scottish Highers ,2024-03-06_14h28.33.606,CRL1h,2023.2.3,Win32,60.24096386,65e67470ae2fbf2172c317b2,65e87d724ed22479407e1c6b,,,,,,,,,,,271.4595,1.2,272.6518,272.6519,273.5207,right,1,0.8561,,273.5208,274.5256,4,6,70,4,1,total,1,images/Ex13.jpg,right,training,hard,3,,,,,
,,,,,6128affc7322ddbb3e16dcb3,001,26,FEMALE,Scottish,Scottish Highers ,2024-03-06_14h28.33.606,CRL1h,2023.2.3,Win32,60.24096386,65e67470ae2fbf2172c317b2,65e87d724ed22479407e1c6b,,,,,,,,,,,274.5261,0.7,275.2188,275.2189,276.069,left,0,0.8393,,276.069,277.0763,4,7,71,14,1,total,1,images/Ex15.jpg,right,training,hard,3,,,,,
,,,,,6128affc7322ddbb3e16dcb3,001,26,FEMALE,Scottish,Scottish Highers ,2024-03-06_14h28.33.606,CRL1h,2023.2.3,Win32,60.24096386,65e67470ae2fbf2172c317b2,65e87d724ed22479407e1c6b,,,,,,,,,,,277.0768,0.8,277.8758,277.8759,278.6097,right,0,0.7318,,278.6097,279.602,4,8,72,8,1,total,1,images/Ex9.jpg,left,training,hard,3,,,,,
,,,,,6128affc7322ddbb3e16dcb3,001,26,FEMALE,Scottish,Scottish Highers ,2024-03-06_14h28.33.606,CRL1h,2023.2.3,Win32,60.24096386,65e67470ae2fbf2172c317b2,65e87d724ed22479407e1c6b,,,,,,,,,,,279.6026,0.8,280.3917,280.3918,281.4759,right,1,1.0822,,281.476,282.4681,4,9,73,5,1,total,1,images/Ex14.jpg,right,training,hard,3,,,,,
,,,,,6128affc7322ddbb3e16dcb3,001,26,FEMALE,Scottish,Scottish Highers ,2024-03-06_14h28.33.606,CRL1h,2023.2.3,Win32,60.24096386,65e67470ae2fbf2172c317b2,65e87d724ed22479407e1c6b,,,,,,,,,,,282.4688,1.3,283.7687,283.7687,285.6757,left,0,1.9052,,285.6758,286.6685,4,10,74,6,1,total,1,images/Ex15.jpg,right,training,hard,3,,,,,
,,,,,6128affc7322ddbb3e16dcb3,001,26,FEMALE,Scottish,Scottish Highers ,2024-03-06_14h28.33.606,CRL1h,2023.2.3,Win32,60.24096386,65e67470ae2fbf2172c317b2,65e87d724ed22479407e1c6b,,,,,,,,,,,286.6691,1,287.6685,287.6685,288.8188,left,1,1.1392,,288.8189,289.818,4,11,75,10,1,total,1,images/Ex11.jpg,left,training,hard,3,,,,,
,,,,,6128affc7322ddbb3e16dcb3,001,26,FEMALE,Scottish,Scottish Highers ,2024-03-06_14h28.33.606,CRL1h,2023.2.3,Win32,60.24096386,65e67470ae2fbf2172c317b2,65e87d724ed22479407e1c6b,,,,,,,,,,,289.833,1.4,291.2346,291.2347,292.3193,right,0,1.0723,,292.3197,293.3179,4,12,76,9,1,total,1,images/Ex10.jpg,left,training,hard,3,,,,,
,,,,,6128affc7322ddbb3e16dcb3,001,26,FEMALE,Scottish,Scottish Highers ,2024-03-06_14h28.33.606,CRL1h,2023.2.3,Win32,60.24096386,65e67470ae2fbf2172c317b2,65e87d724ed22479407e1c6b,,,,,,,,,,,293.3186,1.4,294.7183,294.7184,295.5181,right,1,0.7887,,295.5181,296.5183,4,13,77,12,1,total,1,images/Ex13.jpg,right,training,hard,3,,,,,
,,,,,6128affc7322ddbb3e16dcb3,001,26,FEMALE,Scottish,Scottish Highers ,2024-03-06_14h28.33.606,CRL1h,2023.2.3,Win32,60.24096386,65e67470ae2fbf2172c317b2,65e87d724ed22479407e1c6b,,,,,,,,,,,296.5189,1.2,297.7184,297.7184,298.3683,left,1,0.6428,,298.3684,299.3678,4,14,78,1,1,total,1,images/Ex10.jpg,left,training,hard,3,,,,,
,,,,,6128affc7322ddbb3e16dcb3,001,26,FEMALE,Scottish,Scottish Highers ,2024-03-06_14h28.33.606,CRL1h,2023.2.3,Win32,60.24096386,65e67470ae2fbf2172c317b2,65e87d724ed22479407e1c6b,,,,,,,,,,,299.3684,1.5,300.8677,300.8677,301.785,right,1,0.9137,,301.785,302.7844,4,15,79,13,1,total,1,images/Ex14.jpg,right,training,hard,3,,,,,
,,,,,6128affc7322ddbb3e16dcb3,001,26,FEMALE,Scottish,Scottish Highers ,2024-03-06_14h28.33.606,CRL1h,2023.2.3,Win32,60.24096386,65e67470ae2fbf2172c317b2,65e87d724ed22479407e1c6b,,,,,,,,,,,302.7849,1.2,303.9843,303.9844,304.6517,left,0,0.6559,,304.6518,305.641,5,0,80,12,1,total,1,images/Ex13.jpg,right,training,hard,3,,,,,
,,,,,6128affc7322ddbb3e16dcb3,001,26,FEMALE,Scottish,Scottish Highers ,2024-03-06_14h28.33.606,CRL1h,2023.2.3,Win32,60.24096386,65e67470ae2fbf2172c317b2,65e87d724ed22479407e1c6b,,,,,,,,,,,305.6419,1,306.6342,306.6342,307.5514,left,1,0.9059,,307.5515,308.5508,5,1,81,8,1,total,1,images/Ex9.jpg,left,training,hard,3,,,,,
,,,,,6128affc7322ddbb3e16dcb3,001,26,FEMALE,Scottish,Scottish Highers ,2024-03-06_14h28.33.606,CRL1h,2023.2.3,Win32,60.24096386,65e67470ae2fbf2172c317b2,65e87d724ed22479407e1c6b,,,,,,,,,,,308.5514,0.6,309.1514,309.1514,310.2087,left,0,1.0557,,310.2088,311.2012,5,2,82,14,1,total,1,images/Ex15.jpg,right,training,hard,3,,,,,
,,,,,6128affc7322ddbb3e16dcb3,001,26,FEMALE,Scottish,Scottish Highers ,2024-03-06_14h28.33.606,CRL1h,2023.2.3,Win32,60.24096386,65e67470ae2fbf2172c317b2,65e87d724ed22479407e1c6b,,,,,,,,,,,311.2018,0.8,312.0073,312.0073,313.5175,left,1,1.5082,,313.5176,314.5243,5,3,83,11,1,total,1,images/Ex12.jpg,left,training,hard,3,,,,,
,,,,,6128affc7322ddbb3e16dcb3,001,26,FEMALE,Scottish,Scottish Highers ,2024-03-06_14h28.33.606,CRL1h,2023.2.3,Win32,60.24096386,65e67470ae2fbf2172c317b2,65e87d724ed22479407e1c6b,,,,,,,,,,,314.5248,0.8,315.3173,315.3174,316.0348,right,0,0.7157,,316.0348,317.0339,5,4,84,1,1,total,1,images/Ex10.jpg,left,training,hard,3,,,,,
,,,,,6128affc7322ddbb3e16dcb3,001,26,FEMALE,Scottish,Scottish Highers ,2024-03-06_14h28.33.606,CRL1h,2023.2.3,Win32,60.24096386,65e67470ae2fbf2172c317b2,65e87d724ed22479407e1c6b,,,,,,,,,,,317.0345,1.3,318.3338,318.334,319.0848,left,1,0.749,,319.0849,320.0839,5,5,85,3,1,total,1,images/Ex12.jpg,left,training,hard,3,,,,,
,,,,,6128affc7322ddbb3e16dcb3,001,26,FEMALE,Scottish,Scottish Highers ,2024-03-06_14h28.33.606,CRL1h,2023.2.3,Win32,60.24096386,65e67470ae2fbf2172c317b2,65e87d724ed22479407e1c6b,,,,,,,,,,,320.0844,1.2,321.2839,321.2839,322.084,right,1,0.7894,,322.0841,323.0838,5,6,86,7,1,total,1,images/Ex16.jpg,right,training,hard,3,,,,,
,,,,,6128affc7322ddbb3e16dcb3,001,26,FEMALE,Scottish,Scottish Highers ,2024-03-06_14h28.33.606,CRL1h,2023.2.3,Win32,60.24096386,65e67470ae2fbf2172c317b2,65e87d724ed22479407e1c6b,,,,,,,,,,,323.0843,1.2,324.2836,324.2837,324.9844,right,1,0.6896,,324.9845,325.9903,5,7,87,15,1,total,1,images/Ex16.jpg,right,training,hard,3,,,,,
,,,,,6128affc7322ddbb3e16dcb3,001,26,FEMALE,Scottish,Scottish Highers ,2024-03-06_14h28.33.606,CRL1h,2023.2.3,Win32,60.24096386,65e67470ae2fbf2172c317b2,65e87d724ed22479407e1c6b,,,,,,,,,,,325.9908,1.4,327.3836,327.3836,328.8339,left,0,1.4458,,328.8339,329.8345,5,8,88,6,1,total,1,images/Ex15.jpg,right,training,hard,3,,,,,
,,,,,6128affc7322ddbb3e16dcb3,001,26,FEMALE,Scottish,Scottish Highers ,2024-03-06_14h28.33.606,CRL1h,2023.2.3,Win32,60.24096386,65e67470ae2fbf2172c317b2,65e87d724ed22479407e1c6b,,,,,,,,,,,329.8492,1.4,331.2403,331.2404,331.9085,left,1,0.6662,,331.9085,332.9045,5,9,89,0,1,total,1,images/Ex9.jpg,left,training,hard,3,,,,,
,,,,,6128affc7322ddbb3e16dcb3,001,26,FEMALE,Scottish,Scottish Highers ,2024-03-06_14h28.33.606,CRL1h,2023.2.3,Win32,60.24096386,65e67470ae2fbf2172c317b2,65e87d724ed22479407e1c6b,,,,,,,,,,,332.9051,1.5,334.4001,334.4002,335.167,right,1,0.756,,335.1672,336.1675,5,10,90,4,1,total,1,images/Ex13.jpg,right,training,hard,3,,,,,
,,,,,6128affc7322ddbb3e16dcb3,001,26,FEMALE,Scottish,Scottish Highers ,2024-03-06_14h28.33.606,CRL1h,2023.2.3,Win32,60.24096386,65e67470ae2fbf2172c317b2,65e87d724ed22479407e1c6b,,,,,,,,,,,336.168,1.3,337.4667,337.4667,338.8743,left,0,1.4059,,338.8744,339.8734,5,11,91,13,1,total,1,images/Ex14.jpg,right,training,hard,3,,,,,
,,,,,6128affc7322ddbb3e16dcb3,001,26,FEMALE,Scottish,Scottish Highers ,2024-03-06_14h28.33.606,CRL1h,2023.2.3,Win32,60.24096386,65e67470ae2fbf2172c317b2,65e87d724ed22479407e1c6b,,,,,,,,,,,339.8739,0.6,340.4671,340.4671,341.2673,right,1,0.7896,,341.2673,342.2666,5,12,92,5,1,total,1,images/Ex14.jpg,right,training,hard,3,,,,,
,,,,,6128affc7322ddbb3e16dcb3,001,26,FEMALE,Scottish,Scottish Highers ,2024-03-06_14h28.33.606,CRL1h,2023.2.3,Win32,60.24096386,65e67470ae2fbf2172c317b2,65e87d724ed22479407e1c6b,,,,,,,,,,,342.2673,0.9,343.1573,343.1575,344.2334,right,0,1.0667,,344.2336,345.2331,5,13,93,2,1,total,1,images/Ex11.jpg,left,training,hard,3,,,,,
,,,,,6128affc7322ddbb3e16dcb3,001,26,FEMALE,Scottish,Scottish Highers ,2024-03-06_14h28.33.606,CRL1h,2023.2.3,Win32,60.24096386,65e67470ae2fbf2172c317b2,65e87d724ed22479407e1c6b,,,,,,,,,,,345.2337,1.4,346.6235,346.6235,347.3838,right,0,0.7559,,347.3839,348.3732,5,14,94,9,1,total,1,images/Ex10.jpg,left,training,hard,3,,,,,
,,,,,6128affc7322ddbb3e16dcb3,001,26,FEMALE,Scottish,Scottish Highers ,2024-03-06_14h28.33.606,CRL1h,2023.2.3,Win32,60.24096386,65e67470ae2fbf2172c317b2,65e87d724ed22479407e1c6b,,,,,,,,,,,348.3739,1.1,349.4668,349.4668,350.0738,left,1,0.6055,,350.0738,351.0672,5,15,95,10,1,total,1,images/Ex11.jpg,left,training,hard,3,,,,,
,,,,,6128affc7322ddbb3e16dcb3,001,26,FEMALE,Scottish,Scottish Highers ,2024-03-06_14h28.33.606,CRL1h,2023.2.3,Win32,60.24096386,65e67470ae2fbf2172c317b2,65e87d724ed22479407e1c6b,,,,,,,,,,,351.0678,0.7,351.7562,351.7562,352.4665,right,0,0.6993,,352.4666,353.4662,6,0,96,9,1,total,1,images/Ex10.jpg,left,training,hard,3,,,,,
,,,,,6128affc7322ddbb3e16dcb3,001,26,FEMALE,Scottish,Scottish Highers ,2024-03-06_14h28.33.606,CRL1h,2023.2.3,Win32,60.24096386,65e67470ae2fbf2172c317b2,65e87d724ed22479407e1c6b,,,,,,,,,,,353.4668,1.1,354.5663,354.5663,355.7667,right,1,1.196,,355.7667,356.7668,6,1,97,7,1,total,1,images/Ex16.jpg,right,training,hard,3,,,,,
,,,,,6128affc7322ddbb3e16dcb3,001,26,FEMALE,Scottish,Scottish Highers ,2024-03-06_14h28.33.606,CRL1h,2023.2.3,Win32,60.24096386,65e67470ae2fbf2172c317b2,65e87d724ed22479407e1c6b,,,,,,,,,,,356.7674,1.3,358.0707,358.0708,358.8571,left,0,0.7847,,358.8572,359.8562,6,2,98,4,1,total,1,images/Ex13.jpg,right,training,hard,3,,,,,
,,,,,6128affc7322ddbb3e16dcb3,001,26,FEMALE,Scottish,Scottish Highers ,2024-03-06_14h28.33.606,CRL1h,2023.2.3,Win32,60.24096386,65e67470ae2fbf2172c317b2,65e87d724ed22479407e1c6b,,,,,,,,,,,359.8566,0.6,360.4499,360.4499,361.474,right,1,1.0226,,361.4741,362.4708,6,3,99,6,1,total,1,images/Ex15.jpg,right,training,hard,3,,,,,
,,,,,6128affc7322ddbb3e16dcb3,001,26,FEMALE,Scottish,Scottish Highers ,2024-03-06_14h28.33.606,CRL1h,2023.2.3,Win32,60.24096386,65e67470ae2fbf2172c317b2,65e87d724ed22479407e1c6b,,,,,,,,,,,362.4713,0.5,362.9664,362.9664,364.056,left,1,1.0877,,364.0561,365.0561,6,4,100,8,1,total,1,images/Ex9.jpg,left,training,hard,3,,,,,
,,,,,6128affc7322ddbb3e16dcb3,001,26,FEMALE,Scottish,Scottish Highers ,2024-03-06_14h28.33.606,CRL1h,2023.2.3,Win32,60.24096386,65e67470ae2fbf2172c317b2,65e87d724ed22479407e1c6b,,,,,,,,,,,365.0567,0.8,365.8497,365.8497,367.1995,right,0,1.344,,367.1996,368.1991,6,5,101,2,1,total,1,images/Ex11.jpg,left,training,hard,3,,,,,
,,,,,6128affc7322ddbb3e16dcb3,001,26,FEMALE,Scottish,Scottish Highers ,2024-03-06_14h28.33.606,CRL1h,2023.2.3,Win32,60.24096386,65e67470ae2fbf2172c317b2,65e87d724ed22479407e1c6b,,,,,,,,,,,368.2137,1.5,369.7158,369.7158,370.5999,right,1,0.8726,,370.6001,371.6046,6,6,102,14,1,total,1,images/Ex15.jpg,right,training,hard,3,,,,,
,,,,,6128affc7322ddbb3e16dcb3,001,26,FEMALE,Scottish,Scottish Highers ,2024-03-06_14h28.33.606,CRL1h,2023.2.3,Win32,60.24096386,65e67470ae2fbf2172c317b2,65e87d724ed22479407e1c6b,,,,,,,,,,,371.6052,0.7,372.2995,372.2996,373.1571,left,1,0.8558,,373.1572,374.1553,6,7,103,0,1,total,1,images/Ex9.jpg,left,training,hard,3,,,,,
,,,,,6128affc7322ddbb3e16dcb3,001,26,FEMALE,Scottish,Scottish Highers ,2024-03-06_14h28.33.606,CRL1h,2023.2.3,Win32,60.24096386,65e67470ae2fbf2172c317b2,65e87d724ed22479407e1c6b,,,,,,,,,,,374.1559,1.1,375.2555,375.2556,376.0495,right,1,0.7828,,376.0496,377.0393,6,8,104,5,1,total,1,images/Ex14.jpg,right,training,hard,3,,,,,
,,,,,6128affc7322ddbb3e16dcb3,001,26,FEMALE,Scottish,Scottish Highers ,2024-03-06_14h28.33.606,CRL1h,2023.2.3,Win32,60.24096386,65e67470ae2fbf2172c317b2,65e87d724ed22479407e1c6b,,,,,,,,,,,377.0397,1,378.0332,378.0332,378.9324,left,1,0.8885,,378.9326,379.9329,6,9,105,3,1,total,1,images/Ex12.jpg,left,training,hard,3,,,,,
,,,,,6128affc7322ddbb3e16dcb3,001,26,FEMALE,Scottish,Scottish Highers ,2024-03-06_14h28.33.606,CRL1h,2023.2.3,Win32,60.24096386,65e67470ae2fbf2172c317b2,65e87d724ed22479407e1c6b,,,,,,,,,,,379.9337,1.2,381.1331,381.1331,382.1735,left,1,1.0387,,382.1736,383.1654,6,10,106,10,1,total,1,images/Ex11.jpg,left,training,hard,3,,,,,
,,,,,6128affc7322ddbb3e16dcb3,001,26,FEMALE,Scottish,Scottish Highers ,2024-03-06_14h28.33.606,CRL1h,2023.2.3,Win32,60.24096386,65e67470ae2fbf2172c317b2,65e87d724ed22479407e1c6b,,,,,,,,,,,383.1661,0.8,383.9658,383.9658,385.3563,left,1,1.3887,,385.3565,386.3558,6,11,107,11,1,total,1,images/Ex12.jpg,left,training,hard,3,,,,,
,,,,,6128affc7322ddbb3e16dcb3,001,26,FEMALE,Scottish,Scottish Highers ,2024-03-06_14h28.33.606,CRL1h,2023.2.3,Win32,60.24096386,65e67470ae2fbf2172c317b2,65e87d724ed22479407e1c6b,,,,,,,,,,,386.3714,0.9,387.2653,387.2653,390.1218,right,1,2.8547,,390.1218,391.1225,6,12,108,12,1,total,1,images/Ex13.jpg,right,training,hard,3,,,,,
,,,,,6128affc7322ddbb3e16dcb3,001,26,FEMALE,Scottish,Scottish Highers ,2024-03-06_14h28.33.606,CRL1h,2023.2.3,Win32,60.24096386,65e67470ae2fbf2172c317b2,65e87d724ed22479407e1c6b,,,,,,,,,,,391.1335,0.6,391.7325,391.7326,393.3826,right,1,1.6425,,393.3827,394.382,6,13,109,15,1,total,1,images/Ex16.jpg,right,training,hard,3,,,,,
,,,,,6128affc7322ddbb3e16dcb3,001,26,FEMALE,Scottish,Scottish Highers ,2024-03-06_14h28.33.606,CRL1h,2023.2.3,Win32,60.24096386,65e67470ae2fbf2172c317b2,65e87d724ed22479407e1c6b,,,,,,,,,,,394.3968,0.7,395.1043,395.1043,396.0153,left,1,0.9078,,396.0153,397.0151,6,14,110,1,1,total,1,images/Ex10.jpg,left,training,hard,3,,,,,
,,,,,6128affc7322ddbb3e16dcb3,001,26,FEMALE,Scottish,Scottish Highers ,2024-03-06_14h28.33.606,CRL1h,2023.2.3,Win32,60.24096386,65e67470ae2fbf2172c317b2,65e87d724ed22479407e1c6b,,,,,,,,,,,397.0157,1.3,398.3155,398.3155,399.6728,right,1,1.3555,,399.6729,400.665,6,15,111,13,1,total,1,images/Ex14.jpg,right,training,hard,3,,,,,
,,,,,6128affc7322ddbb3e16dcb3,001,26,FEMALE,Scottish,Scottish Highers ,2024-03-06_14h28.33.606,CRL1h,2023.2.3,Win32,60.24096386,65e67470ae2fbf2172c317b2,65e87d724ed22479407e1c6b,,,,,,,,,,,400.6656,1.4,402.0649,402.0649,402.7319,right,1,0.6649,,402.732,403.7214,7,0,112,5,1,total,1,images/Ex14.jpg,right,training,hard,3,,,,,
,,,,,6128affc7322ddbb3e16dcb3,001,26,FEMALE,Scottish,Scottish Highers ,2024-03-06_14h28.33.606,CRL1h,2023.2.3,Win32,60.24096386,65e67470ae2fbf2172c317b2,65e87d724ed22479407e1c6b,,,,,,,,,,,403.722,1.2,404.9149,404.9149,406.3819,right,1,1.4607,,406.382,407.3818,7,1,113,7,1,total,1,images/Ex16.jpg,right,training,hard,3,,,,,
,,,,,6128affc7322ddbb3e16dcb3,001,26,FEMALE,Scottish,Scottish Highers ,2024-03-06_14h28.33.606,CRL1h,2023.2.3,Win32,60.24096386,65e67470ae2fbf2172c317b2,65e87d724ed22479407e1c6b,,,,,,,,,,,407.3826,1.2,408.5717,408.5717,409.4317,left,1,0.849,,409.4318,410.4313,7,2,114,8,1,total,1,images/Ex9.jpg,left,training,hard,3,,,,,
,,,,,6128affc7322ddbb3e16dcb3,001,26,FEMALE,Scottish,Scottish Highers ,2024-03-06_14h28.33.606,CRL1h,2023.2.3,Win32,60.24096386,65e67470ae2fbf2172c317b2,65e87d724ed22479407e1c6b,,,,,,,,,,,410.4319,0.9,411.3314,411.3314,412.132,left,0,0.7895,,412.1322,413.1218,7,3,115,4,1,total,1,images/Ex13.jpg,right,training,hard,3,,,,,
,,,,,6128affc7322ddbb3e16dcb3,001,26,FEMALE,Scottish,Scottish Highers ,2024-03-06_14h28.33.606,CRL1h,2023.2.3,Win32,60.24096386,65e67470ae2fbf2172c317b2,65e87d724ed22479407e1c6b,,,,,,,,,,,413.1226,0.7,413.8146,413.8146,414.548,left,0,0.728,,414.5481,415.5483,7,4,116,13,1,total,1,images/Ex14.jpg,right,training,hard,3,,,,,
,,,,,6128affc7322ddbb3e16dcb3,001,26,FEMALE,Scottish,Scottish Highers ,2024-03-06_14h28.33.606,CRL1h,2023.2.3,Win32,60.24096386,65e67470ae2fbf2172c317b2,65e87d724ed22479407e1c6b,,,,,,,,,,,415.5488,0.8,416.3483,416.3483,416.9536,left,1,0.6037,,416.9537,417.9554,7,5,117,9,1,total,1,images/Ex10.jpg,left,training,hard,3,,,,,
,,,,,6128affc7322ddbb3e16dcb3,001,26,FEMALE,Scottish,Scottish Highers ,2024-03-06_14h28.33.606,CRL1h,2023.2.3,Win32,60.24096386,65e67470ae2fbf2172c317b2,65e87d724ed22479407e1c6b,,,,,,,,,,,417.9559,1.3,419.2478,419.2478,419.834,right,1,0.5791,,419.8341,420.8311,7,6,118,6,1,total,1,images/Ex15.jpg,right,training,hard,3,,,,,
,,,,,6128affc7322ddbb3e16dcb3,001,26,FEMALE,Scottish,Scottish Highers ,2024-03-06_14h28.33.606,CRL1h,2023.2.3,Win32,60.24096386,65e67470ae2fbf2172c317b2,65e87d724ed22479407e1c6b,,,,,,,,,,,420.8318,1.1,421.9379,421.9379,422.8314,left,0,0.8892,,422.8315,423.8309,7,7,119,12,1,total,1,images/Ex13.jpg,right,training,hard,3,,,,,
,,,,,6128affc7322ddbb3e16dcb3,001,26,FEMALE,Scottish,Scottish Highers ,2024-03-06_14h28.33.606,CRL1h,2023.2.3,Win32,60.24096386,65e67470ae2fbf2172c317b2,65e87d724ed22479407e1c6b,,,,,,,,,,,423.8317,1.2,425.031,425.031,425.6146,right,0,0.5725,,425.6147,426.6142,7,8,120,3,1,total,1,images/Ex12.jpg,left,training,hard,3,,,,,
,,,,,6128affc7322ddbb3e16dcb3,001,26,FEMALE,Scottish,Scottish Highers ,2024-03-06_14h28.33.606,CRL1h,2023.2.3,Win32,60.24096386,65e67470ae2fbf2172c317b2,65e87d724ed22479407e1c6b,,,,,,,,,,,426.6148,0.6,427.2141,427.2142,427.9219,right,1,0.7058,,427.9219,428.921,7,9,121,14,1,total,1,images/Ex15.jpg,right,training,hard,3,,,,,
,,,,,6128affc7322ddbb3e16dcb3,001,26,FEMALE,Scottish,Scottish Highers ,2024-03-06_14h28.33.606,CRL1h,2023.2.3,Win32,60.24096386,65e67470ae2fbf2172c317b2,65e87d724ed22479407e1c6b,,,,,,,,,,,428.9215,0.5,429.4213,429.4213,430.1144,right,1,0.6893,,430.1144,431.1148,7,10,122,15,1,total,1,images/Ex16.jpg,right,training,hard,3,,,,,
,,,,,6128affc7322ddbb3e16dcb3,001,26,FEMALE,Scottish,Scottish Highers ,2024-03-06_14h28.33.606,CRL1h,2023.2.3,Win32,60.24096386,65e67470ae2fbf2172c317b2,65e87d724ed22479407e1c6b,,,,,,,,,,,431.1153,0.6,431.7141,431.7141,432.3549,left,1,0.6391,,432.355,433.3474,7,11,123,2,1,total,1,images/Ex11.jpg,left,training,hard,3,,,,,
,,,,,6128affc7322ddbb3e16dcb3,001,26,FEMALE,Scottish,Scottish Highers ,2024-03-06_14h28.33.606,CRL1h,2023.2.3,Win32,60.24096386,65e67470ae2fbf2172c317b2,65e87d724ed22479407e1c6b,,,,,,,,,,,433.3479,1.3,434.6475,434.6476,435.5647,left,1,0.9067,,435.5647,436.5639,7,12,124,11,1,total,1,images/Ex12.jpg,left,training,hard,3,,,,,
,,,,,6128affc7322ddbb3e16dcb3,001,26,FEMALE,Scottish,Scottish Highers ,2024-03-06_14h28.33.606,CRL1h,2023.2.3,Win32,60.24096386,65e67470ae2fbf2172c317b2,65e87d724ed22479407e1c6b,,,,,,,,,,,436.5645,0.9,437.4639,437.4639,438.098,left,1,0.6271,,438.098,439.0973,7,13,125,1,1,total,1,images/Ex10.jpg,left,training,hard,3,,,,,
,,,,,6128affc7322ddbb3e16dcb3,001,26,FEMALE,Scottish,Scottish Highers ,2024-03-06_14h28.33.606,CRL1h,2023.2.3,Win32,60.24096386,65e67470ae2fbf2172c317b2,65e87d724ed22479407e1c6b,,,,,,,,,,,439.0978,0.9,439.9983,439.9984,440.6477,right,0,0.6372,,440.6479,441.6473,7,14,126,10,1,total,1,images/Ex11.jpg,left,training,hard,3,,,,,
,,,,,6128affc7322ddbb3e16dcb3,001,26,FEMALE,Scottish,Scottish Highers ,2024-03-06_14h28.33.606,CRL1h,2023.2.3,Win32,60.24096386,65e67470ae2fbf2172c317b2,65e87d724ed22479407e1c6b,,,,,,,,,,,441.648,1.3,442.9372,442.9372,443.6307,left,1,0.6823,,443.6308,444.6304,7,15,127,0,1,total,1,images/Ex9.jpg,left,training,hard,3,,,,,
,,,,,6128affc7322ddbb3e16dcb3,001,26,FEMALE,Scottish,Scottish Highers ,2024-03-06_14h28.33.606,CRL1h,2023.2.3,Win32,60.24096386,65e67470ae2fbf2172c317b2,65e87d724ed22479407e1c6b,,,,,,,,,,,444.6402,0.9,445.5305,445.5305,446.3973,right,0,0.8593,,446.3973,447.3974,0,0,0,15,1,total,2,images/Ex16.jpg,left,reversed,hard,3,,,,,
,,,,,6128affc7322ddbb3e16dcb3,001,26,FEMALE,Scottish,Scottish Highers ,2024-03-06_14h28.33.606,CRL1h,2023.2.3,Win32,60.24096386,65e67470ae2fbf2172c317b2,65e87d724ed22479407e1c6b,,,,,,,,,,,447.398,0.6,447.9872,447.9873,450.114,right,1,2.1155,,450.1141,451.1138,0,1,1,0,1,total,2,images/Ex9.jpg,right,reversed,hard,3,,,,,
,,,,,6128affc7322ddbb3e16dcb3,001,26,FEMALE,Scottish,Scottish Highers ,2024-03-06_14h28.33.606,CRL1h,2023.2.3,Win32,60.24096386,65e67470ae2fbf2172c317b2,65e87d724ed22479407e1c6b,,,,,,,,,,,451.1292,0.8,451.9207,451.9207,453.4307,left,1,1.5027,,453.4307,454.4306,0,2,2,5,1,total,2,images/Ex14.jpg,left,reversed,hard,3,,,,,
,,,,,6128affc7322ddbb3e16dcb3,001,26,FEMALE,Scottish,Scottish Highers ,2024-03-06_14h28.33.606,CRL1h,2023.2.3,Win32,60.24096386,65e67470ae2fbf2172c317b2,65e87d724ed22479407e1c6b,,,,,,,,,,,454.4455,0.7,455.1382,455.1382,456.564,right,0,1.4156,,456.564,457.5637,0,3,3,4,1,total,2,images/Ex13.jpg,left,reversed,hard,3,,,,,
,,,,,6128affc7322ddbb3e16dcb3,001,26,FEMALE,Scottish,Scottish Highers ,2024-03-06_14h28.33.606,CRL1h,2023.2.3,Win32,60.24096386,65e67470ae2fbf2172c317b2,65e87d724ed22479407e1c6b,,,,,,,,,,,457.5642,1.1,458.6633,458.6633,459.5302,left,0,0.8601,,459.5302,460.5368,0,4,4,11,1,total,2,images/Ex12.jpg,right,reversed,hard,3,,,,,
,,,,,6128affc7322ddbb3e16dcb3,001,26,FEMALE,Scottish,Scottish Highers ,2024-03-06_14h28.33.606,CRL1h,2023.2.3,Win32,60.24096386,65e67470ae2fbf2172c317b2,65e87d724ed22479407e1c6b,,,,,,,,,,,460.5373,1,461.5301,461.5303,462.3136,right,0,0.7752,,462.3137,463.3204,0,5,5,13,1,total,2,images/Ex14.jpg,left,reversed,hard,3,,,,,
,,,,,6128affc7322ddbb3e16dcb3,001,26,FEMALE,Scottish,Scottish Highers ,2024-03-06_14h28.33.606,CRL1h,2023.2.3,Win32,60.24096386,65e67470ae2fbf2172c317b2,65e87d724ed22479407e1c6b,,,,,,,,,,,463.3209,1.3,464.6133,464.6134,465.2308,left,0,0.6059,,465.2308,466.2298,0,6,6,9,1,total,2,images/Ex10.jpg,right,reversed,hard,3,,,,,
,,,,,6128affc7322ddbb3e16dcb3,001,26,FEMALE,Scottish,Scottish Highers ,2024-03-06_14h28.33.606,CRL1h,2023.2.3,Win32,60.24096386,65e67470ae2fbf2172c317b2,65e87d724ed22479407e1c6b,,,,,,,,,,,466.2304,1.3,467.5302,467.5302,468.2707,right,1,0.7389,,468.2708,469.2632,0,7,7,2,1,total,2,images/Ex11.jpg,right,reversed,hard,3,,,,,
,,,,,6128affc7322ddbb3e16dcb3,001,26,FEMALE,Scottish,Scottish Highers ,2024-03-06_14h28.33.606,CRL1h,2023.2.3,Win32,60.24096386,65e67470ae2fbf2172c317b2,65e87d724ed22479407e1c6b,,,,,,,,,,,469.2638,1.2,470.4697,470.4697,471.3873,right,1,0.9158,,471.3874,472.3797,0,8,8,1,1,total,2,images/Ex10.jpg,right,reversed,hard,3,,,,,
,,,,,6128affc7322ddbb3e16dcb3,001,26,FEMALE,Scottish,Scottish Highers ,2024-03-06_14h28.33.606,CRL1h,2023.2.3,Win32,60.24096386,65e67470ae2fbf2172c317b2,65e87d724ed22479407e1c6b,,,,,,,,,,,472.3802,0.8,473.1801,473.1801,474.5695,right,1,1.3875,,474.5695,475.563,0,9,9,10,1,total,2,images/Ex11.jpg,right,reversed,hard,3,,,,,
,,,,,6128affc7322ddbb3e16dcb3,001,26,FEMALE,Scottish,Scottish Highers ,2024-03-06_14h28.33.606,CRL1h,2023.2.3,Win32,60.24096386,65e67470ae2fbf2172c317b2,65e87d724ed22479407e1c6b,,,,,,,,,,,475.5636,1.4,476.9631,476.9631,477.8463,right,0,0.8744,,477.8464,478.8462,0,10,10,7,1,total,2,images/Ex16.jpg,left,reversed,hard,3,,,,,
,,,,,6128affc7322ddbb3e16dcb3,001,26,FEMALE,Scottish,Scottish Highers ,2024-03-06_14h28.33.606,CRL1h,2023.2.3,Win32,60.24096386,65e67470ae2fbf2172c317b2,65e87d724ed22479407e1c6b,,,,,,,,,,,478.8467,0.9,479.7461,479.7462,480.3539,left,0,0.6059,,480.3539,481.3463,0,11,11,8,1,total,2,images/Ex9.jpg,right,reversed,hard,3,,,,,
,,,,,6128affc7322ddbb3e16dcb3,001,26,FEMALE,Scottish,Scottish Highers ,2024-03-06_14h28.33.606,CRL1h,2023.2.3,Win32,60.24096386,65e67470ae2fbf2172c317b2,65e87d724ed22479407e1c6b,,,,,,,,,,,481.347,1.1,482.446,482.4462,483.0794,left,1,0.6311,,483.0796,484.0794,0,12,12,6,1,total,2,images/Ex15.jpg,left,reversed,hard,3,,,,,
,,,,,6128affc7322ddbb3e16dcb3,001,26,FEMALE,Scottish,Scottish Highers ,2024-03-06_14h28.33.606,CRL1h,2023.2.3,Win32,60.24096386,65e67470ae2fbf2172c317b2,65e87d724ed22479407e1c6b,,,,,,,,,,,484.0802,1.1,485.1793,485.1794,486.2464,right,1,1.0557,,486.2465,487.2532,0,13,13,3,1,total,2,images/Ex12.jpg,right,reversed,hard,3,,,,,
,,,,,6128affc7322ddbb3e16dcb3,001,26,FEMALE,Scottish,Scottish Highers ,2024-03-06_14h28.33.606,CRL1h,2023.2.3,Win32,60.24096386,65e67470ae2fbf2172c317b2,65e87d724ed22479407e1c6b,,,,,,,,,,,487.2537,1.5,488.7465,488.7466,490.4631,left,1,1.7054,,490.4632,491.4625,0,14,14,14,1,total,2,images/Ex15.jpg,left,reversed,hard,3,,,,,
,,,,,6128affc7322ddbb3e16dcb3,001,26,FEMALE,Scottish,Scottish Highers ,2024-03-06_14h28.33.606,CRL1h,2023.2.3,Win32,60.24096386,65e67470ae2fbf2172c317b2,65e87d724ed22479407e1c6b,,,,,,,,,,,491.4634,1.5,492.9527,492.9528,493.6635,left,1,0.7044,,493.6635,494.6632,0,15,15,12,1,total,2,images/Ex13.jpg,left,reversed,hard,3,,,,,
,,,,,6128affc7322ddbb3e16dcb3,001,26,FEMALE,Scottish,Scottish Highers ,2024-03-06_14h28.33.606,CRL1h,2023.2.3,Win32,60.24096386,65e67470ae2fbf2172c317b2,65e87d724ed22479407e1c6b,,,,,,,,,,,494.6637,0.5,495.1531,495.1531,496.3792,right,0,1.2154,,496.3793,497.3862,1,0,16,15,1,total,2,images/Ex16.jpg,left,reversed,hard,3,,,,,
,,,,,6128affc7322ddbb3e16dcb3,001,26,FEMALE,Scottish,Scottish Highers ,2024-03-06_14h28.33.606,CRL1h,2023.2.3,Win32,60.24096386,65e67470ae2fbf2172c317b2,65e87d724ed22479407e1c6b,,,,,,,,,,,497.3866,1.3,498.6856,498.6858,499.1365,left,0,0.4492,,499.1366,500.1288,1,1,17,11,1,total,2,images/Ex12.jpg,right,reversed,hard,3,,,,,
,,,,,6128affc7322ddbb3e16dcb3,001,26,FEMALE,Scottish,Scottish Highers ,2024-03-06_14h28.33.606,CRL1h,2023.2.3,Win32,60.24096386,65e67470ae2fbf2172c317b2,65e87d724ed22479407e1c6b,,,,,,,,,,,500.1296,1.1,501.2196,501.2196,503.1626,right,0,1.9382,,503.1627,504.1621,1,2,18,7,1,total,2,images/Ex16.jpg,left,reversed,hard,3,,,,,
,,,,,6128affc7322ddbb3e16dcb3,001,26,FEMALE,Scottish,Scottish Highers ,2024-03-06_14h28.33.606,CRL1h,2023.2.3,Win32,60.24096386,65e67470ae2fbf2172c317b2,65e87d724ed22479407e1c6b,,,,,,,,,,,504.1627,0.6,504.7624,504.7626,505.6034,left,0,0.8391,,505.6035,506.6031,1,3,19,0,1,total,2,images/Ex9.jpg,right,reversed,hard,3,,,,,
,,,,,6128affc7322ddbb3e16dcb3,001,26,FEMALE,Scottish,Scottish Highers ,2024-03-06_14h28.33.606,CRL1h,2023.2.3,Win32,60.24096386,65e67470ae2fbf2172c317b2,65e87d724ed22479407e1c6b,,,,,,,,,,,506.6036,1.3,507.9021,507.9022,508.247,right,1,0.3384,,508.247,509.2353,1,4,20,8,1,total,2,images/Ex9.jpg,right,reversed,hard,3,,,,,
,,,,,6128affc7322ddbb3e16dcb3,001,26,FEMALE,Scottish,Scottish Highers ,2024-03-06_14h28.33.606,CRL1h,2023.2.3,Win32,60.24096386,65e67470ae2fbf2172c317b2,65e87d724ed22479407e1c6b,,,,,,,,,,,509.2359,0.9,510.1288,510.1288,510.7703,right,0,0.6396,,510.7703,511.7626,1,5,21,4,1,total,2,images/Ex13.jpg,left,reversed,hard,3,,,,,
,,,,,6128affc7322ddbb3e16dcb3,001,26,FEMALE,Scottish,Scottish Highers ,2024-03-06_14h28.33.606,CRL1h,2023.2.3,Win32,60.24096386,65e67470ae2fbf2172c317b2,65e87d724ed22479407e1c6b,,,,,,,,,,,511.7634,1.3,513.0521,513.0521,513.5956,left,1,0.5337,,513.5957,514.5853,1,6,22,5,1,total,2,images/Ex14.jpg,left,reversed,hard,3,,,,,
,,,,,6128affc7322ddbb3e16dcb3,001,26,FEMALE,Scottish,Scottish Highers ,2024-03-06_14h28.33.606,CRL1h,2023.2.3,Win32,60.24096386,65e67470ae2fbf2172c317b2,65e87d724ed22479407e1c6b,,,,,,,,,,,514.5859,0.6,515.1853,515.1854,516.0958,right,1,0.9048,,516.0958,517.0857,1,7,23,3,1,total,2,images/Ex12.jpg,right,reversed,hard,3,,,,,
,,,,,6128affc7322ddbb3e16dcb3,001,26,FEMALE,Scottish,Scottish Highers ,2024-03-06_14h28.33.606,CRL1h,2023.2.3,Win32,60.24096386,65e67470ae2fbf2172c317b2,65e87d724ed22479407e1c6b,,,,,,,,,,,517.0862,1.1,518.1786,518.1786,519.1125,left,1,0.9222,,519.1125,520.1122,1,8,24,14,1,total,2,images/Ex15.jpg,left,reversed,hard,3,,,,,
,,,,,6128affc7322ddbb3e16dcb3,001,26,FEMALE,Scottish,Scottish Highers ,2024-03-06_14h28.33.606,CRL1h,2023.2.3,Win32,60.24096386,65e67470ae2fbf2172c317b2,65e87d724ed22479407e1c6b,,,,,,,,,,,520.1129,0.6,520.7117,520.7117,521.336,left,0,0.6224,,521.3361,522.3351,1,9,25,9,1,total,2,images/Ex10.jpg,right,reversed,hard,3,,,,,
,,,,,6128affc7322ddbb3e16dcb3,001,26,FEMALE,Scottish,Scottish Highers ,2024-03-06_14h28.33.606,CRL1h,2023.2.3,Win32,60.24096386,65e67470ae2fbf2172c317b2,65e87d724ed22479407e1c6b,,,,,,,,,,,522.3356,0.9,523.2354,523.2355,523.9199,left,1,0.6825,,523.9199,524.9135,1,10,26,13,1,total,2,images/Ex14.jpg,left,reversed,hard,3,,,,,
,,,,,6128affc7322ddbb3e16dcb3,001,26,FEMALE,Scottish,Scottish Highers ,2024-03-06_14h28.33.606,CRL1h,2023.2.3,Win32,60.24096386,65e67470ae2fbf2172c317b2,65e87d724ed22479407e1c6b,,,,,,,,,,,524.9141,1.2,526.112,526.1121,526.762,left,0,0.6448,,526.762,527.7656,1,11,27,1,1,total,2,images/Ex10.jpg,right,reversed,hard,3,,,,,
,,,,,6128affc7322ddbb3e16dcb3,001,26,FEMALE,Scottish,Scottish Highers ,2024-03-06_14h28.33.606,CRL1h,2023.2.3,Win32,60.24096386,65e67470ae2fbf2172c317b2,65e87d724ed22479407e1c6b,,,,,,,,,,,527.7662,0.9,528.662,528.6622,530.2957,left,0,1.6254,,530.2957,531.2859,1,12,28,10,1,total,2,images/Ex11.jpg,right,reversed,hard,3,,,,,
,,,,,6128affc7322ddbb3e16dcb3,001,26,FEMALE,Scottish,Scottish Highers ,2024-03-06_14h28.33.606,CRL1h,2023.2.3,Win32,60.24096386,65e67470ae2fbf2172c317b2,65e87d724ed22479407e1c6b,,,,,,,,,,,531.2864,0.5,531.778,531.7782,532.5031,right,0,0.7231,,532.5032,533.4948,1,13,29,6,1,total,2,images/Ex15.jpg,left,reversed,hard,3,,,,,
,,,,,6128affc7322ddbb3e16dcb3,001,26,FEMALE,Scottish,Scottish Highers ,2024-03-06_14h28.33.606,CRL1h,2023.2.3,Win32,60.24096386,65e67470ae2fbf2172c317b2,65e87d724ed22479407e1c6b,,,,,,,,,,,533.4954,1.1,534.5948,534.5948,535.1786,right,1,0.577,,535.1787,536.1779,1,14,30,2,1,total,2,images/Ex11.jpg,right,reversed,hard,3,,,,,
,,,,,6128affc7322ddbb3e16dcb3,001,26,FEMALE,Scottish,Scottish Highers ,2024-03-06_14h28.33.606,CRL1h,2023.2.3,Win32,60.24096386,65e67470ae2fbf2172c317b2,65e87d724ed22479407e1c6b,,,,,,,,,,,536.1786,1.5,537.6849,537.685,538.3617,right,0,0.6733,,538.3618,539.3613,1,15,31,12,1,total,2,images/Ex13.jpg,left,reversed,hard,3,,,,,
,,,,,6128affc7322ddbb3e16dcb3,001,26,FEMALE,Scottish,Scottish Highers ,2024-03-06_14h28.33.606,CRL1h,2023.2.3,Win32,60.24096386,65e67470ae2fbf2172c317b2,65e87d724ed22479407e1c6b,,,,,,,,,,,539.3618,0.7,540.0511,540.0511,541.5945,left,1,1.5329,,541.5946,542.5855,2,0,32,4,1,total,2,images/Ex13.jpg,left,reversed,hard,3,,,,,
,,,,,6128affc7322ddbb3e16dcb3,001,26,FEMALE,Scottish,Scottish Highers ,2024-03-06_14h28.33.606,CRL1h,2023.2.3,Win32,60.24096386,65e67470ae2fbf2172c317b2,65e87d724ed22479407e1c6b,,,,,,,,,,,542.5861,1.5,544.0783,544.0784,544.5615,left,1,0.4781,,544.5616,545.5516,2,1,33,6,1,total,2,images/Ex15.jpg,left,reversed,hard,3,,,,,
,,,,,6128affc7322ddbb3e16dcb3,001,26,FEMALE,Scottish,Scottish Highers ,2024-03-06_14h28.33.606,CRL1h,2023.2.3,Win32,60.24096386,65e67470ae2fbf2172c317b2,65e87d724ed22479407e1c6b,,,,,,,,,,,545.5521,0.9,546.4444,546.4444,547.3279,left,0,0.8772,,547.328,548.3318,2,2,34,10,1,total,2,images/Ex11.jpg,right,reversed,hard,3,,,,,
,,,,,6128affc7322ddbb3e16dcb3,001,26,FEMALE,Scottish,Scottish Highers ,2024-03-06_14h28.33.606,CRL1h,2023.2.3,Win32,60.24096386,65e67470ae2fbf2172c317b2,65e87d724ed22479407e1c6b,,,,,,,,,,,548.3324,0.7,549.0276,549.0276,555.0943,right,1,6.0618,,555.0944,556.0941,2,3,35,0,1,total,2,images/Ex9.jpg,right,reversed,hard,3,,,,,
,,,,,6128affc7322ddbb3e16dcb3,001,26,FEMALE,Scottish,Scottish Highers ,2024-03-06_14h28.33.606,CRL1h,2023.2.3,Win32,60.24096386,65e67470ae2fbf2172c317b2,65e87d724ed22479407e1c6b,,,,,,,,,,,556.1089,1,557.1111,557.1112,557.6441,right,1,0.5249,,557.6442,558.644,2,4,36,8,1,total,2,images/Ex9.jpg,right,reversed,hard,3,,,,,
,,,,,6128affc7322ddbb3e16dcb3,001,26,FEMALE,Scottish,Scottish Highers ,2024-03-06_14h28.33.606,CRL1h,2023.2.3,Win32,60.24096386,65e67470ae2fbf2172c317b2,65e87d724ed22479407e1c6b,,,,,,,,,,,558.6446,0.7,559.3439,559.344,559.6608,right,0,0.3111,,559.6608,560.6606,2,5,37,14,1,total,2,images/Ex15.jpg,left,reversed,hard,3,,,,,
,,,,,6128affc7322ddbb3e16dcb3,001,26,FEMALE,Scottish,Scottish Highers ,2024-03-06_14h28.33.606,CRL1h,2023.2.3,Win32,60.24096386,65e67470ae2fbf2172c317b2,65e87d724ed22479407e1c6b,,,,,,,,,,,560.6612,1.4,562.0606,562.0607,563.028,left,1,0.9557,,563.0281,564.0283,2,6,38,7,1,total,2,images/Ex16.jpg,left,reversed,hard,3,,,,,
,,,,,6128affc7322ddbb3e16dcb3,001,26,FEMALE,Scottish,Scottish Highers ,2024-03-06_14h28.33.606,CRL1h,2023.2.3,Win32,60.24096386,65e67470ae2fbf2172c317b2,65e87d724ed22479407e1c6b,,,,,,,,,,,564.0289,1,565.0281,565.0282,566.1615,left,0,1.1206,,566.1616,567.1608,2,7,39,1,1,total,2,images/Ex10.jpg,right,reversed,hard,3,,,,,
,,,,,6128affc7322ddbb3e16dcb3,001,26,FEMALE,Scottish,Scottish Highers ,2024-03-06_14h28.33.606,CRL1h,2023.2.3,Win32,60.24096386,65e67470ae2fbf2172c317b2,65e87d724ed22479407e1c6b,,,,,,,,,,,567.1613,1.2,568.3608,568.3611,569.5106,right,0,1.1455,,569.5107,570.5009,2,8,40,5,1,total,2,images/Ex14.jpg,left,reversed,hard,3,,,,,
,,,,,6128affc7322ddbb3e16dcb3,001,26,FEMALE,Scottish,Scottish Highers ,2024-03-06_14h28.33.606,CRL1h,2023.2.3,Win32,60.24096386,65e67470ae2fbf2172c317b2,65e87d724ed22479407e1c6b,,,,,,,,,,,570.5014,1.1,571.5938,571.5939,572.1516,left,0,0.5557,,572.1516,573.1436,2,9,41,3,1,total,2,images/Ex12.jpg,right,reversed,hard,3,,,,,
,,,,,6128affc7322ddbb3e16dcb3,001,26,FEMALE,Scottish,Scottish Highers ,2024-03-06_14h28.33.606,CRL1h,2023.2.3,Win32,60.24096386,65e67470ae2fbf2172c317b2,65e87d724ed22479407e1c6b,,,,,,,,,,,573.1443,1.5,574.6435,574.6435,575.1356,right,0,0.4903,,575.1356,576.1273,2,10,42,12,1,total,2,images/Ex13.jpg,left,reversed,hard,3,,,,,
,,,,,6128affc7322ddbb3e16dcb3,001,26,FEMALE,Scottish,Scottish Highers ,2024-03-06_14h28.33.606,CRL1h,2023.2.3,Win32,60.24096386,65e67470ae2fbf2172c317b2,65e87d724ed22479407e1c6b,,,,,,,,,,,576.1279,1.1,577.2175,577.2175,577.7272,left,0,0.5023,,577.7274,578.7265,2,11,43,11,1,total,2,images/Ex12.jpg,right,reversed,hard,3,,,,,
,,,,,6128affc7322ddbb3e16dcb3,001,26,FEMALE,Scottish,Scottish Highers ,2024-03-06_14h28.33.606,CRL1h,2023.2.3,Win32,60.24096386,65e67470ae2fbf2172c317b2,65e87d724ed22479407e1c6b,,,,,,,,,,,578.7269,1,579.7267,579.7268,580.227,right,1,0.4891,,580.227,581.2267,2,12,44,9,1,total,2,images/Ex10.jpg,right,reversed,hard,3,,,,,
,,,,,6128affc7322ddbb3e16dcb3,001,26,FEMALE,Scottish,Scottish Highers ,2024-03-06_14h28.33.606,CRL1h,2023.2.3,Win32,60.24096386,65e67470ae2fbf2172c317b2,65e87d724ed22479407e1c6b,,,,,,,,,,,581.2273,1.2,582.4267,582.4268,584.4936,right,0,2.0564,,584.4936,585.4932,2,13,45,13,1,total,2,images/Ex14.jpg,left,reversed,hard,3,,,,,
,,,,,6128affc7322ddbb3e16dcb3,001,26,FEMALE,Scottish,Scottish Highers ,2024-03-06_14h28.33.606,CRL1h,2023.2.3,Win32,60.24096386,65e67470ae2fbf2172c317b2,65e87d724ed22479407e1c6b,,,,,,,,,,,585.5081,0.5,586.0105,586.0106,586.7767,left,1,0.7555,,586.7768,587.7769,2,14,46,15,1,total,2,images/Ex16.jpg,left,reversed,hard,3,,,,,
,,,,,6128affc7322ddbb3e16dcb3,001,26,FEMALE,Scottish,Scottish Highers ,2024-03-06_14h28.33.606,CRL1h,2023.2.3,Win32,60.24096386,65e67470ae2fbf2172c317b2,65e87d724ed22479407e1c6b,,,,,,,,,,,587.7776,0.5,588.2765,588.2765,591.427,right,1,3.1391,,591.4272,592.4331,2,15,47,2,1,total,2,images/Ex11.jpg,right,reversed,hard,3,,,,,
,,,,,6128affc7322ddbb3e16dcb3,001,26,FEMALE,Scottish,Scottish Highers ,2024-03-06_14h28.33.606,CRL1h,2023.2.3,Win32,60.24096386,65e67470ae2fbf2172c317b2,65e87d724ed22479407e1c6b,,,,,,,,,,,592.4481,1.1,593.543,593.5431,594.1769,right,1,0.6282,,594.1769,595.1771,3,0,48,0,1,total,2,images/Ex9.jpg,right,reversed,hard,3,,,,,
,,,,,6128affc7322ddbb3e16dcb3,001,26,FEMALE,Scottish,Scottish Highers ,2024-03-06_14h28.33.606,CRL1h,2023.2.3,Win32,60.24096386,65e67470ae2fbf2172c317b2,65e87d724ed22479407e1c6b,,,,,,,,,,,595.1776,1.4,596.5764,596.5765,597.8934,right,0,1.3085,,597.8935,598.8931,3,1,49,7,1,total,2,images/Ex16.jpg,left,reversed,hard,3,,,,,
,,,,,6128affc7322ddbb3e16dcb3,001,26,FEMALE,Scottish,Scottish Highers ,2024-03-06_14h28.33.606,CRL1h,2023.2.3,Win32,60.24096386,65e67470ae2fbf2172c317b2,65e87d724ed22479407e1c6b,,,,,,,,,,,598.9077,0.9,599.8097,599.8098,600.36,left,0,0.5484,,600.3601,601.3595,3,2,50,1,1,total,2,images/Ex10.jpg,right,reversed,hard,3,,,,,
,,,,,6128affc7322ddbb3e16dcb3,001,26,FEMALE,Scottish,Scottish Highers ,2024-03-06_14h28.33.606,CRL1h,2023.2.3,Win32,60.24096386,65e67470ae2fbf2172c317b2,65e87d724ed22479407e1c6b,,,,,,,,,,,601.3601,1,602.3602,602.3603,603.1939,right,0,0.8242,,603.1941,604.1931,3,3,51,5,1,total,2,images/Ex14.jpg,left,reversed,hard,3,,,,,
,,,,,6128affc7322ddbb3e16dcb3,001,26,FEMALE,Scottish,Scottish Highers ,2024-03-06_14h28.33.606,CRL1h,2023.2.3,Win32,60.24096386,65e67470ae2fbf2172c317b2,65e87d724ed22479407e1c6b,,,,,,,,,,,604.1936,1.4,605.5939,605.594,605.7771,left,1,0.1815,,605.7772,606.7663,3,4,52,4,1,total,2,images/Ex13.jpg,left,reversed,hard,3,,,,,
,,,,,6128affc7322ddbb3e16dcb3,001,26,FEMALE,Scottish,Scottish Highers ,2024-03-06_14h28.33.606,CRL1h,2023.2.3,Win32,60.24096386,65e67470ae2fbf2172c317b2,65e87d724ed22479407e1c6b,,,,,,,,,,,606.7668,1.4,608.1666,608.1666,608.8001,left,1,0.6322,,608.8002,609.7999,3,5,53,13,1,total,2,images/Ex14.jpg,left,reversed,hard,3,,,,,
,,,,,6128affc7322ddbb3e16dcb3,001,26,FEMALE,Scottish,Scottish Highers ,2024-03-06_14h28.33.606,CRL1h,2023.2.3,Win32,60.24096386,65e67470ae2fbf2172c317b2,65e87d724ed22479407e1c6b,,,,,,,,,,,609.8004,0.8,610.5995,610.5996,612.3669,left,1,1.7661,,612.367,613.3659,3,6,54,15,1,total,2,images/Ex16.jpg,left,reversed,hard,3,,,,,
,,,,,6128affc7322ddbb3e16dcb3,001,26,FEMALE,Scottish,Scottish Highers ,2024-03-06_14h28.33.606,CRL1h,2023.2.3,Win32,60.24096386,65e67470ae2fbf2172c317b2,65e87d724ed22479407e1c6b,,,,,,,,,,,613.3813,1.4,614.7762,614.7762,616.1426,right,1,1.3565,,616.1427,617.1429,3,7,55,3,1,total,2,images/Ex12.jpg,right,reversed,hard,3,,,,,
,,,,,6128affc7322ddbb3e16dcb3,001,26,FEMALE,Scottish,Scottish Highers ,2024-03-06_14h28.33.606,CRL1h,2023.2.3,Win32,60.24096386,65e67470ae2fbf2172c317b2,65e87d724ed22479407e1c6b,,,,,,,,,,,617.1577,1.3,618.4502,618.4502,620.0339,right,0,1.582,,620.034,621.0325,3,8,56,14,1,total,2,images/Ex15.jpg,left,reversed,hard,3,,,,,
,,,,,6128affc7322ddbb3e16dcb3,001,26,FEMALE,Scottish,Scottish Highers ,2024-03-06_14h28.33.606,CRL1h,2023.2.3,Win32,60.24096386,65e67470ae2fbf2172c317b2,65e87d724ed22479407e1c6b,,,,,,,,,,,621.0478,1.2,622.2423,622.2425,624.935,left,0,2.6908,,624.9351,625.9255,3,9,57,9,1,total,2,images/Ex10.jpg,right,reversed,hard,3,,,,,
,,,,,6128affc7322ddbb3e16dcb3,001,26,FEMALE,Scottish,Scottish Highers ,2024-03-06_14h28.33.606,CRL1h,2023.2.3,Win32,60.24096386,65e67470ae2fbf2172c317b2,65e87d724ed22479407e1c6b,,,,,,,,,,,625.9409,0.5,626.4424,626.4425,629.0593,left,0,2.6102,,629.0594,630.0656,3,10,58,2,1,total,2,images/Ex11.jpg,right,reversed,hard,3,,,,,
,,,,,6128affc7322ddbb3e16dcb3,001,26,FEMALE,Scottish,Scottish Highers ,2024-03-06_14h28.33.606,CRL1h,2023.2.3,Win32,60.24096386,65e67470ae2fbf2172c317b2,65e87d724ed22479407e1c6b,,,,,,,,,,,630.0806,1.5,631.5762,631.5762,631.9496,right,1,0.3719,,631.9497,632.95,3,11,59,8,1,total,2,images/Ex9.jpg,right,reversed,hard,3,,,,,
,,,,,6128affc7322ddbb3e16dcb3,001,26,FEMALE,Scottish,Scottish Highers ,2024-03-06_14h28.33.606,CRL1h,2023.2.3,Win32,60.24096386,65e67470ae2fbf2172c317b2,65e87d724ed22479407e1c6b,,,,,,,,,,,632.9506,0.8,633.7422,633.7423,634.6166,right,0,0.8722,,634.6168,635.6088,3,12,60,12,1,total,2,images/Ex13.jpg,left,reversed,hard,3,,,,,
,,,,,6128affc7322ddbb3e16dcb3,001,26,FEMALE,Scottish,Scottish Highers ,2024-03-06_14h28.33.606,CRL1h,2023.2.3,Win32,60.24096386,65e67470ae2fbf2172c317b2,65e87d724ed22479407e1c6b,,,,,,,,,,,635.6093,1.2,636.8091,636.8091,637.3657,left,0,0.5554,,637.3658,638.3587,3,13,61,11,1,total,2,images/Ex12.jpg,right,reversed,hard,3,,,,,
,,,,,6128affc7322ddbb3e16dcb3,001,26,FEMALE,Scottish,Scottish Highers ,2024-03-06_14h28.33.606,CRL1h,2023.2.3,Win32,60.24096386,65e67470ae2fbf2172c317b2,65e87d724ed22479407e1c6b,,,,,,,,,,,638.3592,1.3,639.6587,639.6587,640.3921,left,0,0.7299,,640.3922,641.3832,3,14,62,10,1,total,2,images/Ex11.jpg,right,reversed,hard,3,,,,,
,,,,,6128affc7322ddbb3e16dcb3,001,26,FEMALE,Scottish,Scottish Highers ,2024-03-06_14h28.33.606,CRL1h,2023.2.3,Win32,60.24096386,65e67470ae2fbf2172c317b2,65e87d724ed22479407e1c6b,,,,,,,,,,,641.3836,1,642.3827,642.3827,643.4924,right,0,1.0983,,643.4924,644.4923,3,15,63,6,1,total,2,images/Ex15.jpg,left,reversed,hard,3,,,,,
,,,,,6128affc7322ddbb3e16dcb3,001,26,FEMALE,Scottish,Scottish Highers ,2024-03-06_14h28.33.606,CRL1h,2023.2.3,Win32,60.24096386,65e67470ae2fbf2172c317b2,65e87d724ed22479407e1c6b,,,,,,644.4935,650.0825,space,5.567,,650.1051,0.9,651.008,651.0081,652.4915,left,1,1.4803,,652.4916,653.4818,0,0,0,3,1,partial,1,images/Ex4.jpg,left,training,hard,3,,,,,
,,,,,6128affc7322ddbb3e16dcb3,001,26,FEMALE,Scottish,Scottish Highers ,2024-03-06_14h28.33.606,CRL1h,2023.2.3,Win32,60.24096386,65e67470ae2fbf2172c317b2,65e87d724ed22479407e1c6b,,,,,,,,,,,653.4826,0.8,654.2746,654.2747,655.1163,right,1,0.8393,,655.1163,656.1146,0,1,1,7,1,partial,1,images/Ex8.jpg,right,training,hard,3,,,,,
,,,,,6128affc7322ddbb3e16dcb3,001,26,FEMALE,Scottish,Scottish Highers ,2024-03-06_14h28.33.606,CRL1h,2023.2.3,Win32,60.24096386,65e67470ae2fbf2172c317b2,65e87d724ed22479407e1c6b,,,,,,,,,,,656.1152,1.4,657.5079,657.508,658.0931,left,1,0.5755,,658.0933,659.0923,0,2,2,8,1,partial,1,images/Ex1.jpg,left,training,hard,3,,,,,
,,,,,6128affc7322ddbb3e16dcb3,001,26,FEMALE,Scottish,Scottish Highers ,2024-03-06_14h28.33.606,CRL1h,2023.2.3,Win32,60.24096386,65e67470ae2fbf2172c317b2,65e87d724ed22479407e1c6b,,,,,,,,,,,659.0929,1.2,660.292,660.292,660.8757,left,1,0.574,,660.8759,661.8746,0,3,3,0,1,partial,1,images/Ex1.jpg,left,training,hard,3,,,,,
,,,,,6128affc7322ddbb3e16dcb3,001,26,FEMALE,Scottish,Scottish Highers ,2024-03-06_14h28.33.606,CRL1h,2023.2.3,Win32,60.24096386,65e67470ae2fbf2172c317b2,65e87d724ed22479407e1c6b,,,,,,,,,,,661.8752,0.6,662.475,662.4751,663.2915,left,1,0.8067,,663.2917,664.2917,0,4,4,2,1,partial,1,images/Ex3.jpg,left,training,hard,3,,,,,
,,,,,6128affc7322ddbb3e16dcb3,001,26,FEMALE,Scottish,Scottish Highers ,2024-03-06_14h28.33.606,CRL1h,2023.2.3,Win32,60.24096386,65e67470ae2fbf2172c317b2,65e87d724ed22479407e1c6b,,,,,,,,,,,664.2925,1,665.2917,665.2917,666.042,left,0,0.748,,666.0421,667.0312,0,5,5,15,1,partial,1,images/Ex8.jpg,right,training,hard,3,,,,,
,,,,,6128affc7322ddbb3e16dcb3,001,26,FEMALE,Scottish,Scottish Highers ,2024-03-06_14h28.33.606,CRL1h,2023.2.3,Win32,60.24096386,65e67470ae2fbf2172c317b2,65e87d724ed22479407e1c6b,,,,,,,,,,,667.0317,1.1,668.1314,668.1314,670.8821,right,0,2.7492,,670.8821,671.8742,0,6,6,1,1,partial,1,images/Ex2.jpg,left,training,hard,3,,,,,
,,,,,6128affc7322ddbb3e16dcb3,001,26,FEMALE,Scottish,Scottish Highers ,2024-03-06_14h28.33.606,CRL1h,2023.2.3,Win32,60.24096386,65e67470ae2fbf2172c317b2,65e87d724ed22479407e1c6b,,,,,,,,,,,671.8891,1.4,673.2913,673.2914,673.6913,left,1,0.3946,,673.6913,674.6915,0,7,7,10,1,partial,1,images/Ex3.jpg,left,training,hard,3,,,,,
,,,,,6128affc7322ddbb3e16dcb3,001,26,FEMALE,Scottish,Scottish Highers ,2024-03-06_14h28.33.606,CRL1h,2023.2.3,Win32,60.24096386,65e67470ae2fbf2172c317b2,65e87d724ed22479407e1c6b,,,,,,,,,,,674.6923,0.6,675.2909,675.2909,677.3091,left,0,2.008,,677.3092,678.3079,0,8,8,14,1,partial,1,images/Ex7.jpg,right,training,hard,3,,,,,
,,,,,6128affc7322ddbb3e16dcb3,001,26,FEMALE,Scottish,Scottish Highers ,2024-03-06_14h28.33.606,CRL1h,2023.2.3,Win32,60.24096386,65e67470ae2fbf2172c317b2,65e87d724ed22479407e1c6b,,,,,,,,,,,678.3084,1.3,679.6079,679.608,680.1427,right,1,0.5241,,680.1428,681.1413,0,9,9,12,1,partial,1,images/Ex5.jpg,right,training,hard,3,,,,,
,,,,,6128affc7322ddbb3e16dcb3,001,26,FEMALE,Scottish,Scottish Highers ,2024-03-06_14h28.33.606,CRL1h,2023.2.3,Win32,60.24096386,65e67470ae2fbf2172c317b2,65e87d724ed22479407e1c6b,,,,,,,,,,,681.1422,0.9,682.0407,682.0408,682.8427,left,0,0.791,,682.8428,683.8411,0,10,10,6,1,partial,1,images/Ex7.jpg,right,training,hard,3,,,,,
,,,,,6128affc7322ddbb3e16dcb3,001,26,FEMALE,Scottish,Scottish Highers ,2024-03-06_14h28.33.606,CRL1h,2023.2.3,Win32,60.24096386,65e67470ae2fbf2172c317b2,65e87d724ed22479407e1c6b,,,,,,,,,,,683.8419,0.7,684.5407,684.5408,685.2077,right,1,0.6599,,685.2078,686.2077,0,11,11,4,1,partial,1,images/Ex5.jpg,right,training,hard,3,,,,,
,,,,,6128affc7322ddbb3e16dcb3,001,26,FEMALE,Scottish,Scottish Highers ,2024-03-06_14h28.33.606,CRL1h,2023.2.3,Win32,60.24096386,65e67470ae2fbf2172c317b2,65e87d724ed22479407e1c6b,,,,,,,,,,,686.2088,1.2,687.4076,687.4077,688.1418,left,1,0.724,,688.1419,689.141,0,12,12,9,1,partial,1,images/Ex2.jpg,left,training,hard,3,,,,,
,,,,,6128affc7322ddbb3e16dcb3,001,26,FEMALE,Scottish,Scottish Highers ,2024-03-06_14h28.33.606,CRL1h,2023.2.3,Win32,60.24096386,65e67470ae2fbf2172c317b2,65e87d724ed22479407e1c6b,,,,,,,,,,,689.1417,0.6,689.7405,689.7405,690.4414,right,0,0.6903,,690.4415,691.4404,0,13,13,11,1,partial,1,images/Ex4.jpg,left,training,hard,3,,,,,
,,,,,6128affc7322ddbb3e16dcb3,001,26,FEMALE,Scottish,Scottish Highers ,2024-03-06_14h28.33.606,CRL1h,2023.2.3,Win32,60.24096386,65e67470ae2fbf2172c317b2,65e87d724ed22479407e1c6b,,,,,,,,,,,691.4411,0.7,692.1408,692.1409,692.8239,left,0,0.6759,,692.824,693.8239,0,14,14,13,1,partial,1,images/Ex6.jpg,right,training,hard,3,,,,,
,,,,,6128affc7322ddbb3e16dcb3,001,26,FEMALE,Scottish,Scottish Highers ,2024-03-06_14h28.33.606,CRL1h,2023.2.3,Win32,60.24096386,65e67470ae2fbf2172c317b2,65e87d724ed22479407e1c6b,,,,,,,,,,,693.8245,1.1,694.9237,694.9237,695.6085,left,0,0.6777,,695.6087,696.607,0,15,15,5,1,partial,1,images/Ex6.jpg,right,training,hard,3,,,,,
,,,,,6128affc7322ddbb3e16dcb3,001,26,FEMALE,Scottish,Scottish Highers ,2024-03-06_14h28.33.606,CRL1h,2023.2.3,Win32,60.24096386,65e67470ae2fbf2172c317b2,65e87d724ed22479407e1c6b,,,,,,,,,,,696.6076,0.9,697.5074,697.5075,698.0742,right,1,0.5576,,698.0743,699.0736,1,0,16,14,1,partial,1,images/Ex7.jpg,right,training,hard,3,,,,,
,,,,,6128affc7322ddbb3e16dcb3,001,26,FEMALE,Scottish,Scottish Highers ,2024-03-06_14h28.33.606,CRL1h,2023.2.3,Win32,60.24096386,65e67470ae2fbf2172c317b2,65e87d724ed22479407e1c6b,,,,,,,,,,,699.0741,0.6,699.6735,699.6736,700.4739,right,1,0.7917,,700.4739,701.4735,1,1,17,4,1,partial,1,images/Ex5.jpg,right,training,hard,3,,,,,
,,,,,6128affc7322ddbb3e16dcb3,001,26,FEMALE,Scottish,Scottish Highers ,2024-03-06_14h28.33.606,CRL1h,2023.2.3,Win32,60.24096386,65e67470ae2fbf2172c317b2,65e87d724ed22479407e1c6b,,,,,,,,,,,701.474,0.5,701.9734,701.9735,702.6906,right,1,0.7078,,702.6907,703.6906,1,2,18,15,1,partial,1,images/Ex8.jpg,right,training,hard,3,,,,,
,,,,,6128affc7322ddbb3e16dcb3,001,26,FEMALE,Scottish,Scottish Highers ,2024-03-06_14h28.33.606,CRL1h,2023.2.3,Win32,60.24096386,65e67470ae2fbf2172c317b2,65e87d724ed22479407e1c6b,,,,,,,,,,,703.6912,0.9,704.5901,704.5901,705.124,right,0,0.5247,,705.124,706.1233,1,3,19,3,1,partial,1,images/Ex4.jpg,left,training,hard,3,,,,,
,,,,,6128affc7322ddbb3e16dcb3,001,26,FEMALE,Scottish,Scottish Highers ,2024-03-06_14h28.33.606,CRL1h,2023.2.3,Win32,60.24096386,65e67470ae2fbf2172c317b2,65e87d724ed22479407e1c6b,,,,,,,,,,,706.124,1.4,707.5233,707.5233,708.1245,left,1,0.5974,,708.1245,709.1233,1,4,20,9,1,partial,1,images/Ex2.jpg,left,training,hard,3,,,,,
,,,,,6128affc7322ddbb3e16dcb3,001,26,FEMALE,Scottish,Scottish Highers ,2024-03-06_14h28.33.606,CRL1h,2023.2.3,Win32,60.24096386,65e67470ae2fbf2172c317b2,65e87d724ed22479407e1c6b,,,,,,,,,,,709.1238,0.6,709.7233,709.7233,710.958,left,0,1.2247,,710.9582,711.9574,1,5,21,12,1,partial,1,images/Ex5.jpg,right,training,hard,3,,,,,
,,,,,6128affc7322ddbb3e16dcb3,001,26,FEMALE,Scottish,Scottish Highers ,2024-03-06_14h28.33.606,CRL1h,2023.2.3,Win32,60.24096386,65e67470ae2fbf2172c317b2,65e87d724ed22479407e1c6b,,,,,,,,,,,711.9577,1.3,713.2571,713.2571,714.0243,right,0,0.7576,,714.0244,715.0232,1,6,22,2,1,partial,1,images/Ex3.jpg,left,training,hard,3,,,,,
,,,,,6128affc7322ddbb3e16dcb3,001,26,FEMALE,Scottish,Scottish Highers ,2024-03-06_14h28.33.606,CRL1h,2023.2.3,Win32,60.24096386,65e67470ae2fbf2172c317b2,65e87d724ed22479407e1c6b,,,,,,,,,,,715.0238,1.5,716.523,716.5231,717.0073,left,1,0.4744,,717.0073,718.0064,1,7,23,8,1,partial,1,images/Ex1.jpg,left,training,hard,3,,,,,
,,,,,6128affc7322ddbb3e16dcb3,001,26,FEMALE,Scottish,Scottish Highers ,2024-03-06_14h28.33.606,CRL1h,2023.2.3,Win32,60.24096386,65e67470ae2fbf2172c317b2,65e87d724ed22479407e1c6b,,,,,,,,,,,718.007,1.4,719.4064,719.4065,719.7617,left,0,0.3534,,719.7618,720.7564,1,8,24,5,1,partial,1,images/Ex6.jpg,right,training,hard,3,,,,,
,,,,,6128affc7322ddbb3e16dcb3,001,26,FEMALE,Scottish,Scottish Highers ,2024-03-06_14h28.33.606,CRL1h,2023.2.3,Win32,60.24096386,65e67470ae2fbf2172c317b2,65e87d724ed22479407e1c6b,,,,,,,,,,,720.7569,1.3,722.0563,722.0564,722.5906,right,0,0.5242,,722.5906,723.5799,1,9,25,11,1,partial,1,images/Ex4.jpg,left,training,hard,3,,,,,
,,,,,6128affc7322ddbb3e16dcb3,001,26,FEMALE,Scottish,Scottish Highers ,2024-03-06_14h28.33.606,CRL1h,2023.2.3,Win32,60.24096386,65e67470ae2fbf2172c317b2,65e87d724ed22479407e1c6b,,,,,,,,,,,723.5803,1.4,724.9798,724.9798,725.7178,left,0,0.7327,,725.7179,726.7132,1,10,26,13,1,partial,1,images/Ex6.jpg,right,training,hard,3,,,,,
,,,,,6128affc7322ddbb3e16dcb3,001,26,FEMALE,Scottish,Scottish Highers ,2024-03-06_14h28.33.606,CRL1h,2023.2.3,Win32,60.24096386,65e67470ae2fbf2172c317b2,65e87d724ed22479407e1c6b,,,,,,,,,,,726.7137,0.5,727.2131,727.2131,727.8471,right,0,0.6327,,727.8471,728.8468,1,11,27,1,1,partial,1,images/Ex2.jpg,left,training,hard,3,,,,,
,,,,,6128affc7322ddbb3e16dcb3,001,26,FEMALE,Scottish,Scottish Highers ,2024-03-06_14h28.33.606,CRL1h,2023.2.3,Win32,60.24096386,65e67470ae2fbf2172c317b2,65e87d724ed22479407e1c6b,,,,,,,,,,,728.8471,0.7,729.5461,729.5462,730.2805,left,0,0.7329,,730.2805,731.2799,1,12,28,6,1,partial,1,images/Ex7.jpg,right,training,hard,3,,,,,
,,,,,6128affc7322ddbb3e16dcb3,001,26,FEMALE,Scottish,Scottish Highers ,2024-03-06_14h28.33.606,CRL1h,2023.2.3,Win32,60.24096386,65e67470ae2fbf2172c317b2,65e87d724ed22479407e1c6b,,,,,,,,,,,731.2803,1.4,732.6799,732.6799,733.43,right,0,0.7489,,733.4301,734.4298,1,13,29,10,1,partial,1,images/Ex3.jpg,left,training,hard,3,,,,,
,,,,,6128affc7322ddbb3e16dcb3,001,26,FEMALE,Scottish,Scottish Highers ,2024-03-06_14h28.33.606,CRL1h,2023.2.3,Win32,60.24096386,65e67470ae2fbf2172c317b2,65e87d724ed22479407e1c6b,,,,,,,,,,,734.4303,1,735.4293,735.4294,736.1302,left,1,0.6995,,736.1303,737.1298,1,14,30,0,1,partial,1,images/Ex1.jpg,left,training,hard,3,,,,,
,,,,,6128affc7322ddbb3e16dcb3,001,26,FEMALE,Scottish,Scottish Highers ,2024-03-06_14h28.33.606,CRL1h,2023.2.3,Win32,60.24096386,65e67470ae2fbf2172c317b2,65e87d724ed22479407e1c6b,,,,,,,,,,,737.1304,0.6,737.7292,737.7293,738.6137,left,0,0.883,,738.6138,739.613,1,15,31,7,1,partial,1,images/Ex8.jpg,right,training,hard,3,,,,,
,,,,,6128affc7322ddbb3e16dcb3,001,26,FEMALE,Scottish,Scottish Highers ,2024-03-06_14h28.33.606,CRL1h,2023.2.3,Win32,60.24096386,65e67470ae2fbf2172c317b2,65e87d724ed22479407e1c6b,,,,,,,,,,,739.6134,0.7,740.3137,740.3138,741.0633,right,1,0.7484,,741.0634,742.0633,2,0,32,13,1,partial,1,images/Ex6.jpg,right,training,hard,3,,,,,
,,,,,6128affc7322ddbb3e16dcb3,001,26,FEMALE,Scottish,Scottish Highers ,2024-03-06_14h28.33.606,CRL1h,2023.2.3,Win32,60.24096386,65e67470ae2fbf2172c317b2,65e87d724ed22479407e1c6b,,,,,,,,,,,742.0637,1.2,743.2634,743.2634,743.8799,left,1,0.6152,,743.8799,744.8794,2,1,33,3,1,partial,1,images/Ex4.jpg,left,training,hard,3,,,,,
,,,,,6128affc7322ddbb3e16dcb3,001,26,FEMALE,Scottish,Scottish Highers ,2024-03-06_14h28.33.606,CRL1h,2023.2.3,Win32,60.24096386,65e67470ae2fbf2172c317b2,65e87d724ed22479407e1c6b,,,,,,,,,,,744.8799,1.3,746.1792,746.1792,746.7466,left,0,0.5661,,746.7467,747.7466,2,2,34,12,1,partial,1,images/Ex5.jpg,right,training,hard,3,,,,,
,,,,,6128affc7322ddbb3e16dcb3,001,26,FEMALE,Scottish,Scottish Highers ,2024-03-06_14h28.33.606,CRL1h,2023.2.3,Win32,60.24096386,65e67470ae2fbf2172c317b2,65e87d724ed22479407e1c6b,,,,,,,,,,,747.747,1.4,749.1455,749.1455,749.8466,left,1,0.6996,,749.8467,750.8461,2,3,35,0,1,partial,1,images/Ex1.jpg,left,training,hard,3,,,,,
,,,,,6128affc7322ddbb3e16dcb3,001,26,FEMALE,Scottish,Scottish Highers ,2024-03-06_14h28.33.606,CRL1h,2023.2.3,Win32,60.24096386,65e67470ae2fbf2172c317b2,65e87d724ed22479407e1c6b,,,,,,,,,,,750.8466,1.1,751.9456,751.9456,752.4131,left,1,0.4661,,752.4132,753.4126,2,4,36,1,1,partial,1,images/Ex2.jpg,left,training,hard,3,,,,,
,,,,,6128affc7322ddbb3e16dcb3,001,26,FEMALE,Scottish,Scottish Highers ,2024-03-06_14h28.33.606,CRL1h,2023.2.3,Win32,60.24096386,65e67470ae2fbf2172c317b2,65e87d724ed22479407e1c6b,,,,,,,,,,,753.413,1.4,754.8124,754.8124,755.5804,right,0,0.7669,,755.5805,756.5789,2,5,37,9,1,partial,1,images/Ex2.jpg,left,training,hard,3,,,,,
,,,,,6128affc7322ddbb3e16dcb3,001,26,FEMALE,Scottish,Scottish Highers ,2024-03-06_14h28.33.606,CRL1h,2023.2.3,Win32,60.24096386,65e67470ae2fbf2172c317b2,65e87d724ed22479407e1c6b,,,,,,,,,,,756.5794,0.7,757.279,757.2791,758.0134,left,0,0.7329,,758.0134,759.0127,2,6,38,14,1,partial,1,images/Ex7.jpg,right,training,hard,3,,,,,
,,,,,6128affc7322ddbb3e16dcb3,001,26,FEMALE,Scottish,Scottish Highers ,2024-03-06_14h28.33.606,CRL1h,2023.2.3,Win32,60.24096386,65e67470ae2fbf2172c317b2,65e87d724ed22479407e1c6b,,,,,,,,,,,759.0131,1.4,760.4123,760.4124,760.8961,left,0,0.4823,,760.8961,761.8958,2,7,39,15,1,partial,1,images/Ex8.jpg,right,training,hard,3,,,,,
,,,,,6128affc7322ddbb3e16dcb3,001,26,FEMALE,Scottish,Scottish Highers ,2024-03-06_14h28.33.606,CRL1h,2023.2.3,Win32,60.24096386,65e67470ae2fbf2172c317b2,65e87d724ed22479407e1c6b,,,,,,,,,,,761.8963,1.2,763.0953,763.0954,763.7292,right,1,0.6323,,763.7293,764.7293,2,8,40,5,1,partial,1,images/Ex6.jpg,right,training,hard,3,,,,,
,,,,,6128affc7322ddbb3e16dcb3,001,26,FEMALE,Scottish,Scottish Highers ,2024-03-06_14h28.33.606,CRL1h,2023.2.3,Win32,60.24096386,65e67470ae2fbf2172c317b2,65e87d724ed22479407e1c6b,,,,,,,,,,,764.7297,0.8,765.5292,765.5292,766.2641,right,1,0.7336,,766.2642,767.2629,2,9,41,6,1,partial,1,images/Ex7.jpg,right,training,hard,3,,,,,
,,,,,6128affc7322ddbb3e16dcb3,001,26,FEMALE,Scottish,Scottish Highers ,2024-03-06_14h28.33.606,CRL1h,2023.2.3,Win32,60.24096386,65e67470ae2fbf2172c317b2,65e87d724ed22479407e1c6b,,,,,,,,,,,767.2634,0.7,767.9618,767.962,769.1295,right,1,1.166,,769.1295,770.1284,2,10,42,7,1,partial,1,images/Ex8.jpg,right,training,hard,3,,,,,
,,,,,6128affc7322ddbb3e16dcb3,001,26,FEMALE,Scottish,Scottish Highers ,2024-03-06_14h28.33.606,CRL1h,2023.2.3,Win32,60.24096386,65e67470ae2fbf2172c317b2,65e87d724ed22479407e1c6b,,,,,,,,,,,770.1289,1,771.1283,771.1284,772.0295,right,0,0.8995,,772.0295,773.0288,2,11,43,2,1,partial,1,images/Ex3.jpg,left,training,hard,3,,,,,
,,,,,6128affc7322ddbb3e16dcb3,001,26,FEMALE,Scottish,Scottish Highers ,2024-03-06_14h28.33.606,CRL1h,2023.2.3,Win32,60.24096386,65e67470ae2fbf2172c317b2,65e87d724ed22479407e1c6b,,,,,,,,,,,773.0292,1.4,774.4284,774.4284,775.0455,left,1,0.6162,,775.0455,776.0455,2,12,44,10,1,partial,1,images/Ex3.jpg,left,training,hard,3,,,,,
,,,,,6128affc7322ddbb3e16dcb3,001,26,FEMALE,Scottish,Scottish Highers ,2024-03-06_14h28.33.606,CRL1h,2023.2.3,Win32,60.24096386,65e67470ae2fbf2172c317b2,65e87d724ed22479407e1c6b,,,,,,,,,,,776.046,1.5,777.5454,777.5455,778.1952,left,1,0.6485,,778.1953,779.1949,2,13,45,8,1,partial,1,images/Ex1.jpg,left,training,hard,3,,,,,
,,,,,6128affc7322ddbb3e16dcb3,001,26,FEMALE,Scottish,Scottish Highers ,2024-03-06_14h28.33.606,CRL1h,2023.2.3,Win32,60.24096386,65e67470ae2fbf2172c317b2,65e87d724ed22479407e1c6b,,,,,,,,,,,779.1955,1.2,780.3947,780.3947,781.1956,left,0,0.7996,,781.1957,782.1957,2,14,46,4,1,partial,1,images/Ex5.jpg,right,training,hard,3,,,,,
,,,,,6128affc7322ddbb3e16dcb3,001,26,FEMALE,Scottish,Scottish Highers ,2024-03-06_14h28.33.606,CRL1h,2023.2.3,Win32,60.24096386,65e67470ae2fbf2172c317b2,65e87d724ed22479407e1c6b,,,,,,,,,,,782.1961,0.6,782.7947,782.7948,783.3794,right,0,0.5833,,783.3795,784.378,2,15,47,11,1,partial,1,images/Ex4.jpg,left,training,hard,3,,,,,
,,,,,6128affc7322ddbb3e16dcb3,001,26,FEMALE,Scottish,Scottish Highers ,2024-03-06_14h28.33.606,CRL1h,2023.2.3,Win32,60.24096386,65e67470ae2fbf2172c317b2,65e87d724ed22479407e1c6b,,,,,,,,,,,784.3785,0.6,784.9782,784.9782,786.2952,left,1,1.3159,,786.2953,787.295,3,0,48,11,1,partial,1,images/Ex4.jpg,left,training,hard,3,,,,,
,,,,,6128affc7322ddbb3e16dcb3,001,26,FEMALE,Scottish,Scottish Highers ,2024-03-06_14h28.33.606,CRL1h,2023.2.3,Win32,60.24096386,65e67470ae2fbf2172c317b2,65e87d724ed22479407e1c6b,,,,,,,,,,,787.2954,1.3,788.5948,788.5949,789.6456,right,1,1.0492,,789.6457,790.6449,3,1,49,7,1,partial,1,images/Ex8.jpg,right,training,hard,3,,,,,
,,,,,6128affc7322ddbb3e16dcb3,001,26,FEMALE,Scottish,Scottish Highers ,2024-03-06_14h28.33.606,CRL1h,2023.2.3,Win32,60.24096386,65e67470ae2fbf2172c317b2,65e87d724ed22479407e1c6b,,,,,,,,,,,790.6455,0.9,791.545,791.545,792.996,left,1,1.4495,,792.996,793.9949,3,2,50,10,1,partial,1,images/Ex3.jpg,left,training,hard,3,,,,,
,,,,,6128affc7322ddbb3e16dcb3,001,26,FEMALE,Scottish,Scottish Highers ,2024-03-06_14h28.33.606,CRL1h,2023.2.3,Win32,60.24096386,65e67470ae2fbf2172c317b2,65e87d724ed22479407e1c6b,,,,,,,,,,,794.0104,0.7,794.7042,794.7043,796.1713,right,1,1.4636,,796.1714,797.1707,3,3,51,5,1,partial,1,images/Ex6.jpg,right,training,hard,3,,,,,
,,,,,6128affc7322ddbb3e16dcb3,001,26,FEMALE,Scottish,Scottish Highers ,2024-03-06_14h28.33.606,CRL1h,2023.2.3,Win32,60.24096386,65e67470ae2fbf2172c317b2,65e87d724ed22479407e1c6b,,,,,,,,,,,797.1714,1.3,798.4709,798.4709,799.2928,left,1,0.8198,,799.2929,800.2941,3,4,52,1,1,partial,1,images/Ex2.jpg,left,training,hard,3,,,,,
,,,,,6128affc7322ddbb3e16dcb3,001,26,FEMALE,Scottish,Scottish Highers ,2024-03-06_14h28.33.606,CRL1h,2023.2.3,Win32,60.24096386,65e67470ae2fbf2172c317b2,65e87d724ed22479407e1c6b,,,,,,,,,,,800.2946,1,801.2941,801.2942,803.3465,left,0,2.0507,,803.3465,804.3373,3,5,53,4,1,partial,1,images/Ex5.jpg,right,training,hard,3,,,,,
,,,,,6128affc7322ddbb3e16dcb3,001,26,FEMALE,Scottish,Scottish Highers ,2024-03-06_14h28.33.606,CRL1h,2023.2.3,Win32,60.24096386,65e67470ae2fbf2172c317b2,65e87d724ed22479407e1c6b,,,,,,,,,,,804.3524,0.5,804.8539,804.8539,805.5213,right,1,0.6562,,805.5214,806.5205,3,6,54,12,1,partial,1,images/Ex5.jpg,right,training,hard,3,,,,,
,,,,,6128affc7322ddbb3e16dcb3,001,26,FEMALE,Scottish,Scottish Highers ,2024-03-06_14h28.33.606,CRL1h,2023.2.3,Win32,60.24096386,65e67470ae2fbf2172c317b2,65e87d724ed22479407e1c6b,,,,,,,,,,,806.5209,1.3,807.8104,807.8105,809.5706,right,1,1.755,,809.5707,810.5708,3,7,55,13,1,partial,1,images/Ex6.jpg,right,training,hard,3,,,,,
,,,,,6128affc7322ddbb3e16dcb3,001,26,FEMALE,Scottish,Scottish Highers ,2024-03-06_14h28.33.606,CRL1h,2023.2.3,Win32,60.24096386,65e67470ae2fbf2172c317b2,65e87d724ed22479407e1c6b,,,,,,,,,,,810.572,0.7,811.2708,811.2708,812.2877,right,0,1.0091,,812.2877,813.2873,3,8,56,2,1,partial,1,images/Ex3.jpg,left,training,hard,3,,,,,
,,,,,6128affc7322ddbb3e16dcb3,001,26,FEMALE,Scottish,Scottish Highers ,2024-03-06_14h28.33.606,CRL1h,2023.2.3,Win32,60.24096386,65e67470ae2fbf2172c317b2,65e87d724ed22479407e1c6b,,,,,,,,,,,813.2879,0.8,814.0879,814.0879,816.0041,left,1,1.905,,816.0042,816.9936,3,9,57,3,1,partial,1,images/Ex4.jpg,left,training,hard,3,,,,,
,,,,,6128affc7322ddbb3e16dcb3,001,26,FEMALE,Scottish,Scottish Highers ,2024-03-06_14h28.33.606,CRL1h,2023.2.3,Win32,60.24096386,65e67470ae2fbf2172c317b2,65e87d724ed22479407e1c6b,,,,,,,,,,,816.9943,1.3,818.287,818.2871,819.1449,left,0,0.8559,,819.145,820.1433,3,10,58,6,1,partial,1,images/Ex7.jpg,right,training,hard,3,,,,,
,,,,,6128affc7322ddbb3e16dcb3,001,26,FEMALE,Scottish,Scottish Highers ,2024-03-06_14h28.33.606,CRL1h,2023.2.3,Win32,60.24096386,65e67470ae2fbf2172c317b2,65e87d724ed22479407e1c6b,,,,,,,,,,,820.1439,1.2,821.3373,821.3374,822.0607,right,1,0.7219,,822.0607,823.0534,3,11,59,15,1,partial,1,images/Ex8.jpg,right,training,hard,3,,,,,
,,,,,6128affc7322ddbb3e16dcb3,001,26,FEMALE,Scottish,Scottish Highers ,2024-03-06_14h28.33.606,CRL1h,2023.2.3,Win32,60.24096386,65e67470ae2fbf2172c317b2,65e87d724ed22479407e1c6b,,,,,,,,,,,823.0541,0.9,823.9534,823.9535,824.7207,right,1,0.7545,,824.7208,825.7201,3,12,60,14,1,partial,1,images/Ex7.jpg,right,training,hard,3,,,,,
,,,,,6128affc7322ddbb3e16dcb3,001,26,FEMALE,Scottish,Scottish Highers ,2024-03-06_14h28.33.606,CRL1h,2023.2.3,Win32,60.24096386,65e67470ae2fbf2172c317b2,65e87d724ed22479407e1c6b,,,,,,,,,,,825.7208,1.1,826.8199,826.82,830.3368,right,0,3.5049,,830.3369,831.337,3,13,61,9,1,partial,1,images/Ex2.jpg,left,training,hard,3,,,,,
,,,,,6128affc7322ddbb3e16dcb3,001,26,FEMALE,Scottish,Scottish Highers ,2024-03-06_14h28.33.606,CRL1h,2023.2.3,Win32,60.24096386,65e67470ae2fbf2172c317b2,65e87d724ed22479407e1c6b,,,,,,,,,,,831.352,1.5,832.8533,832.8533,833.12,right,0,0.2644,,833.1201,834.1206,3,14,62,0,1,partial,1,images/Ex1.jpg,left,training,hard,3,,,,,
,,,,,6128affc7322ddbb3e16dcb3,001,26,FEMALE,Scottish,Scottish Highers ,2024-03-06_14h28.33.606,CRL1h,2023.2.3,Win32,60.24096386,65e67470ae2fbf2172c317b2,65e87d724ed22479407e1c6b,,,,,,,,,,,834.1211,0.9,835.0199,835.0199,835.2699,left,1,0.2468,,835.27,836.2701,3,15,63,8,1,partial,1,images/Ex1.jpg,left,training,hard,3,,,,,
,,,,,6128affc7322ddbb3e16dcb3,001,26,FEMALE,Scottish,Scottish Highers ,2024-03-06_14h28.33.606,CRL1h,2023.2.3,Win32,60.24096386,65e67470ae2fbf2172c317b2,65e87d724ed22479407e1c6b,,,,,,,,,,,836.2708,1,837.2697,837.2698,837.5236,left,0,0.2418,,837.5237,838.5203,4,0,64,13,1,partial,1,images/Ex6.jpg,right,training,hard,3,,,,,
,,,,,6128affc7322ddbb3e16dcb3,001,26,FEMALE,Scottish,Scottish Highers ,2024-03-06_14h28.33.606,CRL1h,2023.2.3,Win32,60.24096386,65e67470ae2fbf2172c317b2,65e87d724ed22479407e1c6b,,,,,,,,,,,838.5209,0.6,839.12,839.1202,839.5031,right,0,0.3736,,839.5032,840.5029,4,1,65,10,1,partial,1,images/Ex3.jpg,left,training,hard,3,,,,,
,,,,,6128affc7322ddbb3e16dcb3,001,26,FEMALE,Scottish,Scottish Highers ,2024-03-06_14h28.33.606,CRL1h,2023.2.3,Win32,60.24096386,65e67470ae2fbf2172c317b2,65e87d724ed22479407e1c6b,,,,,,,,,,,840.5035,1.1,841.6029,841.6029,841.7371,right,0,0.1245,,841.7371,842.7368,4,2,66,8,1,partial,1,images/Ex1.jpg,left,training,hard,3,,,,,
,,,,,6128affc7322ddbb3e16dcb3,001,26,FEMALE,Scottish,Scottish Highers ,2024-03-06_14h28.33.606,CRL1h,2023.2.3,Win32,60.24096386,65e67470ae2fbf2172c317b2,65e87d724ed22479407e1c6b,,,,,,,,,,,842.7374,0.7,843.4366,843.4366,843.8029,left,0,0.3601,,843.803,844.8028,4,3,67,15,1,partial,1,images/Ex8.jpg,right,training,hard,3,,,,,
,,,,,6128affc7322ddbb3e16dcb3,001,26,FEMALE,Scottish,Scottish Highers ,2024-03-06_14h28.33.606,CRL1h,2023.2.3,Win32,60.24096386,65e67470ae2fbf2172c317b2,65e87d724ed22479407e1c6b,,,,,,,,,,,844.8035,1.2,846.0029,846.003,846.4052,left,0,0.3942,,846.4052,847.4028,4,4,68,14,1,partial,1,images/Ex7.jpg,right,training,hard,3,,,,,
,,,,,6128affc7322ddbb3e16dcb3,001,26,FEMALE,Scottish,Scottish Highers ,2024-03-06_14h28.33.606,CRL1h,2023.2.3,Win32,60.24096386,65e67470ae2fbf2172c317b2,65e87d724ed22479407e1c6b,,,,,,,,,,,847.4035,0.7,848.1034,848.1034,848.5862,right,1,0.4778,,848.5863,849.5864,4,5,69,12,1,partial,1,images/Ex5.jpg,right,training,hard,3,,,,,
,,,,,6128affc7322ddbb3e16dcb3,001,26,FEMALE,Scottish,Scottish Highers ,2024-03-06_14h28.33.606,CRL1h,2023.2.3,Win32,60.24096386,65e67470ae2fbf2172c317b2,65e87d724ed22479407e1c6b,,,,,,,,,,,849.587,1.2,850.7864,850.7865,851.1528,right,1,0.3569,,851.1529,852.1525,4,6,70,5,1,partial,1,images/Ex6.jpg,right,training,hard,3,,,,,
,,,,,6128affc7322ddbb3e16dcb3,001,26,FEMALE,Scottish,Scottish Highers ,2024-03-06_14h28.33.606,CRL1h,2023.2.3,Win32,60.24096386,65e67470ae2fbf2172c317b2,65e87d724ed22479407e1c6b,,,,,,,,,,,852.1532,0.9,853.0525,853.0526,853.3864,right,0,0.3275,,853.3865,854.3867,4,7,71,2,1,partial,1,images/Ex3.jpg,left,training,hard,3,,,,,
,,,,,6128affc7322ddbb3e16dcb3,001,26,FEMALE,Scottish,Scottish Highers ,2024-03-06_14h28.33.606,CRL1h,2023.2.3,Win32,60.24096386,65e67470ae2fbf2172c317b2,65e87d724ed22479407e1c6b,,,,,,,,,,,854.3873,0.9,855.2865,855.2865,855.5708,left,0,0.2791,,855.5709,856.5693,4,8,72,6,1,partial,1,images/Ex7.jpg,right,training,hard,3,,,,,
,,,,,6128affc7322ddbb3e16dcb3,001,26,FEMALE,Scottish,Scottish Highers ,2024-03-06_14h28.33.606,CRL1h,2023.2.3,Win32,60.24096386,65e67470ae2fbf2172c317b2,65e87d724ed22479407e1c6b,,,,,,,,,,,856.5699,1.1,857.6693,857.6694,858.1862,left,0,0.5118,,858.1863,859.1858,4,9,73,7,1,partial,1,images/Ex8.jpg,right,training,hard,3,,,,,
,,,,,6128affc7322ddbb3e16dcb3,001,26,FEMALE,Scottish,Scottish Highers ,2024-03-06_14h28.33.606,CRL1h,2023.2.3,Win32,60.24096386,65e67470ae2fbf2172c317b2,65e87d724ed22479407e1c6b,,,,,,,,,,,859.1863,1.3,860.4857,860.4858,860.7526,left,1,0.2626,,860.7527,861.7523,4,10,74,0,1,partial,1,images/Ex1.jpg,left,training,hard,3,,,,,
,,,,,6128affc7322ddbb3e16dcb3,001,26,FEMALE,Scottish,Scottish Highers ,2024-03-06_14h28.33.606,CRL1h,2023.2.3,Win32,60.24096386,65e67470ae2fbf2172c317b2,65e87d724ed22479407e1c6b,,,,,,,,,,,861.7529,1.1,862.8529,862.8529,863.2191,left,1,0.3543,,863.2192,864.2189,4,11,75,11,1,partial,1,images/Ex4.jpg,left,training,hard,3,,,,,
,,,,,6128affc7322ddbb3e16dcb3,001,26,FEMALE,Scottish,Scottish Highers ,2024-03-06_14h28.33.606,CRL1h,2023.2.3,Win32,60.24096386,65e67470ae2fbf2172c317b2,65e87d724ed22479407e1c6b,,,,,,,,,,,864.2196,0.9,865.1189,865.119,865.3696,left,1,0.2426,,865.3697,866.3693,4,12,76,1,1,partial,1,images/Ex2.jpg,left,training,hard,3,,,,,
,,,,,6128affc7322ddbb3e16dcb3,001,26,FEMALE,Scottish,Scottish Highers ,2024-03-06_14h28.33.606,CRL1h,2023.2.3,Win32,60.24096386,65e67470ae2fbf2172c317b2,65e87d724ed22479407e1c6b,,,,,,,,,,,866.3698,0.5,866.8692,866.8693,867.5526,left,1,0.6765,,867.5527,868.5523,4,13,77,3,1,partial,1,images/Ex4.jpg,left,training,hard,3,,,,,
,,,,,6128affc7322ddbb3e16dcb3,001,26,FEMALE,Scottish,Scottish Highers ,2024-03-06_14h28.33.606,CRL1h,2023.2.3,Win32,60.24096386,65e67470ae2fbf2172c317b2,65e87d724ed22479407e1c6b,,,,,,,,,,,868.5528,1.2,869.7522,869.7523,870.0024,left,0,0.2385,,870.0026,871.0024,4,14,78,4,1,partial,1,images/Ex5.jpg,right,training,hard,3,,,,,
,,,,,6128affc7322ddbb3e16dcb3,001,26,FEMALE,Scottish,Scottish Highers ,2024-03-06_14h28.33.606,CRL1h,2023.2.3,Win32,60.24096386,65e67470ae2fbf2172c317b2,65e87d724ed22479407e1c6b,,,,,,,,,,,871.003,1.2,872.2023,872.2024,872.6855,right,0,0.4767,,872.6856,873.6855,4,15,79,9,1,partial,1,images/Ex2.jpg,left,training,hard,3,,,,,
,,,,,6128affc7322ddbb3e16dcb3,001,26,FEMALE,Scottish,Scottish Highers ,2024-03-06_14h28.33.606,CRL1h,2023.2.3,Win32,60.24096386,65e67470ae2fbf2172c317b2,65e87d724ed22479407e1c6b,,,,,,,,,,,873.6862,1.1,874.7853,874.7854,875.3687,right,1,0.5773,,875.3688,876.3687,5,0,80,13,1,partial,1,images/Ex6.jpg,right,training,hard,3,,,,,
,,,,,6128affc7322ddbb3e16dcb3,001,26,FEMALE,Scottish,Scottish Highers ,2024-03-06_14h28.33.606,CRL1h,2023.2.3,Win32,60.24096386,65e67470ae2fbf2172c317b2,65e87d724ed22479407e1c6b,,,,,,,,,,,876.3693,0.6,876.9691,876.9692,877.4859,right,1,0.505,,877.486,878.4851,5,1,81,5,1,partial,1,images/Ex6.jpg,right,training,hard,3,,,,,
,,,,,6128affc7322ddbb3e16dcb3,001,26,FEMALE,Scottish,Scottish Highers ,2024-03-06_14h28.33.606,CRL1h,2023.2.3,Win32,60.24096386,65e67470ae2fbf2172c317b2,65e87d724ed22479407e1c6b,,,,,,,,,,,878.4858,0.8,879.2853,879.2854,879.8858,left,0,0.5908,,879.8859,880.885,5,2,82,6,1,partial,1,images/Ex7.jpg,right,training,hard,3,,,,,
,,,,,6128affc7322ddbb3e16dcb3,001,26,FEMALE,Scottish,Scottish Highers ,2024-03-06_14h28.33.606,CRL1h,2023.2.3,Win32,60.24096386,65e67470ae2fbf2172c317b2,65e87d724ed22479407e1c6b,,,,,,,,,,,880.8858,0.8,881.6864,881.6865,882.3022,left,1,0.6087,,882.3023,883.3019,5,3,83,8,1,partial,1,images/Ex1.jpg,left,training,hard,3,,,,,
,,,,,6128affc7322ddbb3e16dcb3,001,26,FEMALE,Scottish,Scottish Highers ,2024-03-06_14h28.33.606,CRL1h,2023.2.3,Win32,60.24096386,65e67470ae2fbf2172c317b2,65e87d724ed22479407e1c6b,,,,,,,,,,,883.3026,0.7,884.0018,884.002,884.5522,left,0,0.5408,,884.5523,885.5518,5,4,84,15,1,partial,1,images/Ex8.jpg,right,training,hard,3,,,,,
,,,,,6128affc7322ddbb3e16dcb3,001,26,FEMALE,Scottish,Scottish Highers ,2024-03-06_14h28.33.606,CRL1h,2023.2.3,Win32,60.24096386,65e67470ae2fbf2172c317b2,65e87d724ed22479407e1c6b,,,,,,,,,,,885.5524,0.9,886.4516,886.4517,887.019,left,0,0.5578,,887.0191,888.0187,5,5,85,7,1,partial,1,images/Ex8.jpg,right,training,hard,3,,,,,
,,,,,6128affc7322ddbb3e16dcb3,001,26,FEMALE,Scottish,Scottish Highers ,2024-03-06_14h28.33.606,CRL1h,2023.2.3,Win32,60.24096386,65e67470ae2fbf2172c317b2,65e87d724ed22479407e1c6b,,,,,,,,,,,888.0195,0.5,888.5182,888.5183,888.9685,right,0,0.4414,,888.9687,889.9687,5,6,86,1,1,partial,1,images/Ex2.jpg,left,training,hard,3,,,,,
,,,,,6128affc7322ddbb3e16dcb3,001,26,FEMALE,Scottish,Scottish Highers ,2024-03-06_14h28.33.606,CRL1h,2023.2.3,Win32,60.24096386,65e67470ae2fbf2172c317b2,65e87d724ed22479407e1c6b,,,,,,,,,,,889.9693,1,890.9721,890.9723,891.4691,left,0,0.4868,,891.4691,892.4684,5,7,87,4,1,partial,1,images/Ex5.jpg,right,training,hard,3,,,,,
,,,,,6128affc7322ddbb3e16dcb3,001,26,FEMALE,Scottish,Scottish Highers ,2024-03-06_14h28.33.606,CRL1h,2023.2.3,Win32,60.24096386,65e67470ae2fbf2172c317b2,65e87d724ed22479407e1c6b,,,,,,,,,,,892.4689,0.5,892.9687,892.9687,893.5688,right,0,0.5909,,893.5689,894.568,5,8,88,9,1,partial,1,images/Ex2.jpg,left,training,hard,3,,,,,
,,,,,6128affc7322ddbb3e16dcb3,001,26,FEMALE,Scottish,Scottish Highers ,2024-03-06_14h28.33.606,CRL1h,2023.2.3,Win32,60.24096386,65e67470ae2fbf2172c317b2,65e87d724ed22479407e1c6b,,,,,,,,,,,894.5689,1.2,895.7682,895.7682,896.2682,left,0,0.4956,,896.2683,897.2681,5,9,89,14,1,partial,1,images/Ex7.jpg,right,training,hard,3,,,,,
,,,,,6128affc7322ddbb3e16dcb3,001,26,FEMALE,Scottish,Scottish Highers ,2024-03-06_14h28.33.606,CRL1h,2023.2.3,Win32,60.24096386,65e67470ae2fbf2172c317b2,65e87d724ed22479407e1c6b,,,,,,,,,,,897.2687,1,898.2684,898.2685,898.6188,left,1,0.3406,,898.6189,899.618,5,10,90,3,1,partial,1,images/Ex4.jpg,left,training,hard,3,,,,,
,,,,,6128affc7322ddbb3e16dcb3,001,26,FEMALE,Scottish,Scottish Highers ,2024-03-06_14h28.33.606,CRL1h,2023.2.3,Win32,60.24096386,65e67470ae2fbf2172c317b2,65e87d724ed22479407e1c6b,,,,,,,,,,,899.6187,0.5,900.1184,900.1185,900.5682,left,1,0.4445,,900.5683,901.5684,5,11,91,2,1,partial,1,images/Ex3.jpg,left,training,hard,3,,,,,
,,,,,6128affc7322ddbb3e16dcb3,001,26,FEMALE,Scottish,Scottish Highers ,2024-03-06_14h28.33.606,CRL1h,2023.2.3,Win32,60.24096386,65e67470ae2fbf2172c317b2,65e87d724ed22479407e1c6b,,,,,,,,,,,901.569,0.5,902.068,902.068,902.5849,left,1,0.5079,,902.5849,903.5844,5,12,92,10,1,partial,1,images/Ex3.jpg,left,training,hard,3,,,,,
,,,,,6128affc7322ddbb3e16dcb3,001,26,FEMALE,Scottish,Scottish Highers ,2024-03-06_14h28.33.606,CRL1h,2023.2.3,Win32,60.24096386,65e67470ae2fbf2172c317b2,65e87d724ed22479407e1c6b,,,,,,,,,,,903.585,1.1,904.6845,904.6846,905.2187,left,1,0.5268,,905.2187,906.2182,5,13,93,11,1,partial,1,images/Ex4.jpg,left,training,hard,3,,,,,
,,,,,6128affc7322ddbb3e16dcb3,001,26,FEMALE,Scottish,Scottish Highers ,2024-03-06_14h28.33.606,CRL1h,2023.2.3,Win32,60.24096386,65e67470ae2fbf2172c317b2,65e87d724ed22479407e1c6b,,,,,,,,,,,906.2188,1.1,907.3183,907.3183,907.9847,right,1,0.6568,,907.9848,908.9883,5,14,94,12,1,partial,1,images/Ex5.jpg,right,training,hard,3,,,,,
,,,,,6128affc7322ddbb3e16dcb3,001,26,FEMALE,Scottish,Scottish Highers ,2024-03-06_14h28.33.606,CRL1h,2023.2.3,Win32,60.24096386,65e67470ae2fbf2172c317b2,65e87d724ed22479407e1c6b,,,,,,,,,,,908.989,0.5,909.4844,909.4844,910.0346,right,0,0.539,,910.0347,911.0342,5,15,95,0,1,partial,1,images/Ex1.jpg,left,training,hard,3,,,,,
,,,,,6128affc7322ddbb3e16dcb3,001,26,FEMALE,Scottish,Scottish Highers ,2024-03-06_14h28.33.606,CRL1h,2023.2.3,Win32,60.24096386,65e67470ae2fbf2172c317b2,65e87d724ed22479407e1c6b,,,,,,,,,,,911.0349,0.7,911.7343,911.7343,912.2345,right,1,0.4913,,912.2345,913.2342,6,0,96,7,1,partial,1,images/Ex8.jpg,right,training,hard,3,,,,,
,,,,,6128affc7322ddbb3e16dcb3,001,26,FEMALE,Scottish,Scottish Highers ,2024-03-06_14h28.33.606,CRL1h,2023.2.3,Win32,60.24096386,65e67470ae2fbf2172c317b2,65e87d724ed22479407e1c6b,,,,,,,,,,,913.2348,0.8,914.0342,914.0343,914.6178,right,0,0.5743,,914.6178,915.6175,6,1,97,2,1,partial,1,images/Ex3.jpg,left,training,hard,3,,,,,
,,,,,6128affc7322ddbb3e16dcb3,001,26,FEMALE,Scottish,Scottish Highers ,2024-03-06_14h28.33.606,CRL1h,2023.2.3,Win32,60.24096386,65e67470ae2fbf2172c317b2,65e87d724ed22479407e1c6b,,,,,,,,,,,915.6181,0.8,916.4175,916.4176,917.001,left,1,0.5809,,917.0011,918.0008,6,2,98,3,1,partial,1,images/Ex4.jpg,left,training,hard,3,,,,,
,,,,,6128affc7322ddbb3e16dcb3,001,26,FEMALE,Scottish,Scottish Highers ,2024-03-06_14h28.33.606,CRL1h,2023.2.3,Win32,60.24096386,65e67470ae2fbf2172c317b2,65e87d724ed22479407e1c6b,,,,,,,,,,,918.0014,1.4,919.4007,919.4007,920.1518,right,1,0.7442,,920.1519,921.1507,6,3,99,15,1,partial,1,images/Ex8.jpg,right,training,hard,3,,,,,
,,,,,6128affc7322ddbb3e16dcb3,001,26,FEMALE,Scottish,Scottish Highers ,2024-03-06_14h28.33.606,CRL1h,2023.2.3,Win32,60.24096386,65e67470ae2fbf2172c317b2,65e87d724ed22479407e1c6b,,,,,,,,,,,921.1513,0.8,921.9506,921.9507,922.8178,right,1,0.8591,,922.8179,923.8173,6,4,100,14,1,partial,1,images/Ex7.jpg,right,training,hard,3,,,,,
,,,,,6128affc7322ddbb3e16dcb3,001,26,FEMALE,Scottish,Scottish Highers ,2024-03-06_14h28.33.606,CRL1h,2023.2.3,Win32,60.24096386,65e67470ae2fbf2172c317b2,65e87d724ed22479407e1c6b,,,,,,,,,,,923.8179,1.2,925.0173,925.0173,925.6674,left,1,0.6486,,925.6674,926.6677,6,5,101,9,1,partial,1,images/Ex2.jpg,left,training,hard,3,,,,,
,,,,,6128affc7322ddbb3e16dcb3,001,26,FEMALE,Scottish,Scottish Highers ,2024-03-06_14h28.33.606,CRL1h,2023.2.3,Win32,60.24096386,65e67470ae2fbf2172c317b2,65e87d724ed22479407e1c6b,,,,,,,,,,,926.6681,0.9,927.5676,927.5677,928.3009,right,1,0.721,,928.301,929.3008,6,6,102,6,1,partial,1,images/Ex7.jpg,right,training,hard,3,,,,,
,,,,,6128affc7322ddbb3e16dcb3,001,26,FEMALE,Scottish,Scottish Highers ,2024-03-06_14h28.33.606,CRL1h,2023.2.3,Win32,60.24096386,65e67470ae2fbf2172c317b2,65e87d724ed22479407e1c6b,,,,,,,,,,,929.3016,1.1,930.4004,930.4005,931.0173,left,0,0.6043,,931.0173,932.0179,6,7,103,4,1,partial,1,images/Ex5.jpg,right,training,hard,3,,,,,
,,,,,6128affc7322ddbb3e16dcb3,001,26,FEMALE,Scottish,Scottish Highers ,2024-03-06_14h28.33.606,CRL1h,2023.2.3,Win32,60.24096386,65e67470ae2fbf2172c317b2,65e87d724ed22479407e1c6b,,,,,,,,,,,932.0184,0.6,932.6175,932.6176,933.5354,right,0,0.9159,,933.5354,934.5338,6,8,104,8,1,partial,1,images/Ex1.jpg,left,training,hard,3,,,,,
,,,,,6128affc7322ddbb3e16dcb3,001,26,FEMALE,Scottish,Scottish Highers ,2024-03-06_14h28.33.606,CRL1h,2023.2.3,Win32,60.24096386,65e67470ae2fbf2172c317b2,65e87d724ed22479407e1c6b,,,,,,,,,,,934.5343,0.6,935.1338,935.1338,935.8504,right,0,0.7101,,935.8505,936.8502,6,9,105,1,1,partial,1,images/Ex2.jpg,left,training,hard,3,,,,,
,,,,,6128affc7322ddbb3e16dcb3,001,26,FEMALE,Scottish,Scottish Highers ,2024-03-06_14h28.33.606,CRL1h,2023.2.3,Win32,60.24096386,65e67470ae2fbf2172c317b2,65e87d724ed22479407e1c6b,,,,,,,,,,,936.8507,1.5,938.3506,938.3506,939.1008,left,1,0.7385,,939.1009,940.1003,6,10,106,10,1,partial,1,images/Ex3.jpg,left,training,hard,3,,,,,
,,,,,6128affc7322ddbb3e16dcb3,001,26,FEMALE,Scottish,Scottish Highers ,2024-03-06_14h28.33.606,CRL1h,2023.2.3,Win32,60.24096386,65e67470ae2fbf2172c317b2,65e87d724ed22479407e1c6b,,,,,,,,,,,940.1009,0.7,940.8007,940.8007,941.7508,right,1,0.9395,,941.7509,942.7505,6,11,107,12,1,partial,1,images/Ex5.jpg,right,training,hard,3,,,,,
,,,,,6128affc7322ddbb3e16dcb3,001,26,FEMALE,Scottish,Scottish Highers ,2024-03-06_14h28.33.606,CRL1h,2023.2.3,Win32,60.24096386,65e67470ae2fbf2172c317b2,65e87d724ed22479407e1c6b,,,,,,,,,,,942.7511,0.5,943.2505,943.2506,944.3173,right,1,1.0609,,944.3174,945.3171,6,12,108,5,1,partial,1,images/Ex6.jpg,right,training,hard,3,,,,,
,,,,,6128affc7322ddbb3e16dcb3,001,26,FEMALE,Scottish,Scottish Highers ,2024-03-06_14h28.33.606,CRL1h,2023.2.3,Win32,60.24096386,65e67470ae2fbf2172c317b2,65e87d724ed22479407e1c6b,,,,,,,,,,,945.3177,0.9,946.2171,946.2171,946.8173,right,1,0.5924,,946.8173,947.817,6,13,109,13,1,partial,1,images/Ex6.jpg,right,training,hard,3,,,,,
,,,,,6128affc7322ddbb3e16dcb3,001,26,FEMALE,Scottish,Scottish Highers ,2024-03-06_14h28.33.606,CRL1h,2023.2.3,Win32,60.24096386,65e67470ae2fbf2172c317b2,65e87d724ed22479407e1c6b,,,,,,,,,,,947.8176,1.5,949.3168,949.3168,949.9502,left,1,0.632,,949.9503,950.9534,6,14,110,11,1,partial,1,images/Ex4.jpg,left,training,hard,3,,,,,
,,,,,6128affc7322ddbb3e16dcb3,001,26,FEMALE,Scottish,Scottish Highers ,2024-03-06_14h28.33.606,CRL1h,2023.2.3,Win32,60.24096386,65e67470ae2fbf2172c317b2,65e87d724ed22479407e1c6b,,,,,,,,,,,950.9539,0.9,951.8498,951.8499,952.4506,left,1,0.5891,,952.4507,953.4502,6,15,111,0,1,partial,1,images/Ex1.jpg,left,training,hard,3,,,,,
,,,,,6128affc7322ddbb3e16dcb3,001,26,FEMALE,Scottish,Scottish Highers ,2024-03-06_14h28.33.606,CRL1h,2023.2.3,Win32,60.24096386,65e67470ae2fbf2172c317b2,65e87d724ed22479407e1c6b,,,,,,,,,,,953.4509,1.4,954.8498,954.8499,955.2833,left,1,0.4217,,955.2835,956.2831,7,0,112,8,1,partial,1,images/Ex1.jpg,left,training,hard,3,,,,,
