infCons.started,infCons.stopped,resp_consent.keys,resp_consent.rt,resp_consent.duration,participant,session,Age?,Gender?,Nationality?,Highest Educational Degree?,date,expName,psychopyVersion,OS,frameRate,STUDY_ID,SESSION_ID,instructions.started,instructions.stopped,resp_instructions.keys,resp_instructions.rt,resp_instructions.duration,nextTask.started,nextTask.stopped,ready_task.keys,ready_task.rt,ready_task.duration,fixation.started,ITI,fixation.stopped,stim.started,stim.stopped,response.keys,response.corr,response.rt,response.duration,feedback.started,feedback.stopped,trials.thisRepN,trials.thisTrialN,trials.thisN,trials.thisIndex,trials.ran,task,phase,Exemplars,r_correct,condition,difficulty,set,end.started,end.stopped,resp_end.keys,resp_end.rt,resp_end.duration
0.0006,18.9452,space,18.8703,,614618f3146cc85f803c4e69,001,36,Female,English,BA Degree,2024-03-06_14h28.35.176,CRL1h,2023.2.3,Win32,59.88023952,65e67470ae2fbf2172c317b2,65e87d72e5d71ae9900ad0f5,,,,,,,,,,,,,,,,,,,,,,,,,,,,,,,,,,,,,,
,,,,,614618f3146cc85f803c4e69,001,36,Female,English,BA Degree,2024-03-06_14h28.35.176,CRL1h,2023.2.3,Win32,59.88023952,65e67470ae2fbf2172c317b2,65e87d72e5d71ae9900ad0f5,18.9454,47.8379,space,28.8635,,,,,,,,,,,,,,,,,,,,,,,,,,,,,,,,,,
,,,,,614618f3146cc85f803c4e69,001,36,Female,English,BA Degree,2024-03-06_14h28.35.176,CRL1h,2023.2.3,Win32,59.88023952,65e67470ae2fbf2172c317b2,65e87d72e5d71ae9900ad0f5,,,,,,47.8574,52.3579,space,4.4911,,52.3784,1,53.3732,53.3734,55.2171,left,0,1.8263,,55.2175,56.2164,0,0,0,13,1,total,1,images/Ex14.jpg,right,training,hard,3,,,,,
,,,,,614618f3146cc85f803c4e69,001,36,Female,English,BA Degree,2024-03-06_14h28.35.176,CRL1h,2023.2.3,Win32,59.88023952,65e67470ae2fbf2172c317b2,65e87d72e5d71ae9900ad0f5,,,,,,,,,,,56.2186,0.8,57.0161,57.0162,58.1163,right,1,1.0887,,58.1164,59.1154,0,1,1,15,1,total,1,images/Ex16.jpg,right,training,hard,3,,,,,
,,,,,614618f3146cc85f803c4e69,001,36,Female,English,BA Degree,2024-03-06_14h28.35.176,CRL1h,2023.2.3,Win32,59.88023952,65e67470ae2fbf2172c317b2,65e87d72e5d71ae9900ad0f5,,,,,,,,,,,59.1163,1,60.1153,60.1153,61.0823,left,0,0.9574,,61.0824,62.0816,0,2,2,12,1,total,1,images/Ex13.jpg,right,training,hard,3,,,,,
,,,,,614618f3146cc85f803c4e69,001,36,Female,English,BA Degree,2024-03-06_14h28.35.176,CRL1h,2023.2.3,Win32,59.88023952,65e67470ae2fbf2172c317b2,65e87d72e5d71ae9900ad0f5,,,,,,,,,,,62.0824,1.1,63.1812,63.1813,63.7981,left,0,0.6152,,63.7982,64.7974,0,3,3,4,1,total,1,images/Ex13.jpg,right,training,hard,3,,,,,
,,,,,614618f3146cc85f803c4e69,001,36,Female,English,BA Degree,2024-03-06_14h28.35.176,CRL1h,2023.2.3,Win32,59.88023952,65e67470ae2fbf2172c317b2,65e87d72e5d71ae9900ad0f5,,,,,,,,,,,64.798,1.1,65.8973,65.8973,66.5496,right,1,0.6432,,66.5498,67.5486,0,4,4,14,1,total,1,images/Ex15.jpg,right,training,hard,3,,,,,
,,,,,614618f3146cc85f803c4e69,001,36,Female,English,BA Degree,2024-03-06_14h28.35.176,CRL1h,2023.2.3,Win32,59.88023952,65e67470ae2fbf2172c317b2,65e87d72e5d71ae9900ad0f5,,,,,,,,,,,67.5499,1.5,69.0484,69.0486,69.5035,right,1,0.4531,,69.5036,70.4974,0,5,5,6,1,total,1,images/Ex15.jpg,right,training,hard,3,,,,,
,,,,,614618f3146cc85f803c4e69,001,36,Female,English,BA Degree,2024-03-06_14h28.35.176,CRL1h,2023.2.3,Win32,59.88023952,65e67470ae2fbf2172c317b2,65e87d72e5d71ae9900ad0f5,,,,,,,,,,,70.4992,1.5,71.9976,71.9979,72.5796,left,1,0.5691,,72.5797,73.5789,0,6,6,11,1,total,1,images/Ex12.jpg,left,training,hard,3,,,,,
,,,,,614618f3146cc85f803c4e69,001,36,Female,English,BA Degree,2024-03-06_14h28.35.176,CRL1h,2023.2.3,Win32,59.88023952,65e67470ae2fbf2172c317b2,65e87d72e5d71ae9900ad0f5,,,,,,,,,,,73.5794,1.1,74.6786,74.6786,75.162,left,1,0.472,,75.1621,76.1615,0,7,7,3,1,total,1,images/Ex12.jpg,left,training,hard,3,,,,,
,,,,,614618f3146cc85f803c4e69,001,36,Female,English,BA Degree,2024-03-06_14h28.35.176,CRL1h,2023.2.3,Win32,59.88023952,65e67470ae2fbf2172c317b2,65e87d72e5d71ae9900ad0f5,,,,,,,,,,,76.1621,1,77.1613,77.1614,77.9471,left,1,0.7729,,77.9472,78.945,0,8,8,0,1,total,1,images/Ex9.jpg,left,training,hard,3,,,,,
,,,,,614618f3146cc85f803c4e69,001,36,Female,English,BA Degree,2024-03-06_14h28.35.176,CRL1h,2023.2.3,Win32,59.88023952,65e67470ae2fbf2172c317b2,65e87d72e5d71ae9900ad0f5,,,,,,,,,,,78.9471,1.4,80.35,80.35,81.0781,left,1,0.7199,,81.0781,82.0771,0,9,9,9,1,total,1,images/Ex10.jpg,left,training,hard,3,,,,,
,,,,,614618f3146cc85f803c4e69,001,36,Female,English,BA Degree,2024-03-06_14h28.35.176,CRL1h,2023.2.3,Win32,59.88023952,65e67470ae2fbf2172c317b2,65e87d72e5d71ae9900ad0f5,,,,,,,,,,,82.0784,0.7,82.7769,82.777,83.7775,left,1,0.9889,,83.7776,84.7776,0,10,10,8,1,total,1,images/Ex9.jpg,left,training,hard,3,,,,,
,,,,,614618f3146cc85f803c4e69,001,36,Female,English,BA Degree,2024-03-06_14h28.35.176,CRL1h,2023.2.3,Win32,59.88023952,65e67470ae2fbf2172c317b2,65e87d72e5d71ae9900ad0f5,,,,,,,,,,,84.7796,1.5,86.276,86.2761,86.96,right,0,0.6716,,86.9601,87.9591,0,11,11,2,1,total,1,images/Ex11.jpg,left,training,hard,3,,,,,
,,,,,614618f3146cc85f803c4e69,001,36,Female,English,BA Degree,2024-03-06_14h28.35.176,CRL1h,2023.2.3,Win32,59.88023952,65e67470ae2fbf2172c317b2,65e87d72e5d71ae9900ad0f5,,,,,,,,,,,87.9603,1.2,89.1587,89.1588,89.8427,left,0,0.6732,,89.8427,90.8417,0,12,12,5,1,total,1,images/Ex14.jpg,right,training,hard,3,,,,,
,,,,,614618f3146cc85f803c4e69,001,36,Female,English,BA Degree,2024-03-06_14h28.35.176,CRL1h,2023.2.3,Win32,59.88023952,65e67470ae2fbf2172c317b2,65e87d72e5d71ae9900ad0f5,,,,,,,,,,,90.8425,0.9,91.7415,91.7416,92.2083,right,0,0.4557,,92.2084,93.2077,0,13,13,1,1,total,1,images/Ex10.jpg,left,training,hard,3,,,,,
,,,,,614618f3146cc85f803c4e69,001,36,Female,English,BA Degree,2024-03-06_14h28.35.176,CRL1h,2023.2.3,Win32,59.88023952,65e67470ae2fbf2172c317b2,65e87d72e5d71ae9900ad0f5,,,,,,,,,,,93.2088,1,94.2076,94.2077,94.5911,right,0,0.3721,,94.5912,95.5907,0,14,14,10,1,total,1,images/Ex11.jpg,left,training,hard,3,,,,,
,,,,,614618f3146cc85f803c4e69,001,36,Female,English,BA Degree,2024-03-06_14h28.35.176,CRL1h,2023.2.3,Win32,59.88023952,65e67470ae2fbf2172c317b2,65e87d72e5d71ae9900ad0f5,,,,,,,,,,,95.5917,0.9,96.4904,96.4905,97.2577,right,1,0.7581,,97.2578,98.2567,0,15,15,7,1,total,1,images/Ex16.jpg,right,training,hard,3,,,,,
,,,,,614618f3146cc85f803c4e69,001,36,Female,English,BA Degree,2024-03-06_14h28.35.176,CRL1h,2023.2.3,Win32,59.88023952,65e67470ae2fbf2172c317b2,65e87d72e5d71ae9900ad0f5,,,,,,,,,,,98.2584,0.5,98.7567,98.7567,99.4081,right,0,0.6381,,99.4082,100.4061,1,0,16,10,1,total,1,images/Ex11.jpg,left,training,hard,3,,,,,
,,,,,614618f3146cc85f803c4e69,001,36,Female,English,BA Degree,2024-03-06_14h28.35.176,CRL1h,2023.2.3,Win32,59.88023952,65e67470ae2fbf2172c317b2,65e87d72e5d71ae9900ad0f5,,,,,,,,,,,100.4076,0.6,101.0061,101.0062,101.6896,left,1,0.6725,,101.6897,102.689,1,1,17,2,1,total,1,images/Ex11.jpg,left,training,hard,3,,,,,
,,,,,614618f3146cc85f803c4e69,001,36,Female,English,BA Degree,2024-03-06_14h28.35.176,CRL1h,2023.2.3,Win32,59.88023952,65e67470ae2fbf2172c317b2,65e87d72e5d71ae9900ad0f5,,,,,,,,,,,102.6898,0.7,103.3888,103.3889,104.0223,left,1,0.6222,,104.0223,105.0219,1,2,18,3,1,total,1,images/Ex12.jpg,left,training,hard,3,,,,,
,,,,,614618f3146cc85f803c4e69,001,36,Female,English,BA Degree,2024-03-06_14h28.35.176,CRL1h,2023.2.3,Win32,59.88023952,65e67470ae2fbf2172c317b2,65e87d72e5d71ae9900ad0f5,,,,,,,,,,,105.0228,1,106.0215,106.0216,106.7223,left,0,0.6945,,106.7223,107.7108,1,3,19,5,1,total,1,images/Ex14.jpg,right,training,hard,3,,,,,
,,,,,614618f3146cc85f803c4e69,001,36,Female,English,BA Degree,2024-03-06_14h28.35.176,CRL1h,2023.2.3,Win32,59.88023952,65e67470ae2fbf2172c317b2,65e87d72e5d71ae9900ad0f5,,,,,,,,,,,107.7113,1.3,109.0111,109.0111,109.8563,left,0,0.8363,,109.8564,110.8547,1,4,20,14,1,total,1,images/Ex15.jpg,right,training,hard,3,,,,,
,,,,,614618f3146cc85f803c4e69,001,36,Female,English,BA Degree,2024-03-06_14h28.35.176,CRL1h,2023.2.3,Win32,59.88023952,65e67470ae2fbf2172c317b2,65e87d72e5d71ae9900ad0f5,,,,,,,,,,,110.8562,1.4,112.2597,112.2597,112.9224,right,0,0.6526,,112.9224,113.9205,1,5,21,8,1,total,1,images/Ex9.jpg,left,training,hard,3,,,,,
,,,,,614618f3146cc85f803c4e69,001,36,Female,English,BA Degree,2024-03-06_14h28.35.176,CRL1h,2023.2.3,Win32,59.88023952,65e67470ae2fbf2172c317b2,65e87d72e5d71ae9900ad0f5,,,,,,,,,,,113.9222,0.9,114.8202,114.8204,115.66,right,1,0.8369,,115.6601,116.6532,1,6,22,12,1,total,1,images/Ex13.jpg,right,training,hard,3,,,,,
,,,,,614618f3146cc85f803c4e69,001,36,Female,English,BA Degree,2024-03-06_14h28.35.176,CRL1h,2023.2.3,Win32,59.88023952,65e67470ae2fbf2172c317b2,65e87d72e5d71ae9900ad0f5,,,,,,,,,,,116.655,1.3,117.9529,117.953,118.5542,left,1,0.5926,,118.5543,119.5524,1,7,23,9,1,total,1,images/Ex10.jpg,left,training,hard,3,,,,,
,,,,,614618f3146cc85f803c4e69,001,36,Female,English,BA Degree,2024-03-06_14h28.35.176,CRL1h,2023.2.3,Win32,59.88023952,65e67470ae2fbf2172c317b2,65e87d72e5d71ae9900ad0f5,,,,,,,,,,,119.5541,1.4,120.955,120.955,121.687,left,1,0.7237,,121.6871,122.6903,1,8,24,11,1,total,1,images/Ex12.jpg,left,training,hard,3,,,,,
,,,,,614618f3146cc85f803c4e69,001,36,Female,English,BA Degree,2024-03-06_14h28.35.176,CRL1h,2023.2.3,Win32,59.88023952,65e67470ae2fbf2172c317b2,65e87d72e5d71ae9900ad0f5,,,,,,,,,,,122.6907,0.7,123.3853,123.3854,124.4575,left,0,1.0694,,124.4575,125.4513,1,9,25,4,1,total,1,images/Ex13.jpg,right,training,hard,3,,,,,
,,,,,614618f3146cc85f803c4e69,001,36,Female,English,BA Degree,2024-03-06_14h28.35.176,CRL1h,2023.2.3,Win32,59.88023952,65e67470ae2fbf2172c317b2,65e87d72e5d71ae9900ad0f5,,,,,,,,,,,125.4529,1.2,126.6509,126.651,127.2194,left,1,0.5549,,127.2194,128.2175,1,10,26,0,1,total,1,images/Ex9.jpg,left,training,hard,3,,,,,
,,,,,614618f3146cc85f803c4e69,001,36,Female,English,BA Degree,2024-03-06_14h28.35.176,CRL1h,2023.2.3,Win32,59.88023952,65e67470ae2fbf2172c317b2,65e87d72e5d71ae9900ad0f5,,,,,,,,,,,128.2192,1.2,129.4179,129.4181,129.9516,right,1,0.5258,,129.9517,130.9499,1,11,27,13,1,total,1,images/Ex14.jpg,right,training,hard,3,,,,,
,,,,,614618f3146cc85f803c4e69,001,36,Female,English,BA Degree,2024-03-06_14h28.35.176,CRL1h,2023.2.3,Win32,59.88023952,65e67470ae2fbf2172c317b2,65e87d72e5d71ae9900ad0f5,,,,,,,,,,,130.9517,1.1,132.0498,132.05,132.6181,right,0,0.5589,,132.6182,133.616,1,12,28,1,1,total,1,images/Ex10.jpg,left,training,hard,3,,,,,
,,,,,614618f3146cc85f803c4e69,001,36,Female,English,BA Degree,2024-03-06_14h28.35.176,CRL1h,2023.2.3,Win32,59.88023952,65e67470ae2fbf2172c317b2,65e87d72e5d71ae9900ad0f5,,,,,,,,,,,133.6181,1.1,134.7158,134.716,135.3056,left,0,0.5867,,135.3056,136.2987,1,13,29,6,1,total,1,images/Ex15.jpg,right,training,hard,3,,,,,
,,,,,614618f3146cc85f803c4e69,001,36,Female,English,BA Degree,2024-03-06_14h28.35.176,CRL1h,2023.2.3,Win32,59.88023952,65e67470ae2fbf2172c317b2,65e87d72e5d71ae9900ad0f5,,,,,,,,,,,136.3005,0.8,137.0986,137.0988,137.5828,right,1,0.4715,,137.583,138.5817,1,14,30,15,1,total,1,images/Ex16.jpg,right,training,hard,3,,,,,
,,,,,614618f3146cc85f803c4e69,001,36,Female,English,BA Degree,2024-03-06_14h28.35.176,CRL1h,2023.2.3,Win32,59.88023952,65e67470ae2fbf2172c317b2,65e87d72e5d71ae9900ad0f5,,,,,,,,,,,138.5835,0.6,139.1815,139.1817,139.6993,right,1,0.508,,139.6995,140.6983,1,15,31,7,1,total,1,images/Ex16.jpg,right,training,hard,3,,,,,
,,,,,614618f3146cc85f803c4e69,001,36,Female,English,BA Degree,2024-03-06_14h28.35.176,CRL1h,2023.2.3,Win32,59.88023952,65e67470ae2fbf2172c317b2,65e87d72e5d71ae9900ad0f5,,,,,,,,,,,140.6998,1.3,141.9985,141.9988,142.6372,left,1,0.6367,,142.6372,143.6306,2,0,32,8,1,total,1,images/Ex9.jpg,left,training,hard,3,,,,,
,,,,,614618f3146cc85f803c4e69,001,36,Female,English,BA Degree,2024-03-06_14h28.35.176,CRL1h,2023.2.3,Win32,59.88023952,65e67470ae2fbf2172c317b2,65e87d72e5d71ae9900ad0f5,,,,,,,,,,,143.6322,0.7,144.3303,144.3304,144.9662,left,0,0.6332,,144.9662,145.9632,2,1,33,5,1,total,1,images/Ex14.jpg,right,training,hard,3,,,,,
,,,,,614618f3146cc85f803c4e69,001,36,Female,English,BA Degree,2024-03-06_14h28.35.176,CRL1h,2023.2.3,Win32,59.88023952,65e67470ae2fbf2172c317b2,65e87d72e5d71ae9900ad0f5,,,,,,,,,,,145.9649,1.4,147.3628,147.3629,147.7692,right,1,0.4034,,147.7692,148.7628,2,2,34,7,1,total,1,images/Ex16.jpg,right,training,hard,3,,,,,
,,,,,614618f3146cc85f803c4e69,001,36,Female,English,BA Degree,2024-03-06_14h28.35.176,CRL1h,2023.2.3,Win32,59.88023952,65e67470ae2fbf2172c317b2,65e87d72e5d71ae9900ad0f5,,,,,,,,,,,148.7643,0.6,149.3678,149.3679,150.2309,right,1,0.8615,,150.2309,151.2287,2,3,35,6,1,total,1,images/Ex15.jpg,right,training,hard,3,,,,,
,,,,,614618f3146cc85f803c4e69,001,36,Female,English,BA Degree,2024-03-06_14h28.35.176,CRL1h,2023.2.3,Win32,59.88023952,65e67470ae2fbf2172c317b2,65e87d72e5d71ae9900ad0f5,,,,,,,,,,,151.2304,0.7,151.9288,151.929,153.0464,right,0,1.1081,,153.0465,154.0451,2,4,36,9,1,total,1,images/Ex10.jpg,left,training,hard,3,,,,,
,,,,,614618f3146cc85f803c4e69,001,36,Female,English,BA Degree,2024-03-06_14h28.35.176,CRL1h,2023.2.3,Win32,59.88023952,65e67470ae2fbf2172c317b2,65e87d72e5d71ae9900ad0f5,,,,,,,,,,,154.0468,0.8,154.8444,154.8446,155.7457,right,1,0.8883,,155.7459,156.7503,2,5,37,15,1,total,1,images/Ex16.jpg,right,training,hard,3,,,,,
,,,,,614618f3146cc85f803c4e69,001,36,Female,English,BA Degree,2024-03-06_14h28.35.176,CRL1h,2023.2.3,Win32,59.88023952,65e67470ae2fbf2172c317b2,65e87d72e5d71ae9900ad0f5,,,,,,,,,,,156.7509,1.5,158.2436,158.2438,158.8011,right,0,0.5548,,158.8011,159.7989,2,6,38,0,1,total,1,images/Ex9.jpg,left,training,hard,3,,,,,
,,,,,614618f3146cc85f803c4e69,001,36,Female,English,BA Degree,2024-03-06_14h28.35.176,CRL1h,2023.2.3,Win32,59.88023952,65e67470ae2fbf2172c317b2,65e87d72e5d71ae9900ad0f5,,,,,,,,,,,159.7994,0.6,160.3954,160.3955,161.1437,right,1,0.7372,,161.144,162.1451,2,7,39,13,1,total,1,images/Ex14.jpg,right,training,hard,3,,,,,
,,,,,614618f3146cc85f803c4e69,001,36,Female,English,BA Degree,2024-03-06_14h28.35.176,CRL1h,2023.2.3,Win32,59.88023952,65e67470ae2fbf2172c317b2,65e87d72e5d71ae9900ad0f5,,,,,,,,,,,162.1456,1.3,163.4425,163.4428,163.8989,left,0,0.4536,,163.899,164.8924,2,8,40,14,1,total,1,images/Ex15.jpg,right,training,hard,3,,,,,
,,,,,614618f3146cc85f803c4e69,001,36,Female,English,BA Degree,2024-03-06_14h28.35.176,CRL1h,2023.2.3,Win32,59.88023952,65e67470ae2fbf2172c317b2,65e87d72e5d71ae9900ad0f5,,,,,,,,,,,164.8941,1.1,165.9919,165.992,166.8265,right,0,0.8215,,166.8266,167.825,2,9,41,10,1,total,1,images/Ex11.jpg,left,training,hard,3,,,,,
,,,,,614618f3146cc85f803c4e69,001,36,Female,English,BA Degree,2024-03-06_14h28.35.176,CRL1h,2023.2.3,Win32,59.88023952,65e67470ae2fbf2172c317b2,65e87d72e5d71ae9900ad0f5,,,,,,,,,,,167.8269,0.8,168.6248,168.625,169.431,right,0,0.8033,,169.431,170.4266,2,10,42,1,1,total,1,images/Ex10.jpg,left,training,hard,3,,,,,
,,,,,614618f3146cc85f803c4e69,001,36,Female,English,BA Degree,2024-03-06_14h28.35.176,CRL1h,2023.2.3,Win32,59.88023952,65e67470ae2fbf2172c317b2,65e87d72e5d71ae9900ad0f5,,,,,,,,,,,170.4274,1.1,171.5242,171.5244,172.2256,right,0,0.6889,,172.2256,173.2294,2,11,43,3,1,total,1,images/Ex12.jpg,left,training,hard,3,,,,,
,,,,,614618f3146cc85f803c4e69,001,36,Female,English,BA Degree,2024-03-06_14h28.35.176,CRL1h,2023.2.3,Win32,59.88023952,65e67470ae2fbf2172c317b2,65e87d72e5d71ae9900ad0f5,,,,,,,,,,,173.2301,1,174.2288,174.2289,174.7911,left,0,0.5528,,174.7913,175.7898,2,12,44,12,1,total,1,images/Ex13.jpg,right,training,hard,3,,,,,
,,,,,614618f3146cc85f803c4e69,001,36,Female,English,BA Degree,2024-03-06_14h28.35.176,CRL1h,2023.2.3,Win32,59.88023952,65e67470ae2fbf2172c317b2,65e87d72e5d71ae9900ad0f5,,,,,,,,,,,175.7917,0.7,176.4958,176.4959,177.1909,left,1,0.6826,,177.191,178.1893,2,13,45,2,1,total,1,images/Ex11.jpg,left,training,hard,3,,,,,
,,,,,614618f3146cc85f803c4e69,001,36,Female,English,BA Degree,2024-03-06_14h28.35.176,CRL1h,2023.2.3,Win32,59.88023952,65e67470ae2fbf2172c317b2,65e87d72e5d71ae9900ad0f5,,,,,,,,,,,178.1909,1.4,179.589,179.5893,180.3614,right,0,0.7699,,180.3615,181.3552,2,14,46,11,1,total,1,images/Ex12.jpg,left,training,hard,3,,,,,
,,,,,614618f3146cc85f803c4e69,001,36,Female,English,BA Degree,2024-03-06_14h28.35.176,CRL1h,2023.2.3,Win32,59.88023952,65e67470ae2fbf2172c317b2,65e87d72e5d71ae9900ad0f5,,,,,,,,,,,181.357,1.1,182.4556,182.4557,183.0443,right,1,0.5864,,183.0444,184.0387,2,15,47,4,1,total,1,images/Ex13.jpg,right,training,hard,3,,,,,
,,,,,614618f3146cc85f803c4e69,001,36,Female,English,BA Degree,2024-03-06_14h28.35.176,CRL1h,2023.2.3,Win32,59.88023952,65e67470ae2fbf2172c317b2,65e87d72e5d71ae9900ad0f5,,,,,,,,,,,184.0399,1.2,185.2386,185.2389,186.1607,right,0,0.92,,186.1607,187.1595,3,0,48,2,1,total,1,images/Ex11.jpg,left,training,hard,3,,,,,
,,,,,614618f3146cc85f803c4e69,001,36,Female,English,BA Degree,2024-03-06_14h28.35.176,CRL1h,2023.2.3,Win32,59.88023952,65e67470ae2fbf2172c317b2,65e87d72e5d71ae9900ad0f5,,,,,,,,,,,187.16,0.6,187.7591,187.7592,188.4762,right,0,0.7157,,188.4763,189.4699,3,1,49,9,1,total,1,images/Ex10.jpg,left,training,hard,3,,,,,
,,,,,614618f3146cc85f803c4e69,001,36,Female,English,BA Degree,2024-03-06_14h28.35.176,CRL1h,2023.2.3,Win32,59.88023952,65e67470ae2fbf2172c317b2,65e87d72e5d71ae9900ad0f5,,,,,,,,,,,189.4716,0.6,190.0699,190.0701,190.5711,left,0,0.4895,,190.5713,191.5698,3,2,50,12,1,total,1,images/Ex13.jpg,right,training,hard,3,,,,,
,,,,,614618f3146cc85f803c4e69,001,36,Female,English,BA Degree,2024-03-06_14h28.35.176,CRL1h,2023.2.3,Win32,59.88023952,65e67470ae2fbf2172c317b2,65e87d72e5d71ae9900ad0f5,,,,,,,,,,,191.5713,0.7,192.2692,192.2693,192.8201,right,0,0.5416,,192.8203,193.8193,3,3,51,10,1,total,1,images/Ex11.jpg,left,training,hard,3,,,,,
,,,,,614618f3146cc85f803c4e69,001,36,Female,English,BA Degree,2024-03-06_14h28.35.176,CRL1h,2023.2.3,Win32,59.88023952,65e67470ae2fbf2172c317b2,65e87d72e5d71ae9900ad0f5,,,,,,,,,,,193.8208,0.6,194.4188,194.419,195.02,right,1,0.594,,195.02,196.0239,3,4,52,4,1,total,1,images/Ex13.jpg,right,training,hard,3,,,,,
,,,,,614618f3146cc85f803c4e69,001,36,Female,English,BA Degree,2024-03-06_14h28.35.176,CRL1h,2023.2.3,Win32,59.88023952,65e67470ae2fbf2172c317b2,65e87d72e5d71ae9900ad0f5,,,,,,,,,,,196.0244,1.5,197.5188,197.519,198.2527,left,1,0.726,,198.2528,199.251,3,5,53,11,1,total,1,images/Ex12.jpg,left,training,hard,3,,,,,
,,,,,614618f3146cc85f803c4e69,001,36,Female,English,BA Degree,2024-03-06_14h28.35.176,CRL1h,2023.2.3,Win32,59.88023952,65e67470ae2fbf2172c317b2,65e87d72e5d71ae9900ad0f5,,,,,,,,,,,199.2526,1.2,200.4506,200.4508,201.1521,right,1,0.6928,,201.1522,202.1503,3,6,54,15,1,total,1,images/Ex16.jpg,right,training,hard,3,,,,,
,,,,,614618f3146cc85f803c4e69,001,36,Female,English,BA Degree,2024-03-06_14h28.35.176,CRL1h,2023.2.3,Win32,59.88023952,65e67470ae2fbf2172c317b2,65e87d72e5d71ae9900ad0f5,,,,,,,,,,,202.1519,1.3,203.45,203.4502,203.9573,left,0,0.5042,,203.9574,204.9557,3,7,55,5,1,total,1,images/Ex14.jpg,right,training,hard,3,,,,,
,,,,,614618f3146cc85f803c4e69,001,36,Female,English,BA Degree,2024-03-06_14h28.35.176,CRL1h,2023.2.3,Win32,59.88023952,65e67470ae2fbf2172c317b2,65e87d72e5d71ae9900ad0f5,,,,,,,,,,,204.9562,0.7,205.6495,205.6497,206.3175,right,1,0.6558,,206.3178,207.3162,3,8,56,7,1,total,1,images/Ex16.jpg,right,training,hard,3,,,,,
,,,,,614618f3146cc85f803c4e69,001,36,Female,English,BA Degree,2024-03-06_14h28.35.176,CRL1h,2023.2.3,Win32,59.88023952,65e67470ae2fbf2172c317b2,65e87d72e5d71ae9900ad0f5,,,,,,,,,,,207.3179,0.9,208.2156,208.2157,208.7992,right,1,0.5711,,208.7993,209.7994,3,9,57,6,1,total,1,images/Ex15.jpg,right,training,hard,3,,,,,
,,,,,614618f3146cc85f803c4e69,001,36,Female,English,BA Degree,2024-03-06_14h28.35.176,CRL1h,2023.2.3,Win32,59.88023952,65e67470ae2fbf2172c317b2,65e87d72e5d71ae9900ad0f5,,,,,,,,,,,209.8006,0.7,210.4991,210.4993,211.1223,right,1,0.621,,211.1224,212.1147,3,10,58,13,1,total,1,images/Ex14.jpg,right,training,hard,3,,,,,
,,,,,614618f3146cc85f803c4e69,001,36,Female,English,BA Degree,2024-03-06_14h28.35.176,CRL1h,2023.2.3,Win32,59.88023952,65e67470ae2fbf2172c317b2,65e87d72e5d71ae9900ad0f5,,,,,,,,,,,212.1164,1.1,213.2145,213.2147,213.8825,right,0,0.6623,,213.8826,214.8726,3,11,59,0,1,total,1,images/Ex9.jpg,left,training,hard,3,,,,,
,,,,,614618f3146cc85f803c4e69,001,36,Female,English,BA Degree,2024-03-06_14h28.35.176,CRL1h,2023.2.3,Win32,59.88023952,65e67470ae2fbf2172c317b2,65e87d72e5d71ae9900ad0f5,,,,,,,,,,,214.8733,0.7,215.5638,215.564,216.2201,right,0,0.654,,216.2202,217.2178,3,12,60,8,1,total,1,images/Ex9.jpg,left,training,hard,3,,,,,
,,,,,614618f3146cc85f803c4e69,001,36,Female,English,BA Degree,2024-03-06_14h28.35.176,CRL1h,2023.2.3,Win32,59.88023952,65e67470ae2fbf2172c317b2,65e87d72e5d71ae9900ad0f5,,,,,,,,,,,217.2184,0.7,217.9191,217.9192,218.3693,right,0,0.4487,,218.3693,219.3683,3,13,61,1,1,total,1,images/Ex10.jpg,left,training,hard,3,,,,,
,,,,,614618f3146cc85f803c4e69,001,36,Female,English,BA Degree,2024-03-06_14h28.35.176,CRL1h,2023.2.3,Win32,59.88023952,65e67470ae2fbf2172c317b2,65e87d72e5d71ae9900ad0f5,,,,,,,,,,,219.3687,1.1,220.4628,220.4629,221.1526,left,0,0.6872,,221.1526,222.1459,3,14,62,14,1,total,1,images/Ex15.jpg,right,training,hard,3,,,,,
,,,,,614618f3146cc85f803c4e69,001,36,Female,English,BA Degree,2024-03-06_14h28.35.176,CRL1h,2023.2.3,Win32,59.88023952,65e67470ae2fbf2172c317b2,65e87d72e5d71ae9900ad0f5,,,,,,,,,,,222.1479,1.1,223.2457,223.246,223.6471,left,1,0.3908,,223.6471,224.6485,3,15,63,3,1,total,1,images/Ex12.jpg,left,training,hard,3,,,,,
,,,,,614618f3146cc85f803c4e69,001,36,Female,English,BA Degree,2024-03-06_14h28.35.176,CRL1h,2023.2.3,Win32,59.88023952,65e67470ae2fbf2172c317b2,65e87d72e5d71ae9900ad0f5,,,,,,,,,,,224.6491,0.8,225.4452,225.4453,226.3516,right,0,0.9036,,226.3516,227.3469,4,0,64,2,1,total,1,images/Ex11.jpg,left,training,hard,3,,,,,
,,,,,614618f3146cc85f803c4e69,001,36,Female,English,BA Degree,2024-03-06_14h28.35.176,CRL1h,2023.2.3,Win32,59.88023952,65e67470ae2fbf2172c317b2,65e87d72e5d71ae9900ad0f5,,,,,,,,,,,227.3474,1.3,228.6443,228.6445,229.2675,left,0,0.6203,,229.2676,230.2607,4,1,65,6,1,total,1,images/Ex15.jpg,right,training,hard,3,,,,,
,,,,,614618f3146cc85f803c4e69,001,36,Female,English,BA Degree,2024-03-06_14h28.35.176,CRL1h,2023.2.3,Win32,59.88023952,65e67470ae2fbf2172c317b2,65e87d72e5d71ae9900ad0f5,,,,,,,,,,,230.2623,0.7,230.9663,230.9664,231.7829,right,1,0.8154,,231.7829,232.777,4,2,66,14,1,total,1,images/Ex15.jpg,right,training,hard,3,,,,,
,,,,,614618f3146cc85f803c4e69,001,36,Female,English,BA Degree,2024-03-06_14h28.35.176,CRL1h,2023.2.3,Win32,59.88023952,65e67470ae2fbf2172c317b2,65e87d72e5d71ae9900ad0f5,,,,,,,,,,,232.7789,1.2,233.9764,233.9766,234.3441,right,1,0.3626,,234.3443,235.342,4,3,67,15,1,total,1,images/Ex16.jpg,right,training,hard,3,,,,,
,,,,,614618f3146cc85f803c4e69,001,36,Female,English,BA Degree,2024-03-06_14h28.35.176,CRL1h,2023.2.3,Win32,59.88023952,65e67470ae2fbf2172c317b2,65e87d72e5d71ae9900ad0f5,,,,,,,,,,,235.3424,1.5,236.8417,236.8417,237.5255,right,1,0.6722,,237.5255,238.5245,4,4,68,5,1,total,1,images/Ex14.jpg,right,training,hard,3,,,,,
,,,,,614618f3146cc85f803c4e69,001,36,Female,English,BA Degree,2024-03-06_14h28.35.176,CRL1h,2023.2.3,Win32,59.88023952,65e67470ae2fbf2172c317b2,65e87d72e5d71ae9900ad0f5,,,,,,,,,,,238.5251,1.4,239.9244,239.9245,240.5245,right,0,0.5907,,240.5245,241.5239,4,5,69,1,1,total,1,images/Ex10.jpg,left,training,hard,3,,,,,
,,,,,614618f3146cc85f803c4e69,001,36,Female,English,BA Degree,2024-03-06_14h28.35.176,CRL1h,2023.2.3,Win32,59.88023952,65e67470ae2fbf2172c317b2,65e87d72e5d71ae9900ad0f5,,,,,,,,,,,241.5244,0.8,242.3236,242.3236,242.8738,left,1,0.5475,,242.8739,243.8733,4,6,70,0,1,total,1,images/Ex9.jpg,left,training,hard,3,,,,,
,,,,,614618f3146cc85f803c4e69,001,36,Female,English,BA Degree,2024-03-06_14h28.35.176,CRL1h,2023.2.3,Win32,59.88023952,65e67470ae2fbf2172c317b2,65e87d72e5d71ae9900ad0f5,,,,,,,,,,,243.874,1.1,244.973,244.9731,245.5235,right,0,0.5423,,245.5235,246.5228,4,7,71,11,1,total,1,images/Ex12.jpg,left,training,hard,3,,,,,
,,,,,614618f3146cc85f803c4e69,001,36,Female,English,BA Degree,2024-03-06_14h28.35.176,CRL1h,2023.2.3,Win32,59.88023952,65e67470ae2fbf2172c317b2,65e87d72e5d71ae9900ad0f5,,,,,,,,,,,246.5235,0.5,247.0226,247.0227,247.6894,left,1,0.6572,,247.6895,248.689,4,8,72,3,1,total,1,images/Ex12.jpg,left,training,hard,3,,,,,
,,,,,614618f3146cc85f803c4e69,001,36,Female,English,BA Degree,2024-03-06_14h28.35.176,CRL1h,2023.2.3,Win32,59.88023952,65e67470ae2fbf2172c317b2,65e87d72e5d71ae9900ad0f5,,,,,,,,,,,248.6897,0.9,249.5886,249.5887,250.5723,left,0,0.9764,,250.5724,251.5715,4,9,73,12,1,total,1,images/Ex13.jpg,right,training,hard,3,,,,,
,,,,,614618f3146cc85f803c4e69,001,36,Female,English,BA Degree,2024-03-06_14h28.35.176,CRL1h,2023.2.3,Win32,59.88023952,65e67470ae2fbf2172c317b2,65e87d72e5d71ae9900ad0f5,,,,,,,,,,,251.5721,1.4,252.9712,252.9712,253.5884,right,1,0.6077,,253.5884,254.5875,4,10,74,13,1,total,1,images/Ex14.jpg,right,training,hard,3,,,,,
,,,,,614618f3146cc85f803c4e69,001,36,Female,English,BA Degree,2024-03-06_14h28.35.176,CRL1h,2023.2.3,Win32,59.88023952,65e67470ae2fbf2172c317b2,65e87d72e5d71ae9900ad0f5,,,,,,,,,,,254.5882,1,255.5873,255.5874,256.1878,right,1,0.5888,,256.1878,257.1869,4,11,75,7,1,total,1,images/Ex16.jpg,right,training,hard,3,,,,,
,,,,,614618f3146cc85f803c4e69,001,36,Female,English,BA Degree,2024-03-06_14h28.35.176,CRL1h,2023.2.3,Win32,59.88023952,65e67470ae2fbf2172c317b2,65e87d72e5d71ae9900ad0f5,,,,,,,,,,,257.1876,0.6,257.7869,257.787,258.6202,left,1,0.822,,258.6203,259.6197,4,12,76,8,1,total,1,images/Ex9.jpg,left,training,hard,3,,,,,
,,,,,614618f3146cc85f803c4e69,001,36,Female,English,BA Degree,2024-03-06_14h28.35.176,CRL1h,2023.2.3,Win32,59.88023952,65e67470ae2fbf2172c317b2,65e87d72e5d71ae9900ad0f5,,,,,,,,,,,259.6203,0.8,260.4195,260.4196,261.2699,right,0,0.841,,261.2699,262.2691,4,13,77,9,1,total,1,images/Ex10.jpg,left,training,hard,3,,,,,
,,,,,614618f3146cc85f803c4e69,001,36,Female,English,BA Degree,2024-03-06_14h28.35.176,CRL1h,2023.2.3,Win32,59.88023952,65e67470ae2fbf2172c317b2,65e87d72e5d71ae9900ad0f5,,,,,,,,,,,262.2696,0.6,262.8689,262.869,263.4528,left,1,0.5738,,263.4529,264.4519,4,14,78,10,1,total,1,images/Ex11.jpg,left,training,hard,3,,,,,
,,,,,614618f3146cc85f803c4e69,001,36,Female,English,BA Degree,2024-03-06_14h28.35.176,CRL1h,2023.2.3,Win32,59.88023952,65e67470ae2fbf2172c317b2,65e87d72e5d71ae9900ad0f5,,,,,,,,,,,264.4524,1.2,265.6516,265.6517,266.3022,left,0,0.641,,266.3023,267.3012,4,15,79,4,1,total,1,images/Ex13.jpg,right,training,hard,3,,,,,
,,,,,614618f3146cc85f803c4e69,001,36,Female,English,BA Degree,2024-03-06_14h28.35.176,CRL1h,2023.2.3,Win32,59.88023952,65e67470ae2fbf2172c317b2,65e87d72e5d71ae9900ad0f5,,,,,,,,,,,267.3018,0.7,268.0011,268.0012,268.6679,right,0,0.6584,,268.668,269.6676,5,0,80,1,1,total,1,images/Ex10.jpg,left,training,hard,3,,,,,
,,,,,614618f3146cc85f803c4e69,001,36,Female,English,BA Degree,2024-03-06_14h28.35.176,CRL1h,2023.2.3,Win32,59.88023952,65e67470ae2fbf2172c317b2,65e87d72e5d71ae9900ad0f5,,,,,,,,,,,269.6683,0.8,270.4674,270.4674,270.9508,right,1,0.4808,,270.9508,271.9502,5,1,81,15,1,total,1,images/Ex16.jpg,right,training,hard,3,,,,,
,,,,,614618f3146cc85f803c4e69,001,36,Female,English,BA Degree,2024-03-06_14h28.35.176,CRL1h,2023.2.3,Win32,59.88023952,65e67470ae2fbf2172c317b2,65e87d72e5d71ae9900ad0f5,,,,,,,,,,,271.9507,0.8,272.75,272.75,273.3002,left,1,0.5458,,273.3002,274.2997,5,2,82,2,1,total,1,images/Ex11.jpg,left,training,hard,3,,,,,
,,,,,614618f3146cc85f803c4e69,001,36,Female,English,BA Degree,2024-03-06_14h28.35.176,CRL1h,2023.2.3,Win32,59.88023952,65e67470ae2fbf2172c317b2,65e87d72e5d71ae9900ad0f5,,,,,,,,,,,274.3001,0.5,274.7996,274.7996,275.6664,left,1,0.8591,,275.6664,276.6658,5,3,83,0,1,total,1,images/Ex9.jpg,left,training,hard,3,,,,,
,,,,,614618f3146cc85f803c4e69,001,36,Female,English,BA Degree,2024-03-06_14h28.35.176,CRL1h,2023.2.3,Win32,59.88023952,65e67470ae2fbf2172c317b2,65e87d72e5d71ae9900ad0f5,,,,,,,,,,,276.6663,1.3,277.9655,277.9656,278.6825,left,1,0.7149,,278.6825,279.6818,5,4,84,3,1,total,1,images/Ex12.jpg,left,training,hard,3,,,,,
,,,,,614618f3146cc85f803c4e69,001,36,Female,English,BA Degree,2024-03-06_14h28.35.176,CRL1h,2023.2.3,Win32,59.88023952,65e67470ae2fbf2172c317b2,65e87d72e5d71ae9900ad0f5,,,,,,,,,,,279.6823,0.7,280.3816,280.3816,281.0486,right,1,0.6574,,281.0486,282.0479,5,5,85,4,1,total,1,images/Ex13.jpg,right,training,hard,3,,,,,
,,,,,614618f3146cc85f803c4e69,001,36,Female,English,BA Degree,2024-03-06_14h28.35.176,CRL1h,2023.2.3,Win32,59.88023952,65e67470ae2fbf2172c317b2,65e87d72e5d71ae9900ad0f5,,,,,,,,,,,282.0484,1.1,283.1477,283.1478,283.9484,right,1,0.789,,283.9485,284.9472,5,6,86,12,1,total,1,images/Ex13.jpg,right,training,hard,3,,,,,
,,,,,614618f3146cc85f803c4e69,001,36,Female,English,BA Degree,2024-03-06_14h28.35.176,CRL1h,2023.2.3,Win32,59.88023952,65e67470ae2fbf2172c317b2,65e87d72e5d71ae9900ad0f5,,,,,,,,,,,284.9479,1.4,286.3469,286.3469,287.0639,right,1,0.7055,,287.064,288.0633,5,7,87,6,1,total,1,images/Ex15.jpg,right,training,hard,3,,,,,
,,,,,614618f3146cc85f803c4e69,001,36,Female,English,BA Degree,2024-03-06_14h28.35.176,CRL1h,2023.2.3,Win32,59.88023952,65e67470ae2fbf2172c317b2,65e87d72e5d71ae9900ad0f5,,,,,,,,,,,288.0638,0.9,288.9631,288.9631,289.6798,left,1,0.7096,,289.6798,290.6792,5,8,88,9,1,total,1,images/Ex10.jpg,left,training,hard,3,,,,,
,,,,,614618f3146cc85f803c4e69,001,36,Female,English,BA Degree,2024-03-06_14h28.35.176,CRL1h,2023.2.3,Win32,59.88023952,65e67470ae2fbf2172c317b2,65e87d72e5d71ae9900ad0f5,,,,,,,,,,,290.6798,0.6,291.2791,291.2791,291.9293,left,0,0.6406,,291.9293,292.9287,5,9,89,14,1,total,1,images/Ex15.jpg,right,training,hard,3,,,,,
,,,,,614618f3146cc85f803c4e69,001,36,Female,English,BA Degree,2024-03-06_14h28.35.176,CRL1h,2023.2.3,Win32,59.88023952,65e67470ae2fbf2172c317b2,65e87d72e5d71ae9900ad0f5,,,,,,,,,,,292.9292,0.6,293.5285,293.5286,294.1122,right,1,0.5799,,294.1123,295.1116,5,10,90,7,1,total,1,images/Ex16.jpg,right,training,hard,3,,,,,
,,,,,614618f3146cc85f803c4e69,001,36,Female,English,BA Degree,2024-03-06_14h28.35.176,CRL1h,2023.2.3,Win32,59.88023952,65e67470ae2fbf2172c317b2,65e87d72e5d71ae9900ad0f5,,,,,,,,,,,295.1121,0.6,295.7114,295.7114,296.2783,right,0,0.555,,296.2784,297.2778,5,11,91,11,1,total,1,images/Ex12.jpg,left,training,hard,3,,,,,
,,,,,614618f3146cc85f803c4e69,001,36,Female,English,BA Degree,2024-03-06_14h28.35.176,CRL1h,2023.2.3,Win32,59.88023952,65e67470ae2fbf2172c317b2,65e87d72e5d71ae9900ad0f5,,,,,,,,,,,297.2785,0.5,297.7777,297.7778,298.3612,left,0,0.5737,,298.3612,299.3605,5,12,92,13,1,total,1,images/Ex14.jpg,right,training,hard,3,,,,,
,,,,,614618f3146cc85f803c4e69,001,36,Female,English,BA Degree,2024-03-06_14h28.35.176,CRL1h,2023.2.3,Win32,59.88023952,65e67470ae2fbf2172c317b2,65e87d72e5d71ae9900ad0f5,,,,,,,,,,,299.3612,1.1,300.4603,300.4603,301.0774,left,0,0.6074,,301.0775,302.0766,5,13,93,5,1,total,1,images/Ex14.jpg,right,training,hard,3,,,,,
,,,,,614618f3146cc85f803c4e69,001,36,Female,English,BA Degree,2024-03-06_14h28.35.176,CRL1h,2023.2.3,Win32,59.88023952,65e67470ae2fbf2172c317b2,65e87d72e5d71ae9900ad0f5,,,,,,,,,,,302.0772,0.9,302.9765,302.9766,303.6099,right,0,0.6293,,303.61,304.6094,5,14,94,10,1,total,1,images/Ex11.jpg,left,training,hard,3,,,,,
,,,,,614618f3146cc85f803c4e69,001,36,Female,English,BA Degree,2024-03-06_14h28.35.176,CRL1h,2023.2.3,Win32,59.88023952,65e67470ae2fbf2172c317b2,65e87d72e5d71ae9900ad0f5,,,,,,,,,,,304.6099,0.8,305.4093,305.4093,305.9593,left,1,0.5402,,305.9594,306.9589,5,15,95,8,1,total,1,images/Ex9.jpg,left,training,hard,3,,,,,
,,,,,614618f3146cc85f803c4e69,001,36,Female,English,BA Degree,2024-03-06_14h28.35.176,CRL1h,2023.2.3,Win32,59.88023952,65e67470ae2fbf2172c317b2,65e87d72e5d71ae9900ad0f5,,,,,,,,,,,306.9594,1.1,308.0586,308.0587,308.6423,right,0,0.5726,,308.6424,309.6416,6,0,96,3,1,total,1,images/Ex12.jpg,left,training,hard,3,,,,,
,,,,,614618f3146cc85f803c4e69,001,36,Female,English,BA Degree,2024-03-06_14h28.35.176,CRL1h,2023.2.3,Win32,59.88023952,65e67470ae2fbf2172c317b2,65e87d72e5d71ae9900ad0f5,,,,,,,,,,,309.6421,1.1,310.7413,310.7413,311.325,right,0,0.5804,,311.3251,312.3243,6,1,97,1,1,total,1,images/Ex10.jpg,left,training,hard,3,,,,,
,,,,,614618f3146cc85f803c4e69,001,36,Female,English,BA Degree,2024-03-06_14h28.35.176,CRL1h,2023.2.3,Win32,59.88023952,65e67470ae2fbf2172c317b2,65e87d72e5d71ae9900ad0f5,,,,,,,,,,,312.3248,0.6,312.9241,312.9241,313.4744,left,0,0.5489,,313.4744,314.4738,6,2,98,13,1,total,1,images/Ex14.jpg,right,training,hard,3,,,,,
,,,,,614618f3146cc85f803c4e69,001,36,Female,English,BA Degree,2024-03-06_14h28.35.176,CRL1h,2023.2.3,Win32,59.88023952,65e67470ae2fbf2172c317b2,65e87d72e5d71ae9900ad0f5,,,,,,,,,,,314.4743,1.3,315.7735,315.7736,316.2906,right,1,0.5074,,316.2906,317.2899,6,3,99,12,1,total,1,images/Ex13.jpg,right,training,hard,3,,,,,
,,,,,614618f3146cc85f803c4e69,001,36,Female,English,BA Degree,2024-03-06_14h28.35.176,CRL1h,2023.2.3,Win32,59.88023952,65e67470ae2fbf2172c317b2,65e87d72e5d71ae9900ad0f5,,,,,,,,,,,317.2904,1.4,318.6896,318.6896,319.1067,right,0,0.411,,319.1067,320.1059,6,4,100,11,1,total,1,images/Ex12.jpg,left,training,hard,3,,,,,
,,,,,614618f3146cc85f803c4e69,001,36,Female,English,BA Degree,2024-03-06_14h28.35.176,CRL1h,2023.2.3,Win32,59.88023952,65e67470ae2fbf2172c317b2,65e87d72e5d71ae9900ad0f5,,,,,,,,,,,320.1065,1.2,321.3056,321.3056,321.8727,right,1,0.5553,,321.8728,322.8719,6,5,101,15,1,total,1,images/Ex16.jpg,right,training,hard,3,,,,,
,,,,,614618f3146cc85f803c4e69,001,36,Female,English,BA Degree,2024-03-06_14h28.35.176,CRL1h,2023.2.3,Win32,59.88023952,65e67470ae2fbf2172c317b2,65e87d72e5d71ae9900ad0f5,,,,,,,,,,,322.8724,1,323.8717,323.8717,324.6052,right,1,0.7316,,324.6054,325.6047,6,6,102,7,1,total,1,images/Ex16.jpg,right,training,hard,3,,,,,
,,,,,614618f3146cc85f803c4e69,001,36,Female,English,BA Degree,2024-03-06_14h28.35.176,CRL1h,2023.2.3,Win32,59.88023952,65e67470ae2fbf2172c317b2,65e87d72e5d71ae9900ad0f5,,,,,,,,,,,325.6052,0.7,326.3045,326.3046,326.8883,left,0,0.5724,,326.8885,327.8875,6,7,103,4,1,total,1,images/Ex13.jpg,right,training,hard,3,,,,,
,,,,,614618f3146cc85f803c4e69,001,36,Female,English,BA Degree,2024-03-06_14h28.35.176,CRL1h,2023.2.3,Win32,59.88023952,65e67470ae2fbf2172c317b2,65e87d72e5d71ae9900ad0f5,,,,,,,,,,,327.8881,1.3,329.1871,329.1871,329.8208,left,0,0.6219,,329.8209,330.8201,6,8,104,5,1,total,1,images/Ex14.jpg,right,training,hard,3,,,,,
,,,,,614618f3146cc85f803c4e69,001,36,Female,English,BA Degree,2024-03-06_14h28.35.176,CRL1h,2023.2.3,Win32,59.88023952,65e67470ae2fbf2172c317b2,65e87d72e5d71ae9900ad0f5,,,,,,,,,,,330.8205,1.1,331.9198,331.9199,332.5036,right,0,0.5748,,332.5036,333.5028,6,9,105,0,1,total,1,images/Ex9.jpg,left,training,hard,3,,,,,
,,,,,614618f3146cc85f803c4e69,001,36,Female,English,BA Degree,2024-03-06_14h28.35.176,CRL1h,2023.2.3,Win32,59.88023952,65e67470ae2fbf2172c317b2,65e87d72e5d71ae9900ad0f5,,,,,,,,,,,333.5033,0.6,334.1027,334.1027,334.6528,left,0,0.5469,,334.6529,335.6523,6,10,106,6,1,total,1,images/Ex15.jpg,right,training,hard,3,,,,,
,,,,,614618f3146cc85f803c4e69,001,36,Female,English,BA Degree,2024-03-06_14h28.35.176,CRL1h,2023.2.3,Win32,59.88023952,65e67470ae2fbf2172c317b2,65e87d72e5d71ae9900ad0f5,,,,,,,,,,,335.6529,0.6,336.2522,336.2522,336.7357,left,1,0.4721,,336.7358,337.7352,6,11,107,2,1,total,1,images/Ex11.jpg,left,training,hard,3,,,,,
,,,,,614618f3146cc85f803c4e69,001,36,Female,English,BA Degree,2024-03-06_14h28.35.176,CRL1h,2023.2.3,Win32,59.88023952,65e67470ae2fbf2172c317b2,65e87d72e5d71ae9900ad0f5,,,,,,,,,,,337.7357,1,338.735,338.735,340.2851,right,0,1.5402,,340.2852,341.2844,6,12,108,9,1,total,1,images/Ex10.jpg,left,training,hard,3,,,,,
,,,,,614618f3146cc85f803c4e69,001,36,Female,English,BA Degree,2024-03-06_14h28.35.176,CRL1h,2023.2.3,Win32,59.88023952,65e67470ae2fbf2172c317b2,65e87d72e5d71ae9900ad0f5,,,,,,,,,,,341.2973,1.4,342.7008,342.7009,345.7171,right,0,3.0044,,345.7171,346.7165,6,13,109,8,1,total,1,images/Ex9.jpg,left,training,hard,3,,,,,
,,,,,614618f3146cc85f803c4e69,001,36,Female,English,BA Degree,2024-03-06_14h28.35.176,CRL1h,2023.2.3,Win32,59.88023952,65e67470ae2fbf2172c317b2,65e87d72e5d71ae9900ad0f5,,,,,,,,,,,346.7296,1.1,347.8329,347.8329,348.4499,left,1,0.6108,,348.45,349.4492,6,14,110,10,1,total,1,images/Ex11.jpg,left,training,hard,3,,,,,
,,,,,614618f3146cc85f803c4e69,001,36,Female,English,BA Degree,2024-03-06_14h28.35.176,CRL1h,2023.2.3,Win32,59.88023952,65e67470ae2fbf2172c317b2,65e87d72e5d71ae9900ad0f5,,,,,,,,,,,349.4497,1.2,350.6488,350.6488,351.0157,left,0,0.3586,,351.0158,352.0153,6,15,111,14,1,total,1,images/Ex15.jpg,right,training,hard,3,,,,,
,,,,,614618f3146cc85f803c4e69,001,36,Female,English,BA Degree,2024-03-06_14h28.35.176,CRL1h,2023.2.3,Win32,59.88023952,65e67470ae2fbf2172c317b2,65e87d72e5d71ae9900ad0f5,,,,,,,,,,,352.0158,0.6,352.6151,352.6152,353.0488,right,1,0.424,,353.0489,354.0482,7,0,112,7,1,total,1,images/Ex16.jpg,right,training,hard,3,,,,,
,,,,,614618f3146cc85f803c4e69,001,36,Female,English,BA Degree,2024-03-06_14h28.35.176,CRL1h,2023.2.3,Win32,59.88023952,65e67470ae2fbf2172c317b2,65e87d72e5d71ae9900ad0f5,,,,,,,,,,,354.0487,0.5,354.5483,354.5483,354.9315,right,0,0.3796,,354.9317,355.9309,7,1,113,3,1,total,1,images/Ex12.jpg,left,training,hard,3,,,,,
,,,,,614618f3146cc85f803c4e69,001,36,Female,English,BA Degree,2024-03-06_14h28.35.176,CRL1h,2023.2.3,Win32,59.88023952,65e67470ae2fbf2172c317b2,65e87d72e5d71ae9900ad0f5,,,,,,,,,,,355.9315,1.2,357.1307,357.1307,357.4643,left,0,0.3266,,357.4643,358.4638,7,2,114,4,1,total,1,images/Ex13.jpg,right,training,hard,3,,,,,
,,,,,614618f3146cc85f803c4e69,001,36,Female,English,BA Degree,2024-03-06_14h28.35.176,CRL1h,2023.2.3,Win32,59.88023952,65e67470ae2fbf2172c317b2,65e87d72e5d71ae9900ad0f5,,,,,,,,,,,358.4644,0.9,359.3636,359.3636,360.0139,right,1,0.6443,,360.014,361.0131,7,3,115,5,1,total,1,images/Ex14.jpg,right,training,hard,3,,,,,
,,,,,614618f3146cc85f803c4e69,001,36,Female,English,BA Degree,2024-03-06_14h28.35.176,CRL1h,2023.2.3,Win32,59.88023952,65e67470ae2fbf2172c317b2,65e87d72e5d71ae9900ad0f5,,,,,,,,,,,361.0143,0.8,361.813,361.8131,362.3299,right,0,0.5081,,362.33,363.3294,7,4,116,10,1,total,1,images/Ex11.jpg,left,training,hard,3,,,,,
,,,,,614618f3146cc85f803c4e69,001,36,Female,English,BA Degree,2024-03-06_14h28.35.176,CRL1h,2023.2.3,Win32,59.88023952,65e67470ae2fbf2172c317b2,65e87d72e5d71ae9900ad0f5,,,,,,,,,,,363.3299,1,364.329,364.3291,364.6293,right,0,0.2964,,364.6294,365.6289,7,5,117,11,1,total,1,images/Ex12.jpg,left,training,hard,3,,,,,
,,,,,614618f3146cc85f803c4e69,001,36,Female,English,BA Degree,2024-03-06_14h28.35.176,CRL1h,2023.2.3,Win32,59.88023952,65e67470ae2fbf2172c317b2,65e87d72e5d71ae9900ad0f5,,,,,,,,,,,365.6295,0.6,366.2287,366.2289,366.6788,left,0,0.4471,,366.6789,367.6783,7,6,118,6,1,total,1,images/Ex15.jpg,right,training,hard,3,,,,,
,,,,,614618f3146cc85f803c4e69,001,36,Female,English,BA Degree,2024-03-06_14h28.35.176,CRL1h,2023.2.3,Win32,59.88023952,65e67470ae2fbf2172c317b2,65e87d72e5d71ae9900ad0f5,,,,,,,,,,,367.6788,0.8,368.4783,368.4784,368.8116,right,0,0.3247,,368.8117,369.8112,7,7,119,2,1,total,1,images/Ex11.jpg,left,training,hard,3,,,,,
,,,,,614618f3146cc85f803c4e69,001,36,Female,English,BA Degree,2024-03-06_14h28.35.176,CRL1h,2023.2.3,Win32,59.88023952,65e67470ae2fbf2172c317b2,65e87d72e5d71ae9900ad0f5,,,,,,,,,,,369.8118,1.2,371.0109,371.0109,371.6948,left,1,0.6805,,371.6949,372.6938,7,8,120,0,1,total,1,images/Ex9.jpg,left,training,hard,3,,,,,
,,,,,614618f3146cc85f803c4e69,001,36,Female,English,BA Degree,2024-03-06_14h28.35.176,CRL1h,2023.2.3,Win32,59.88023952,65e67470ae2fbf2172c317b2,65e87d72e5d71ae9900ad0f5,,,,,,,,,,,372.6944,0.6,373.2937,373.2937,373.6939,right,1,0.3903,,373.694,374.6936,7,9,121,12,1,total,1,images/Ex13.jpg,right,training,hard,3,,,,,
,,,,,614618f3146cc85f803c4e69,001,36,Female,English,BA Degree,2024-03-06_14h28.35.176,CRL1h,2023.2.3,Win32,59.88023952,65e67470ae2fbf2172c317b2,65e87d72e5d71ae9900ad0f5,,,,,,,,,,,374.6943,0.6,375.2933,375.2933,375.7435,right,0,0.4377,,375.7436,376.7429,7,10,122,1,1,total,1,images/Ex10.jpg,left,training,hard,3,,,,,
,,,,,614618f3146cc85f803c4e69,001,36,Female,English,BA Degree,2024-03-06_14h28.35.176,CRL1h,2023.2.3,Win32,59.88023952,65e67470ae2fbf2172c317b2,65e87d72e5d71ae9900ad0f5,,,,,,,,,,,376.7434,1,377.7427,377.7428,378.1262,left,1,0.3734,,378.1262,379.1257,7,11,123,8,1,total,1,images/Ex9.jpg,left,training,hard,3,,,,,
,,,,,614618f3146cc85f803c4e69,001,36,Female,English,BA Degree,2024-03-06_14h28.35.176,CRL1h,2023.2.3,Win32,59.88023952,65e67470ae2fbf2172c317b2,65e87d72e5d71ae9900ad0f5,,,,,,,,,,,379.1263,0.7,379.8256,379.8256,380.2757,left,0,0.4432,,380.2758,381.2752,7,12,124,15,1,total,1,images/Ex16.jpg,right,training,hard,3,,,,,
,,,,,614618f3146cc85f803c4e69,001,36,Female,English,BA Degree,2024-03-06_14h28.35.176,CRL1h,2023.2.3,Win32,59.88023952,65e67470ae2fbf2172c317b2,65e87d72e5d71ae9900ad0f5,,,,,,,,,,,381.2758,0.6,381.875,381.8751,384.8915,right,0,3.0073,,384.8915,385.8911,7,13,125,9,1,total,1,images/Ex10.jpg,left,training,hard,3,,,,,
,,,,,614618f3146cc85f803c4e69,001,36,Female,English,BA Degree,2024-03-06_14h28.35.176,CRL1h,2023.2.3,Win32,59.88023952,65e67470ae2fbf2172c317b2,65e87d72e5d71ae9900ad0f5,,,,,,,,,,,385.9043,0.7,386.6074,386.6074,387.0576,right,1,0.4441,,387.0577,388.0592,7,14,126,14,1,total,1,images/Ex15.jpg,right,training,hard,3,,,,,
,,,,,614618f3146cc85f803c4e69,001,36,Female,English,BA Degree,2024-03-06_14h28.35.176,CRL1h,2023.2.3,Win32,59.88023952,65e67470ae2fbf2172c317b2,65e87d72e5d71ae9900ad0f5,,,,,,,,,,,388.0601,1,389.0583,389.0585,389.5088,right,1,0.4377,,389.509,390.5073,7,15,127,13,1,total,1,images/Ex14.jpg,right,training,hard,3,,,,,
,,,,,614618f3146cc85f803c4e69,001,36,Female,English,BA Degree,2024-03-06_14h28.35.176,CRL1h,2023.2.3,Win32,59.88023952,65e67470ae2fbf2172c317b2,65e87d72e5d71ae9900ad0f5,,,,,,,,,,,390.516,1.1,391.6082,391.6084,392.0247,right,1,0.4081,,392.0248,393.0257,0,0,0,2,1,total,2,images/Ex11.jpg,right,reversed,hard,3,,,,,
,,,,,614618f3146cc85f803c4e69,001,36,Female,English,BA Degree,2024-03-06_14h28.35.176,CRL1h,2023.2.3,Win32,59.88023952,65e67470ae2fbf2172c317b2,65e87d72e5d71ae9900ad0f5,,,,,,,,,,,393.0261,1.1,394.1232,394.1234,394.9912,left,1,0.8547,,394.9912,395.9905,0,1,1,14,1,total,2,images/Ex15.jpg,left,reversed,hard,3,,,,,
,,,,,614618f3146cc85f803c4e69,001,36,Female,English,BA Degree,2024-03-06_14h28.35.176,CRL1h,2023.2.3,Win32,59.88023952,65e67470ae2fbf2172c317b2,65e87d72e5d71ae9900ad0f5,,,,,,,,,,,395.9917,1.2,397.1902,397.1904,397.9954,right,1,0.8034,,397.9955,398.9898,0,2,2,1,1,total,2,images/Ex10.jpg,right,reversed,hard,3,,,,,
,,,,,614618f3146cc85f803c4e69,001,36,Female,English,BA Degree,2024-03-06_14h28.35.176,CRL1h,2023.2.3,Win32,59.88023952,65e67470ae2fbf2172c317b2,65e87d72e5d71ae9900ad0f5,,,,,,,,,,,398.9907,0.6,399.5895,399.5896,400.2111,right,1,0.6196,,400.2112,401.2049,0,3,3,11,1,total,2,images/Ex12.jpg,right,reversed,hard,3,,,,,
,,,,,614618f3146cc85f803c4e69,001,36,Female,English,BA Degree,2024-03-06_14h28.35.176,CRL1h,2023.2.3,Win32,59.88023952,65e67470ae2fbf2172c317b2,65e87d72e5d71ae9900ad0f5,,,,,,,,,,,401.2067,0.6,401.8104,401.8104,402.5395,right,0,0.7244,,402.5396,403.538,0,4,4,13,1,total,2,images/Ex14.jpg,left,reversed,hard,3,,,,,
,,,,,614618f3146cc85f803c4e69,001,36,Female,English,BA Degree,2024-03-06_14h28.35.176,CRL1h,2023.2.3,Win32,59.88023952,65e67470ae2fbf2172c317b2,65e87d72e5d71ae9900ad0f5,,,,,,,,,,,403.5397,1.4,404.9374,404.9376,405.3891,left,1,0.4431,,405.3892,406.3872,0,5,5,6,1,total,2,images/Ex15.jpg,left,reversed,hard,3,,,,,
,,,,,614618f3146cc85f803c4e69,001,36,Female,English,BA Degree,2024-03-06_14h28.35.176,CRL1h,2023.2.3,Win32,59.88023952,65e67470ae2fbf2172c317b2,65e87d72e5d71ae9900ad0f5,,,,,,,,,,,406.3891,1.1,407.4871,407.4873,408.0042,right,0,0.5069,,408.0044,409.0031,0,6,6,15,1,total,2,images/Ex16.jpg,left,reversed,hard,3,,,,,
,,,,,614618f3146cc85f803c4e69,001,36,Female,English,BA Degree,2024-03-06_14h28.35.176,CRL1h,2023.2.3,Win32,59.88023952,65e67470ae2fbf2172c317b2,65e87d72e5d71ae9900ad0f5,,,,,,,,,,,409.0049,0.6,409.6029,409.6031,410.0878,right,1,0.4717,,410.0878,411.089,0,7,7,10,1,total,2,images/Ex11.jpg,right,reversed,hard,3,,,,,
,,,,,614618f3146cc85f803c4e69,001,36,Female,English,BA Degree,2024-03-06_14h28.35.176,CRL1h,2023.2.3,Win32,59.88023952,65e67470ae2fbf2172c317b2,65e87d72e5d71ae9900ad0f5,,,,,,,,,,,411.0894,1.1,412.1909,412.1909,412.7706,right,1,0.5704,,412.7707,413.7691,0,8,8,9,1,total,2,images/Ex10.jpg,right,reversed,hard,3,,,,,
,,,,,614618f3146cc85f803c4e69,001,36,Female,English,BA Degree,2024-03-06_14h28.35.176,CRL1h,2023.2.3,Win32,59.88023952,65e67470ae2fbf2172c317b2,65e87d72e5d71ae9900ad0f5,,,,,,,,,,,413.7707,1,414.7691,414.7695,415.2414,right,1,0.4701,,415.2414,416.2403,0,9,9,8,1,total,2,images/Ex9.jpg,right,reversed,hard,3,,,,,
,,,,,614618f3146cc85f803c4e69,001,36,Female,English,BA Degree,2024-03-06_14h28.35.176,CRL1h,2023.2.3,Win32,59.88023952,65e67470ae2fbf2172c317b2,65e87d72e5d71ae9900ad0f5,,,,,,,,,,,416.2407,1.5,417.7372,417.7373,418.1246,right,0,0.386,,418.1247,419.1178,0,10,10,4,1,total,2,images/Ex13.jpg,left,reversed,hard,3,,,,,
,,,,,614618f3146cc85f803c4e69,001,36,Female,English,BA Degree,2024-03-06_14h28.35.176,CRL1h,2023.2.3,Win32,59.88023952,65e67470ae2fbf2172c317b2,65e87d72e5d71ae9900ad0f5,,,,,,,,,,,419.1196,0.7,419.8173,419.8174,420.1551,right,1,0.3347,,420.1552,421.1502,0,11,11,0,1,total,2,images/Ex9.jpg,right,reversed,hard,3,,,,,
,,,,,614618f3146cc85f803c4e69,001,36,Female,English,BA Degree,2024-03-06_14h28.35.176,CRL1h,2023.2.3,Win32,59.88023952,65e67470ae2fbf2172c317b2,65e87d72e5d71ae9900ad0f5,,,,,,,,,,,421.1521,0.6,421.7502,421.7508,422.1842,left,1,0.4211,,422.1844,423.1832,0,12,12,7,1,total,2,images/Ex16.jpg,left,reversed,hard,3,,,,,
,,,,,614618f3146cc85f803c4e69,001,36,Female,English,BA Degree,2024-03-06_14h28.35.176,CRL1h,2023.2.3,Win32,59.88023952,65e67470ae2fbf2172c317b2,65e87d72e5d71ae9900ad0f5,,,,,,,,,,,423.185,1,424.183,424.1832,424.5891,right,0,0.4037,,424.5891,425.5826,0,13,13,5,1,total,2,images/Ex14.jpg,left,reversed,hard,3,,,,,
,,,,,614618f3146cc85f803c4e69,001,36,Female,English,BA Degree,2024-03-06_14h28.35.176,CRL1h,2023.2.3,Win32,59.88023952,65e67470ae2fbf2172c317b2,65e87d72e5d71ae9900ad0f5,,,,,,,,,,,425.5844,1.1,426.6823,426.6825,427.0392,right,1,0.3538,,427.0392,428.0375,0,14,14,3,1,total,2,images/Ex12.jpg,right,reversed,hard,3,,,,,
,,,,,614618f3146cc85f803c4e69,001,36,Female,English,BA Degree,2024-03-06_14h28.35.176,CRL1h,2023.2.3,Win32,59.88023952,65e67470ae2fbf2172c317b2,65e87d72e5d71ae9900ad0f5,,,,,,,,,,,428.038,1.2,429.232,429.2321,429.6664,left,1,0.4214,,429.6665,430.6648,0,15,15,12,1,total,2,images/Ex13.jpg,left,reversed,hard,3,,,,,
,,,,,614618f3146cc85f803c4e69,001,36,Female,English,BA Degree,2024-03-06_14h28.35.176,CRL1h,2023.2.3,Win32,59.88023952,65e67470ae2fbf2172c317b2,65e87d72e5d71ae9900ad0f5,,,,,,,,,,,430.6665,1.4,432.0701,432.0701,432.5053,right,1,0.4335,,432.5053,433.4976,1,0,16,8,1,total,2,images/Ex9.jpg,right,reversed,hard,3,,,,,
,,,,,614618f3146cc85f803c4e69,001,36,Female,English,BA Degree,2024-03-06_14h28.35.176,CRL1h,2023.2.3,Win32,59.88023952,65e67470ae2fbf2172c317b2,65e87d72e5d71ae9900ad0f5,,,,,,,,,,,433.4994,0.7,434.1975,434.1977,434.665,right,1,0.4626,,434.6652,435.6637,1,1,17,11,1,total,2,images/Ex12.jpg,right,reversed,hard,3,,,,,
,,,,,614618f3146cc85f803c4e69,001,36,Female,English,BA Degree,2024-03-06_14h28.35.176,CRL1h,2023.2.3,Win32,59.88023952,65e67470ae2fbf2172c317b2,65e87d72e5d71ae9900ad0f5,,,,,,,,,,,435.6656,1.1,436.7634,436.7636,437.0142,right,0,0.2379,,437.0144,438.0131,1,2,18,6,1,total,2,images/Ex15.jpg,left,reversed,hard,3,,,,,
,,,,,614618f3146cc85f803c4e69,001,36,Female,English,BA Degree,2024-03-06_14h28.35.176,CRL1h,2023.2.3,Win32,59.88023952,65e67470ae2fbf2172c317b2,65e87d72e5d71ae9900ad0f5,,,,,,,,,,,438.0148,1.1,439.1129,439.1131,439.4479,left,1,0.3315,,439.4479,440.4459,1,3,19,5,1,total,2,images/Ex14.jpg,left,reversed,hard,3,,,,,
,,,,,614618f3146cc85f803c4e69,001,36,Female,English,BA Degree,2024-03-06_14h28.35.176,CRL1h,2023.2.3,Win32,59.88023952,65e67470ae2fbf2172c317b2,65e87d72e5d71ae9900ad0f5,,,,,,,,,,,440.4477,1,441.4456,441.4458,441.9467,left,0,0.4939,,441.9469,442.9512,1,4,20,2,1,total,2,images/Ex11.jpg,right,reversed,hard,3,,,,,
,,,,,614618f3146cc85f803c4e69,001,36,Female,English,BA Degree,2024-03-06_14h28.35.176,CRL1h,2023.2.3,Win32,59.88023952,65e67470ae2fbf2172c317b2,65e87d72e5d71ae9900ad0f5,,,,,,,,,,,442.9515,0.9,443.8452,443.8454,444.2517,left,1,0.4036,,444.2518,445.2471,1,5,21,15,1,total,2,images/Ex16.jpg,left,reversed,hard,3,,,,,
,,,,,614618f3146cc85f803c4e69,001,36,Female,English,BA Degree,2024-03-06_14h28.35.176,CRL1h,2023.2.3,Win32,59.88023952,65e67470ae2fbf2172c317b2,65e87d72e5d71ae9900ad0f5,,,,,,,,,,,445.2477,1.1,446.3451,446.3454,446.6686,right,0,0.3209,,446.6686,447.6613,1,6,22,12,1,total,2,images/Ex13.jpg,left,reversed,hard,3,,,,,
,,,,,614618f3146cc85f803c4e69,001,36,Female,English,BA Degree,2024-03-06_14h28.35.176,CRL1h,2023.2.3,Win32,59.88023952,65e67470ae2fbf2172c317b2,65e87d72e5d71ae9900ad0f5,,,,,,,,,,,447.6628,1.1,448.7608,448.761,449.0781,right,1,0.3099,,449.0785,450.077,1,7,23,10,1,total,2,images/Ex11.jpg,right,reversed,hard,3,,,,,
,,,,,614618f3146cc85f803c4e69,001,36,Female,English,BA Degree,2024-03-06_14h28.35.176,CRL1h,2023.2.3,Win32,59.88023952,65e67470ae2fbf2172c317b2,65e87d72e5d71ae9900ad0f5,,,,,,,,,,,450.0791,0.7,450.7769,450.777,451.1613,right,1,0.3717,,451.1615,452.1602,1,8,24,1,1,total,2,images/Ex10.jpg,right,reversed,hard,3,,,,,
,,,,,614618f3146cc85f803c4e69,001,36,Female,English,BA Degree,2024-03-06_14h28.35.176,CRL1h,2023.2.3,Win32,59.88023952,65e67470ae2fbf2172c317b2,65e87d72e5d71ae9900ad0f5,,,,,,,,,,,452.1617,1.2,453.3607,453.3609,453.8109,right,1,0.4378,,453.8111,454.8106,1,9,25,3,1,total,2,images/Ex12.jpg,right,reversed,hard,3,,,,,
,,,,,614618f3146cc85f803c4e69,001,36,Female,English,BA Degree,2024-03-06_14h28.35.176,CRL1h,2023.2.3,Win32,59.88023952,65e67470ae2fbf2172c317b2,65e87d72e5d71ae9900ad0f5,,,,,,,,,,,454.8115,1.3,456.1099,456.1101,456.5822,right,0,0.4703,,456.5823,457.5806,1,10,26,4,1,total,2,images/Ex13.jpg,left,reversed,hard,3,,,,,
,,,,,614618f3146cc85f803c4e69,001,36,Female,English,BA Degree,2024-03-06_14h28.35.176,CRL1h,2023.2.3,Win32,59.88023952,65e67470ae2fbf2172c317b2,65e87d72e5d71ae9900ad0f5,,,,,,,,,,,457.581,0.7,458.2806,458.2806,458.7156,left,0,0.4335,,458.7157,459.7151,1,11,27,9,1,total,2,images/Ex10.jpg,right,reversed,hard,3,,,,,
,,,,,614618f3146cc85f803c4e69,001,36,Female,English,BA Degree,2024-03-06_14h28.35.176,CRL1h,2023.2.3,Win32,59.88023952,65e67470ae2fbf2172c317b2,65e87d72e5d71ae9900ad0f5,,,,,,,,,,,459.7157,0.5,460.2084,460.2086,461.0594,right,0,0.8372,,461.0595,462.0576,1,12,28,13,1,total,2,images/Ex14.jpg,left,reversed,hard,3,,,,,
,,,,,614618f3146cc85f803c4e69,001,36,Female,English,BA Degree,2024-03-06_14h28.35.176,CRL1h,2023.2.3,Win32,59.88023952,65e67470ae2fbf2172c317b2,65e87d72e5d71ae9900ad0f5,,,,,,,,,,,462.0597,0.9,462.9574,462.9576,463.359,right,1,0.3877,,463.3591,464.3591,1,13,29,0,1,total,2,images/Ex9.jpg,right,reversed,hard,3,,,,,
,,,,,614618f3146cc85f803c4e69,001,36,Female,English,BA Degree,2024-03-06_14h28.35.176,CRL1h,2023.2.3,Win32,59.88023952,65e67470ae2fbf2172c317b2,65e87d72e5d71ae9900ad0f5,,,,,,,,,,,464.3597,1.3,465.6569,465.6571,466.1083,right,0,0.4457,,466.1083,467.1067,1,14,30,7,1,total,2,images/Ex16.jpg,left,reversed,hard,3,,,,,
,,,,,614618f3146cc85f803c4e69,001,36,Female,English,BA Degree,2024-03-06_14h28.35.176,CRL1h,2023.2.3,Win32,59.88023952,65e67470ae2fbf2172c317b2,65e87d72e5d71ae9900ad0f5,,,,,,,,,,,467.1084,0.8,467.9121,467.9121,468.2908,right,0,0.3669,,468.2911,469.2789,1,15,31,14,1,total,2,images/Ex15.jpg,left,reversed,hard,3,,,,,
,,,,,614618f3146cc85f803c4e69,001,36,Female,English,BA Degree,2024-03-06_14h28.35.176,CRL1h,2023.2.3,Win32,59.88023952,65e67470ae2fbf2172c317b2,65e87d72e5d71ae9900ad0f5,,,,,,,,,,,469.2794,1.3,470.5725,470.5727,470.9572,left,1,0.3721,,470.9572,471.9565,2,0,32,6,1,total,2,images/Ex15.jpg,left,reversed,hard,3,,,,,
,,,,,614618f3146cc85f803c4e69,001,36,Female,English,BA Degree,2024-03-06_14h28.35.176,CRL1h,2023.2.3,Win32,59.88023952,65e67470ae2fbf2172c317b2,65e87d72e5d71ae9900ad0f5,,,,,,,,,,,471.9576,0.6,472.5575,472.5576,473.1101,left,0,0.5511,,473.1101,474.105,2,1,33,3,1,total,2,images/Ex12.jpg,right,reversed,hard,3,,,,,
,,,,,614618f3146cc85f803c4e69,001,36,Female,English,BA Degree,2024-03-06_14h28.35.176,CRL1h,2023.2.3,Win32,59.88023952,65e67470ae2fbf2172c317b2,65e87d72e5d71ae9900ad0f5,,,,,,,,,,,474.1066,1.1,475.211,475.2111,475.6057,left,0,0.3895,,475.6059,476.6045,2,2,34,9,1,total,2,images/Ex10.jpg,right,reversed,hard,3,,,,,
,,,,,614618f3146cc85f803c4e69,001,36,Female,English,BA Degree,2024-03-06_14h28.35.176,CRL1h,2023.2.3,Win32,59.88023952,65e67470ae2fbf2172c317b2,65e87d72e5d71ae9900ad0f5,,,,,,,,,,,476.6061,1.2,477.8042,477.8044,478.3442,left,1,0.5373,,478.3442,479.3372,2,3,35,14,1,total,2,images/Ex15.jpg,left,reversed,hard,3,,,,,
,,,,,614618f3146cc85f803c4e69,001,36,Female,English,BA Degree,2024-03-06_14h28.35.176,CRL1h,2023.2.3,Win32,59.88023952,65e67470ae2fbf2172c317b2,65e87d72e5d71ae9900ad0f5,,,,,,,,,,,479.3391,1.5,480.8367,480.8369,481.2099,right,0,0.3703,,481.2099,482.2034,2,4,36,4,1,total,2,images/Ex13.jpg,left,reversed,hard,3,,,,,
,,,,,614618f3146cc85f803c4e69,001,36,Female,English,BA Degree,2024-03-06_14h28.35.176,CRL1h,2023.2.3,Win32,59.88023952,65e67470ae2fbf2172c317b2,65e87d72e5d71ae9900ad0f5,,,,,,,,,,,482.2048,1.5,483.7027,483.703,484.1374,right,1,0.426,,484.1376,485.1412,2,5,37,8,1,total,2,images/Ex9.jpg,right,reversed,hard,3,,,,,
,,,,,614618f3146cc85f803c4e69,001,36,Female,English,BA Degree,2024-03-06_14h28.35.176,CRL1h,2023.2.3,Win32,59.88023952,65e67470ae2fbf2172c317b2,65e87d72e5d71ae9900ad0f5,,,,,,,,,,,485.1417,1.3,486.4416,486.4417,486.8754,right,0,0.4324,,486.8754,487.8687,2,6,38,7,1,total,2,images/Ex16.jpg,left,reversed,hard,3,,,,,
,,,,,614618f3146cc85f803c4e69,001,36,Female,English,BA Degree,2024-03-06_14h28.35.176,CRL1h,2023.2.3,Win32,59.88023952,65e67470ae2fbf2172c317b2,65e87d72e5d71ae9900ad0f5,,,,,,,,,,,487.8704,1.1,488.9681,488.9683,489.4858,left,0,0.5045,,489.4861,490.4846,2,7,39,2,1,total,2,images/Ex11.jpg,right,reversed,hard,3,,,,,
,,,,,614618f3146cc85f803c4e69,001,36,Female,English,BA Degree,2024-03-06_14h28.35.176,CRL1h,2023.2.3,Win32,59.88023952,65e67470ae2fbf2172c317b2,65e87d72e5d71ae9900ad0f5,,,,,,,,,,,490.4863,1,491.4844,491.4849,492.5247,right,1,1.0377,,492.5248,493.5172,2,8,40,0,1,total,2,images/Ex9.jpg,right,reversed,hard,3,,,,,
,,,,,614618f3146cc85f803c4e69,001,36,Female,English,BA Degree,2024-03-06_14h28.35.176,CRL1h,2023.2.3,Win32,59.88023952,65e67470ae2fbf2172c317b2,65e87d72e5d71ae9900ad0f5,,,,,,,,,,,493.5189,0.7,494.217,494.2172,494.7844,left,1,0.5578,,494.7847,495.7832,2,9,41,13,1,total,2,images/Ex14.jpg,left,reversed,hard,3,,,,,
,,,,,614618f3146cc85f803c4e69,001,36,Female,English,BA Degree,2024-03-06_14h28.35.176,CRL1h,2023.2.3,Win32,59.88023952,65e67470ae2fbf2172c317b2,65e87d72e5d71ae9900ad0f5,,,,,,,,,,,495.785,0.7,496.4831,496.4833,497.1342,right,0,0.64,,497.1343,498.1328,2,10,42,12,1,total,2,images/Ex13.jpg,left,reversed,hard,3,,,,,
,,,,,614618f3146cc85f803c4e69,001,36,Female,English,BA Degree,2024-03-06_14h28.35.176,CRL1h,2023.2.3,Win32,59.88023952,65e67470ae2fbf2172c317b2,65e87d72e5d71ae9900ad0f5,,,,,,,,,,,498.1346,0.8,498.9326,498.9327,499.4666,right,0,0.5288,,499.4668,500.4658,2,11,43,5,1,total,2,images/Ex14.jpg,left,reversed,hard,3,,,,,
,,,,,614618f3146cc85f803c4e69,001,36,Female,English,BA Degree,2024-03-06_14h28.35.176,CRL1h,2023.2.3,Win32,59.88023952,65e67470ae2fbf2172c317b2,65e87d72e5d71ae9900ad0f5,,,,,,,,,,,500.4675,0.8,501.2656,501.2656,501.7501,right,0,0.4743,,501.7502,502.7486,2,12,44,15,1,total,2,images/Ex16.jpg,left,reversed,hard,3,,,,,
,,,,,614618f3146cc85f803c4e69,001,36,Female,English,BA Degree,2024-03-06_14h28.35.176,CRL1h,2023.2.3,Win32,59.88023952,65e67470ae2fbf2172c317b2,65e87d72e5d71ae9900ad0f5,,,,,,,,,,,502.7503,1.3,504.0482,504.0485,504.5215,left,0,0.4706,,504.5215,505.5145,2,13,45,1,1,total,2,images/Ex10.jpg,right,reversed,hard,3,,,,,
,,,,,614618f3146cc85f803c4e69,001,36,Female,English,BA Degree,2024-03-06_14h28.35.176,CRL1h,2023.2.3,Win32,59.88023952,65e67470ae2fbf2172c317b2,65e87d72e5d71ae9900ad0f5,,,,,,,,,,,505.5162,0.8,506.3198,506.3198,506.8323,right,1,0.5072,,506.8325,507.8307,2,14,46,10,1,total,2,images/Ex11.jpg,right,reversed,hard,3,,,,,
,,,,,614618f3146cc85f803c4e69,001,36,Female,English,BA Degree,2024-03-06_14h28.35.176,CRL1h,2023.2.3,Win32,59.88023952,65e67470ae2fbf2172c317b2,65e87d72e5d71ae9900ad0f5,,,,,,,,,,,507.8324,0.6,508.4306,508.4308,508.9317,right,1,0.4888,,508.9317,509.9303,2,15,47,11,1,total,2,images/Ex12.jpg,right,reversed,hard,3,,,,,
,,,,,614618f3146cc85f803c4e69,001,36,Female,English,BA Degree,2024-03-06_14h28.35.176,CRL1h,2023.2.3,Win32,59.88023952,65e67470ae2fbf2172c317b2,65e87d72e5d71ae9900ad0f5,,,,,,,,,,,509.9319,1,510.9308,510.9309,511.2816,left,1,0.34,,511.2817,512.2801,3,0,48,12,1,total,2,images/Ex13.jpg,left,reversed,hard,3,,,,,
,,,,,614618f3146cc85f803c4e69,001,36,Female,English,BA Degree,2024-03-06_14h28.35.176,CRL1h,2023.2.3,Win32,59.88023952,65e67470ae2fbf2172c317b2,65e87d72e5d71ae9900ad0f5,,,,,,,,,,,512.2815,0.9,513.1802,513.1804,513.8633,left,1,0.6724,,513.8635,514.8622,3,1,49,15,1,total,2,images/Ex16.jpg,left,reversed,hard,3,,,,,
,,,,,614618f3146cc85f803c4e69,001,36,Female,English,BA Degree,2024-03-06_14h28.35.176,CRL1h,2023.2.3,Win32,59.88023952,65e67470ae2fbf2172c317b2,65e87d72e5d71ae9900ad0f5,,,,,,,,,,,514.864,1.4,516.2621,516.2622,516.9301,right,1,0.6614,,516.9302,517.9291,3,2,50,3,1,total,2,images/Ex12.jpg,right,reversed,hard,3,,,,,
,,,,,614618f3146cc85f803c4e69,001,36,Female,English,BA Degree,2024-03-06_14h28.35.176,CRL1h,2023.2.3,Win32,59.88023952,65e67470ae2fbf2172c317b2,65e87d72e5d71ae9900ad0f5,,,,,,,,,,,517.9304,1.2,519.1281,519.1284,519.8459,left,1,0.7052,,519.846,520.8443,3,3,51,14,1,total,2,images/Ex15.jpg,left,reversed,hard,3,,,,,
,,,,,614618f3146cc85f803c4e69,001,36,Female,English,BA Degree,2024-03-06_14h28.35.176,CRL1h,2023.2.3,Win32,59.88023952,65e67470ae2fbf2172c317b2,65e87d72e5d71ae9900ad0f5,,,,,,,,,,,520.846,0.8,521.6442,521.6444,522.3281,right,1,0.6754,,522.3283,523.3274,3,4,52,1,1,total,2,images/Ex10.jpg,right,reversed,hard,3,,,,,
,,,,,614618f3146cc85f803c4e69,001,36,Female,English,BA Degree,2024-03-06_14h28.35.176,CRL1h,2023.2.3,Win32,59.88023952,65e67470ae2fbf2172c317b2,65e87d72e5d71ae9900ad0f5,,,,,,,,,,,523.329,0.7,524.0268,524.0271,524.5611,right,0,0.5254,,524.5614,525.5653,3,5,53,6,1,total,2,images/Ex15.jpg,left,reversed,hard,3,,,,,
,,,,,614618f3146cc85f803c4e69,001,36,Female,English,BA Degree,2024-03-06_14h28.35.176,CRL1h,2023.2.3,Win32,59.88023952,65e67470ae2fbf2172c317b2,65e87d72e5d71ae9900ad0f5,,,,,,,,,,,525.5658,1.1,526.6604,526.6606,527.1994,left,1,0.5369,,527.1994,528.1979,3,6,54,13,1,total,2,images/Ex14.jpg,left,reversed,hard,3,,,,,
,,,,,614618f3146cc85f803c4e69,001,36,Female,English,BA Degree,2024-03-06_14h28.35.176,CRL1h,2023.2.3,Win32,59.88023952,65e67470ae2fbf2172c317b2,65e87d72e5d71ae9900ad0f5,,,,,,,,,,,528.1986,1,529.1923,529.1924,529.593,right,0,0.3903,,529.5932,530.5919,3,7,55,7,1,total,2,images/Ex16.jpg,left,reversed,hard,3,,,,,
,,,,,614618f3146cc85f803c4e69,001,36,Female,English,BA Degree,2024-03-06_14h28.35.176,CRL1h,2023.2.3,Win32,59.88023952,65e67470ae2fbf2172c317b2,65e87d72e5d71ae9900ad0f5,,,,,,,,,,,530.5936,0.6,531.1918,531.1921,531.726,left,1,0.5275,,531.7263,532.7254,3,8,56,5,1,total,2,images/Ex14.jpg,left,reversed,hard,3,,,,,
,,,,,614618f3146cc85f803c4e69,001,36,Female,English,BA Degree,2024-03-06_14h28.35.176,CRL1h,2023.2.3,Win32,59.88023952,65e67470ae2fbf2172c317b2,65e87d72e5d71ae9900ad0f5,,,,,,,,,,,532.7268,0.5,533.2249,533.225,533.814,left,0,0.5864,,533.814,534.808,3,9,57,9,1,total,2,images/Ex10.jpg,right,reversed,hard,3,,,,,
,,,,,614618f3146cc85f803c4e69,001,36,Female,English,BA Degree,2024-03-06_14h28.35.176,CRL1h,2023.2.3,Win32,59.88023952,65e67470ae2fbf2172c317b2,65e87d72e5d71ae9900ad0f5,,,,,,,,,,,534.8097,0.9,535.7078,535.7079,536.1084,right,1,0.3931,,536.1089,537.1071,3,10,58,2,1,total,2,images/Ex11.jpg,right,reversed,hard,3,,,,,
,,,,,614618f3146cc85f803c4e69,001,36,Female,English,BA Degree,2024-03-06_14h28.35.176,CRL1h,2023.2.3,Win32,59.88023952,65e67470ae2fbf2172c317b2,65e87d72e5d71ae9900ad0f5,,,,,,,,,,,537.1091,0.9,538.0122,538.0123,538.7749,left,0,0.752,,538.775,539.7732,3,11,59,10,1,total,2,images/Ex11.jpg,right,reversed,hard,3,,,,,
,,,,,614618f3146cc85f803c4e69,001,36,Female,English,BA Degree,2024-03-06_14h28.35.176,CRL1h,2023.2.3,Win32,59.88023952,65e67470ae2fbf2172c317b2,65e87d72e5d71ae9900ad0f5,,,,,,,,,,,539.7749,0.6,540.373,540.3732,540.9244,left,0,0.5384,,540.9244,541.9227,3,12,60,0,1,total,2,images/Ex9.jpg,right,reversed,hard,3,,,,,
,,,,,614618f3146cc85f803c4e69,001,36,Female,English,BA Degree,2024-03-06_14h28.35.176,CRL1h,2023.2.3,Win32,59.88023952,65e67470ae2fbf2172c317b2,65e87d72e5d71ae9900ad0f5,,,,,,,,,,,541.9244,1.2,543.1227,543.1228,543.5751,right,1,0.4503,,543.5751,544.5721,3,13,61,8,1,total,2,images/Ex9.jpg,right,reversed,hard,3,,,,,
,,,,,614618f3146cc85f803c4e69,001,36,Female,English,BA Degree,2024-03-06_14h28.35.176,CRL1h,2023.2.3,Win32,59.88023952,65e67470ae2fbf2172c317b2,65e87d72e5d71ae9900ad0f5,,,,,,,,,,,544.5738,0.7,545.2721,545.2724,545.6562,right,0,0.3782,,545.6564,546.655,3,14,62,4,1,total,2,images/Ex13.jpg,left,reversed,hard,3,,,,,
,,,,,614618f3146cc85f803c4e69,001,36,Female,English,BA Degree,2024-03-06_14h28.35.176,CRL1h,2023.2.3,Win32,59.88023952,65e67470ae2fbf2172c317b2,65e87d72e5d71ae9900ad0f5,,,,,,,,,,,546.6567,1.1,547.7577,547.7577,548.2722,right,1,0.5046,,548.2724,549.2711,3,15,63,11,1,total,2,images/Ex12.jpg,right,reversed,hard,3,,,,,
,,,,,614618f3146cc85f803c4e69,001,36,Female,English,BA Degree,2024-03-06_14h28.35.176,CRL1h,2023.2.3,Win32,59.88023952,65e67470ae2fbf2172c317b2,65e87d72e5d71ae9900ad0f5,,,,,,549.2734,552.1878,space,2.8923,,552.2137,1.2,553.4027,553.4028,554.9362,left,0,1.5216,,554.9363,555.9355,0,0,0,12,1,partial,1,images/Ex5.jpg,right,training,hard,3,,,,,
,,,,,614618f3146cc85f803c4e69,001,36,Female,English,BA Degree,2024-03-06_14h28.35.176,CRL1h,2023.2.3,Win32,59.88023952,65e67470ae2fbf2172c317b2,65e87d72e5d71ae9900ad0f5,,,,,,,,,,,555.9489,1,556.9522,556.9522,557.7025,right,1,0.7412,,557.7026,558.7015,0,1,1,13,1,partial,1,images/Ex6.jpg,right,training,hard,3,,,,,
,,,,,614618f3146cc85f803c4e69,001,36,Female,English,BA Degree,2024-03-06_14h28.35.176,CRL1h,2023.2.3,Win32,59.88023952,65e67470ae2fbf2172c317b2,65e87d72e5d71ae9900ad0f5,,,,,,,,,,,558.7026,1.3,560.0013,560.0013,560.6352,right,1,0.6229,,560.6353,561.6343,0,2,2,6,1,partial,1,images/Ex7.jpg,right,training,hard,3,,,,,
,,,,,614618f3146cc85f803c4e69,001,36,Female,English,BA Degree,2024-03-06_14h28.35.176,CRL1h,2023.2.3,Win32,59.88023952,65e67470ae2fbf2172c317b2,65e87d72e5d71ae9900ad0f5,,,,,,,,,,,561.6353,1.4,563.0339,563.0339,563.7845,left,0,0.7445,,563.7846,564.7835,0,3,3,15,1,partial,1,images/Ex8.jpg,right,training,hard,3,,,,,
,,,,,614618f3146cc85f803c4e69,001,36,Female,English,BA Degree,2024-03-06_14h28.35.176,CRL1h,2023.2.3,Win32,59.88023952,65e67470ae2fbf2172c317b2,65e87d72e5d71ae9900ad0f5,,,,,,,,,,,564.7846,0.7,565.4834,565.4834,566.2336,left,1,0.7395,,566.2338,567.2331,0,4,4,1,1,partial,1,images/Ex2.jpg,left,training,hard,3,,,,,
,,,,,614618f3146cc85f803c4e69,001,36,Female,English,BA Degree,2024-03-06_14h28.35.176,CRL1h,2023.2.3,Win32,59.88023952,65e67470ae2fbf2172c317b2,65e87d72e5d71ae9900ad0f5,,,,,,,,,,,567.2338,0.8,568.0327,568.0328,568.7829,right,1,0.7422,,568.7829,569.7824,0,5,5,5,1,partial,1,images/Ex6.jpg,right,training,hard,3,,,,,
,,,,,614618f3146cc85f803c4e69,001,36,Female,English,BA Degree,2024-03-06_14h28.35.176,CRL1h,2023.2.3,Win32,59.88023952,65e67470ae2fbf2172c317b2,65e87d72e5d71ae9900ad0f5,,,,,,,,,,,569.7832,1.1,570.882,570.8821,571.5828,right,0,0.6899,,571.5828,572.5817,0,6,6,8,1,partial,1,images/Ex1.jpg,left,training,hard,3,,,,,
,,,,,614618f3146cc85f803c4e69,001,36,Female,English,BA Degree,2024-03-06_14h28.35.176,CRL1h,2023.2.3,Win32,59.88023952,65e67470ae2fbf2172c317b2,65e87d72e5d71ae9900ad0f5,,,,,,,,,,,572.5827,1.1,573.6814,573.6815,574.0816,right,0,0.3893,,574.0817,575.0811,0,7,7,11,1,partial,1,images/Ex4.jpg,left,training,hard,3,,,,,
,,,,,614618f3146cc85f803c4e69,001,36,Female,English,BA Degree,2024-03-06_14h28.35.176,CRL1h,2023.2.3,Win32,59.88023952,65e67470ae2fbf2172c317b2,65e87d72e5d71ae9900ad0f5,,,,,,,,,,,575.0823,0.5,575.5813,575.5813,576.0479,right,0,0.4552,,576.0479,577.0474,0,8,8,3,1,partial,1,images/Ex4.jpg,left,training,hard,3,,,,,
,,,,,614618f3146cc85f803c4e69,001,36,Female,English,BA Degree,2024-03-06_14h28.35.176,CRL1h,2023.2.3,Win32,59.88023952,65e67470ae2fbf2172c317b2,65e87d72e5d71ae9900ad0f5,,,,,,,,,,,577.0483,1.4,578.4472,578.4472,579.0311,left,1,0.5733,,579.0311,580.03,0,9,9,0,1,partial,1,images/Ex1.jpg,left,training,hard,3,,,,,
,,,,,614618f3146cc85f803c4e69,001,36,Female,English,BA Degree,2024-03-06_14h28.35.176,CRL1h,2023.2.3,Win32,59.88023952,65e67470ae2fbf2172c317b2,65e87d72e5d71ae9900ad0f5,,,,,,,,,,,580.0312,0.7,580.73,580.73,581.4301,left,1,0.6908,,581.4302,582.4296,0,10,10,9,1,partial,1,images/Ex2.jpg,left,training,hard,3,,,,,
,,,,,614618f3146cc85f803c4e69,001,36,Female,English,BA Degree,2024-03-06_14h28.35.176,CRL1h,2023.2.3,Win32,59.88023952,65e67470ae2fbf2172c317b2,65e87d72e5d71ae9900ad0f5,,,,,,,,,,,582.4317,0.6,583.0296,583.0297,583.2962,right,1,0.2634,,583.2962,584.2957,0,11,11,14,1,partial,1,images/Ex7.jpg,right,training,hard,3,,,,,
,,,,,614618f3146cc85f803c4e69,001,36,Female,English,BA Degree,2024-03-06_14h28.35.176,CRL1h,2023.2.3,Win32,59.88023952,65e67470ae2fbf2172c317b2,65e87d72e5d71ae9900ad0f5,,,,,,,,,,,584.2967,0.7,584.9955,584.9956,585.4123,right,0,0.4059,,585.4124,586.4118,0,12,12,10,1,partial,1,images/Ex3.jpg,left,training,hard,3,,,,,
,,,,,614618f3146cc85f803c4e69,001,36,Female,English,BA Degree,2024-03-06_14h28.35.176,CRL1h,2023.2.3,Win32,59.88023952,65e67470ae2fbf2172c317b2,65e87d72e5d71ae9900ad0f5,,,,,,,,,,,586.413,1,587.4116,587.4116,588.0292,left,0,0.6059,,588.0294,589.028,0,13,13,7,1,partial,1,images/Ex8.jpg,right,training,hard,3,,,,,
,,,,,614618f3146cc85f803c4e69,001,36,Female,English,BA Degree,2024-03-06_14h28.35.176,CRL1h,2023.2.3,Win32,59.88023952,65e67470ae2fbf2172c317b2,65e87d72e5d71ae9900ad0f5,,,,,,,,,,,589.0293,1,590.0277,590.0278,590.5779,right,0,0.5385,,590.5779,591.5776,0,14,14,2,1,partial,1,images/Ex3.jpg,left,training,hard,3,,,,,
,,,,,614618f3146cc85f803c4e69,001,36,Female,English,BA Degree,2024-03-06_14h28.35.176,CRL1h,2023.2.3,Win32,59.88023952,65e67470ae2fbf2172c317b2,65e87d72e5d71ae9900ad0f5,,,,,,,,,,,591.5786,0.8,592.3773,592.3774,592.6942,right,1,0.31,,592.6943,593.6936,0,15,15,4,1,partial,1,images/Ex5.jpg,right,training,hard,3,,,,,
,,,,,614618f3146cc85f803c4e69,001,36,Female,English,BA Degree,2024-03-06_14h28.35.176,CRL1h,2023.2.3,Win32,59.88023952,65e67470ae2fbf2172c317b2,65e87d72e5d71ae9900ad0f5,,,,,,,,,,,593.6946,1,594.6934,594.6934,595.2601,right,1,0.5553,,595.2602,596.2598,1,0,16,7,1,partial,1,images/Ex8.jpg,right,training,hard,3,,,,,
,,,,,614618f3146cc85f803c4e69,001,36,Female,English,BA Degree,2024-03-06_14h28.35.176,CRL1h,2023.2.3,Win32,59.88023952,65e67470ae2fbf2172c317b2,65e87d72e5d71ae9900ad0f5,,,,,,,,,,,596.2615,1.3,597.5595,597.5596,598.0101,right,1,0.4393,,598.0101,599.0091,1,1,17,13,1,partial,1,images/Ex6.jpg,right,training,hard,3,,,,,
,,,,,614618f3146cc85f803c4e69,001,36,Female,English,BA Degree,2024-03-06_14h28.35.176,CRL1h,2023.2.3,Win32,59.88023952,65e67470ae2fbf2172c317b2,65e87d72e5d71ae9900ad0f5,,,,,,,,,,,599.0108,1.4,600.4088,600.4088,600.7426,left,0,0.3283,,600.7427,601.7418,1,2,18,15,1,partial,1,images/Ex8.jpg,right,training,hard,3,,,,,
,,,,,614618f3146cc85f803c4e69,001,36,Female,English,BA Degree,2024-03-06_14h28.35.176,CRL1h,2023.2.3,Win32,59.88023952,65e67470ae2fbf2172c317b2,65e87d72e5d71ae9900ad0f5,,,,,,,,,,,601.743,0.7,602.4417,602.4417,602.9918,right,0,0.5431,,602.9918,603.9913,1,3,19,10,1,partial,1,images/Ex3.jpg,left,training,hard,3,,,,,
,,,,,614618f3146cc85f803c4e69,001,36,Female,English,BA Degree,2024-03-06_14h28.35.176,CRL1h,2023.2.3,Win32,59.88023952,65e67470ae2fbf2172c317b2,65e87d72e5d71ae9900ad0f5,,,,,,,,,,,603.9921,1.4,605.3909,605.391,605.7083,right,0,0.3066,,605.7084,606.7073,1,4,20,9,1,partial,1,images/Ex2.jpg,left,training,hard,3,,,,,
,,,,,614618f3146cc85f803c4e69,001,36,Female,English,BA Degree,2024-03-06_14h28.35.176,CRL1h,2023.2.3,Win32,59.88023952,65e67470ae2fbf2172c317b2,65e87d72e5d71ae9900ad0f5,,,,,,,,,,,606.7085,0.6,607.3071,607.3072,608.1573,left,1,0.8387,,608.1575,609.1568,1,5,21,2,1,partial,1,images/Ex3.jpg,left,training,hard,3,,,,,
,,,,,614618f3146cc85f803c4e69,001,36,Female,English,BA Degree,2024-03-06_14h28.35.176,CRL1h,2023.2.3,Win32,59.88023952,65e67470ae2fbf2172c317b2,65e87d72e5d71ae9900ad0f5,,,,,,,,,,,609.1579,0.9,610.0565,610.0566,610.8405,left,0,0.7729,,610.8405,611.8396,1,6,22,4,1,partial,1,images/Ex5.jpg,right,training,hard,3,,,,,
,,,,,614618f3146cc85f803c4e69,001,36,Female,English,BA Degree,2024-03-06_14h28.35.176,CRL1h,2023.2.3,Win32,59.88023952,65e67470ae2fbf2172c317b2,65e87d72e5d71ae9900ad0f5,,,,,,,,,,,611.8417,1.4,613.2393,613.2393,613.5065,right,0,0.2625,,613.5066,614.5056,1,7,23,0,1,partial,1,images/Ex1.jpg,left,training,hard,3,,,,,
,,,,,614618f3146cc85f803c4e69,001,36,Female,English,BA Degree,2024-03-06_14h28.35.176,CRL1h,2023.2.3,Win32,59.88023952,65e67470ae2fbf2172c317b2,65e87d72e5d71ae9900ad0f5,,,,,,,,,,,614.5068,0.7,615.2053,615.2054,615.5722,right,1,0.3555,,615.5723,616.5717,1,8,24,14,1,partial,1,images/Ex7.jpg,right,training,hard,3,,,,,
,,,,,614618f3146cc85f803c4e69,001,36,Female,English,BA Degree,2024-03-06_14h28.35.176,CRL1h,2023.2.3,Win32,59.88023952,65e67470ae2fbf2172c317b2,65e87d72e5d71ae9900ad0f5,,,,,,,,,,,616.5726,1.1,617.6715,617.6715,618.4221,left,1,0.74,,618.4222,619.4212,1,9,25,1,1,partial,1,images/Ex2.jpg,left,training,hard,3,,,,,
,,,,,614618f3146cc85f803c4e69,001,36,Female,English,BA Degree,2024-03-06_14h28.35.176,CRL1h,2023.2.3,Win32,59.88023952,65e67470ae2fbf2172c317b2,65e87d72e5d71ae9900ad0f5,,,,,,,,,,,619.4226,1.3,620.7207,620.7208,621.3215,right,0,0.5894,,621.3215,622.3203,1,10,26,11,1,partial,1,images/Ex4.jpg,left,training,hard,3,,,,,
,,,,,614618f3146cc85f803c4e69,001,36,Female,English,BA Degree,2024-03-06_14h28.35.176,CRL1h,2023.2.3,Win32,59.88023952,65e67470ae2fbf2172c317b2,65e87d72e5d71ae9900ad0f5,,,,,,,,,,,622.3212,0.8,623.1201,623.1202,623.5204,right,1,0.3965,,623.5205,624.5199,1,11,27,6,1,partial,1,images/Ex7.jpg,right,training,hard,3,,,,,
,,,,,614618f3146cc85f803c4e69,001,36,Female,English,BA Degree,2024-03-06_14h28.35.176,CRL1h,2023.2.3,Win32,59.88023952,65e67470ae2fbf2172c317b2,65e87d72e5d71ae9900ad0f5,,,,,,,,,,,624.5208,0.9,625.4198,625.4198,626.154,left,1,0.7312,,626.1541,627.1527,1,12,28,3,1,partial,1,images/Ex4.jpg,left,training,hard,3,,,,,
,,,,,614618f3146cc85f803c4e69,001,36,Female,English,BA Degree,2024-03-06_14h28.35.176,CRL1h,2023.2.3,Win32,59.88023952,65e67470ae2fbf2172c317b2,65e87d72e5d71ae9900ad0f5,,,,,,,,,,,627.1538,1.1,628.2523,628.2524,628.736,left,0,0.4743,,628.736,629.7354,1,13,29,5,1,partial,1,images/Ex6.jpg,right,training,hard,3,,,,,
,,,,,614618f3146cc85f803c4e69,001,36,Female,English,BA Degree,2024-03-06_14h28.35.176,CRL1h,2023.2.3,Win32,59.88023952,65e67470ae2fbf2172c317b2,65e87d72e5d71ae9900ad0f5,,,,,,,,,,,629.7363,0.8,630.5352,630.5352,630.8354,left,0,0.2889,,630.8354,631.8349,1,14,30,12,1,partial,1,images/Ex5.jpg,right,training,hard,3,,,,,
,,,,,614618f3146cc85f803c4e69,001,36,Female,English,BA Degree,2024-03-06_14h28.35.176,CRL1h,2023.2.3,Win32,59.88023952,65e67470ae2fbf2172c317b2,65e87d72e5d71ae9900ad0f5,,,,,,,,,,,631.8359,0.7,632.5347,632.5347,633.035,right,0,0.4888,,633.0351,634.0344,1,15,31,8,1,partial,1,images/Ex1.jpg,left,training,hard,3,,,,,
,,,,,614618f3146cc85f803c4e69,001,36,Female,English,BA Degree,2024-03-06_14h28.35.176,CRL1h,2023.2.3,Win32,59.88023952,65e67470ae2fbf2172c317b2,65e87d72e5d71ae9900ad0f5,,,,,,,,,,,634.0354,1.3,635.3341,635.3342,635.619,right,0,0.2814,,635.6192,636.6171,2,0,32,11,1,partial,1,images/Ex4.jpg,left,training,hard,3,,,,,
,,,,,614618f3146cc85f803c4e69,001,36,Female,English,BA Degree,2024-03-06_14h28.35.176,CRL1h,2023.2.3,Win32,59.88023952,65e67470ae2fbf2172c317b2,65e87d72e5d71ae9900ad0f5,,,,,,,,,,,636.6182,1.4,638.0168,638.0169,638.6841,left,0,0.6558,,638.6842,639.6832,2,1,33,13,1,partial,1,images/Ex6.jpg,right,training,hard,3,,,,,
,,,,,614618f3146cc85f803c4e69,001,36,Female,English,BA Degree,2024-03-06_14h28.35.176,CRL1h,2023.2.3,Win32,59.88023952,65e67470ae2fbf2172c317b2,65e87d72e5d71ae9900ad0f5,,,,,,,,,,,639.6848,1,640.6828,640.6829,641.0503,left,0,0.3551,,641.0505,642.0494,2,2,34,14,1,partial,1,images/Ex7.jpg,right,training,hard,3,,,,,
,,,,,614618f3146cc85f803c4e69,001,36,Female,English,BA Degree,2024-03-06_14h28.35.176,CRL1h,2023.2.3,Win32,59.88023952,65e67470ae2fbf2172c317b2,65e87d72e5d71ae9900ad0f5,,,,,,,,,,,642.0511,1,643.0491,643.0491,643.6997,left,1,0.6405,,643.6998,644.6986,2,3,35,2,1,partial,1,images/Ex3.jpg,left,training,hard,3,,,,,
,,,,,614618f3146cc85f803c4e69,001,36,Female,English,BA Degree,2024-03-06_14h28.35.176,CRL1h,2023.2.3,Win32,59.88023952,65e67470ae2fbf2172c317b2,65e87d72e5d71ae9900ad0f5,,,,,,,,,,,644.7004,0.7,645.3985,645.3986,646.2992,left,0,0.895,,646.2992,647.2981,2,4,36,5,1,partial,1,images/Ex6.jpg,right,training,hard,3,,,,,
,,,,,614618f3146cc85f803c4e69,001,36,Female,English,BA Degree,2024-03-06_14h28.35.176,CRL1h,2023.2.3,Win32,59.88023952,65e67470ae2fbf2172c317b2,65e87d72e5d71ae9900ad0f5,,,,,,,,,,,647.2995,1.5,648.7977,648.7978,649.315,left,0,0.5055,,649.315,650.314,2,5,37,7,1,partial,1,images/Ex8.jpg,right,training,hard,3,,,,,
,,,,,614618f3146cc85f803c4e69,001,36,Female,English,BA Degree,2024-03-06_14h28.35.176,CRL1h,2023.2.3,Win32,59.88023952,65e67470ae2fbf2172c317b2,65e87d72e5d71ae9900ad0f5,,,,,,,,,,,650.3154,0.9,651.2139,651.2139,651.5647,right,0,0.3467,,651.5649,652.5635,2,6,38,1,1,partial,1,images/Ex2.jpg,left,training,hard,3,,,,,
,,,,,614618f3146cc85f803c4e69,001,36,Female,English,BA Degree,2024-03-06_14h28.35.176,CRL1h,2023.2.3,Win32,59.88023952,65e67470ae2fbf2172c317b2,65e87d72e5d71ae9900ad0f5,,,,,,,,,,,652.5646,0.6,653.1634,653.1634,653.5468,left,0,0.3738,,653.5469,654.5464,2,7,39,6,1,partial,1,images/Ex7.jpg,right,training,hard,3,,,,,
,,,,,614618f3146cc85f803c4e69,001,36,Female,English,BA Degree,2024-03-06_14h28.35.176,CRL1h,2023.2.3,Win32,59.88023952,65e67470ae2fbf2172c317b2,65e87d72e5d71ae9900ad0f5,,,,,,,,,,,654.5475,1.1,655.6461,655.6463,655.9306,left,1,0.2722,,655.9308,656.9293,2,8,40,0,1,partial,1,images/Ex1.jpg,left,training,hard,3,,,,,
,,,,,614618f3146cc85f803c4e69,001,36,Female,English,BA Degree,2024-03-06_14h28.35.176,CRL1h,2023.2.3,Win32,59.88023952,65e67470ae2fbf2172c317b2,65e87d72e5d71ae9900ad0f5,,,,,,,,,,,656.9308,1.4,658.3289,658.3289,658.6963,left,1,0.356,,658.6963,659.6952,2,9,41,8,1,partial,1,images/Ex1.jpg,left,training,hard,3,,,,,
,,,,,614618f3146cc85f803c4e69,001,36,Female,English,BA Degree,2024-03-06_14h28.35.176,CRL1h,2023.2.3,Win32,59.88023952,65e67470ae2fbf2172c317b2,65e87d72e5d71ae9900ad0f5,,,,,,,,,,,659.6963,0.9,660.595,660.595,660.9452,right,0,0.3388,,660.9453,661.9447,2,10,42,3,1,partial,1,images/Ex4.jpg,left,training,hard,3,,,,,
,,,,,614618f3146cc85f803c4e69,001,36,Female,English,BA Degree,2024-03-06_14h28.35.176,CRL1h,2023.2.3,Win32,59.88023952,65e67470ae2fbf2172c317b2,65e87d72e5d71ae9900ad0f5,,,,,,,,,,,661.9456,0.8,662.7445,662.7445,663.2279,right,1,0.472,,663.228,664.2275,2,11,43,15,1,partial,1,images/Ex8.jpg,right,training,hard,3,,,,,
,,,,,614618f3146cc85f803c4e69,001,36,Female,English,BA Degree,2024-03-06_14h28.35.176,CRL1h,2023.2.3,Win32,59.88023952,65e67470ae2fbf2172c317b2,65e87d72e5d71ae9900ad0f5,,,,,,,,,,,664.2287,1.2,665.4272,665.4273,665.9612,right,0,0.5231,,665.9613,666.9602,2,12,44,9,1,partial,1,images/Ex2.jpg,left,training,hard,3,,,,,
,,,,,614618f3146cc85f803c4e69,001,36,Female,English,BA Degree,2024-03-06_14h28.35.176,CRL1h,2023.2.3,Win32,59.88023952,65e67470ae2fbf2172c317b2,65e87d72e5d71ae9900ad0f5,,,,,,,,,,,666.9613,0.5,667.4602,667.4603,667.8769,left,0,0.4118,,667.877,668.8765,2,13,45,4,1,partial,1,images/Ex5.jpg,right,training,hard,3,,,,,
,,,,,614618f3146cc85f803c4e69,001,36,Female,English,BA Degree,2024-03-06_14h28.35.176,CRL1h,2023.2.3,Win32,59.88023952,65e67470ae2fbf2172c317b2,65e87d72e5d71ae9900ad0f5,,,,,,,,,,,668.8776,1,669.8763,669.8763,670.6945,right,0,0.8154,,670.6946,671.6925,2,14,46,10,1,partial,1,images/Ex3.jpg,left,training,hard,3,,,,,
,,,,,614618f3146cc85f803c4e69,001,36,Female,English,BA Degree,2024-03-06_14h28.35.176,CRL1h,2023.2.3,Win32,59.88023952,65e67470ae2fbf2172c317b2,65e87d72e5d71ae9900ad0f5,,,,,,,,,,,671.6939,0.9,672.5923,672.5923,672.7758,right,1,0.1779,,672.776,673.7753,2,15,47,12,1,partial,1,images/Ex5.jpg,right,training,hard,3,,,,,
,,,,,614618f3146cc85f803c4e69,001,36,Female,English,BA Degree,2024-03-06_14h28.35.176,CRL1h,2023.2.3,Win32,59.88023952,65e67470ae2fbf2172c317b2,65e87d72e5d71ae9900ad0f5,,,,,,,,,,,673.7761,1.4,675.175,675.175,675.5924,right,0,0.4107,,675.5924,676.5914,3,0,48,11,1,partial,1,images/Ex4.jpg,left,training,hard,3,,,,,
,,,,,614618f3146cc85f803c4e69,001,36,Female,English,BA Degree,2024-03-06_14h28.35.176,CRL1h,2023.2.3,Win32,59.88023952,65e67470ae2fbf2172c317b2,65e87d72e5d71ae9900ad0f5,,,,,,,,,,,676.5923,1.1,677.6911,677.6912,678.6085,left,1,0.9056,,678.6086,679.6074,3,1,49,1,1,partial,1,images/Ex2.jpg,left,training,hard,3,,,,,
,,,,,614618f3146cc85f803c4e69,001,36,Female,English,BA Degree,2024-03-06_14h28.35.176,CRL1h,2023.2.3,Win32,59.88023952,65e67470ae2fbf2172c317b2,65e87d72e5d71ae9900ad0f5,,,,,,,,,,,679.6081,0.9,680.5072,680.5072,681.1577,left,1,0.6386,,681.1579,682.1568,3,2,50,3,1,partial,1,images/Ex4.jpg,left,training,hard,3,,,,,
,,,,,614618f3146cc85f803c4e69,001,36,Female,English,BA Degree,2024-03-06_14h28.35.176,CRL1h,2023.2.3,Win32,59.88023952,65e67470ae2fbf2172c317b2,65e87d72e5d71ae9900ad0f5,,,,,,,,,,,682.1579,1.2,683.3565,683.3566,684.9564,right,1,1.5915,,684.9565,685.9559,3,3,51,15,1,partial,1,images/Ex8.jpg,right,training,hard,3,,,,,
,,,,,614618f3146cc85f803c4e69,001,36,Female,English,BA Degree,2024-03-06_14h28.35.176,CRL1h,2023.2.3,Win32,59.88023952,65e67470ae2fbf2172c317b2,65e87d72e5d71ae9900ad0f5,,,,,,,,,,,685.957,0.7,686.6558,686.6558,687.6398,right,1,0.9759,,687.6398,688.6387,3,4,52,14,1,partial,1,images/Ex7.jpg,right,training,hard,3,,,,,
,,,,,614618f3146cc85f803c4e69,001,36,Female,English,BA Degree,2024-03-06_14h28.35.176,CRL1h,2023.2.3,Win32,59.88023952,65e67470ae2fbf2172c317b2,65e87d72e5d71ae9900ad0f5,,,,,,,,,,,688.6401,0.8,689.4384,689.4386,690.2901,right,1,0.8407,,690.2902,691.288,3,5,53,7,1,partial,1,images/Ex8.jpg,right,training,hard,3,,,,,
,,,,,614618f3146cc85f803c4e69,001,36,Female,English,BA Degree,2024-03-06_14h28.35.176,CRL1h,2023.2.3,Win32,59.88023952,65e67470ae2fbf2172c317b2,65e87d72e5d71ae9900ad0f5,,,,,,,,,,,691.289,0.7,691.9878,691.9879,692.7046,right,1,0.7114,,692.7048,693.7042,3,6,54,12,1,partial,1,images/Ex5.jpg,right,training,hard,3,,,,,
,,,,,614618f3146cc85f803c4e69,001,36,Female,English,BA Degree,2024-03-06_14h28.35.176,CRL1h,2023.2.3,Win32,59.88023952,65e67470ae2fbf2172c317b2,65e87d72e5d71ae9900ad0f5,,,,,,,,,,,693.7052,1,694.704,694.7041,695.1208,left,0,0.4061,,695.1208,696.1202,3,7,55,13,1,partial,1,images/Ex6.jpg,right,training,hard,3,,,,,
,,,,,614618f3146cc85f803c4e69,001,36,Female,English,BA Degree,2024-03-06_14h28.35.176,CRL1h,2023.2.3,Win32,59.88023952,65e67470ae2fbf2172c317b2,65e87d72e5d71ae9900ad0f5,,,,,,,,,,,696.1211,1.1,697.2202,697.2203,697.5871,right,0,0.3625,,697.5873,698.5865,3,8,56,2,1,partial,1,images/Ex3.jpg,left,training,hard,3,,,,,
,,,,,614618f3146cc85f803c4e69,001,36,Female,English,BA Degree,2024-03-06_14h28.35.176,CRL1h,2023.2.3,Win32,59.88023952,65e67470ae2fbf2172c317b2,65e87d72e5d71ae9900ad0f5,,,,,,,,,,,698.588,0.6,699.1862,699.1863,700.003,right,0,0.8055,,700.0031,701.0025,3,9,57,9,1,partial,1,images/Ex2.jpg,left,training,hard,3,,,,,
,,,,,614618f3146cc85f803c4e69,001,36,Female,English,BA Degree,2024-03-06_14h28.35.176,CRL1h,2023.2.3,Win32,59.88023952,65e67470ae2fbf2172c317b2,65e87d72e5d71ae9900ad0f5,,,,,,,,,,,701.0034,1.2,702.2022,702.2022,703.0861,left,0,0.8757,,703.0862,704.0852,3,10,58,6,1,partial,1,images/Ex7.jpg,right,training,hard,3,,,,,
,,,,,614618f3146cc85f803c4e69,001,36,Female,English,BA Degree,2024-03-06_14h28.35.176,CRL1h,2023.2.3,Win32,59.88023952,65e67470ae2fbf2172c317b2,65e87d72e5d71ae9900ad0f5,,,,,,,,,,,704.0859,1.5,705.5848,705.5848,706.4521,right,0,0.8559,,706.4521,707.4511,3,11,59,0,1,partial,1,images/Ex1.jpg,left,training,hard,3,,,,,
,,,,,614618f3146cc85f803c4e69,001,36,Female,English,BA Degree,2024-03-06_14h28.35.176,CRL1h,2023.2.3,Win32,59.88023952,65e67470ae2fbf2172c317b2,65e87d72e5d71ae9900ad0f5,,,,,,,,,,,707.4519,1.4,708.8508,708.8509,710.8838,right,0,2.0223,,710.8839,711.8834,3,12,60,8,1,partial,1,images/Ex1.jpg,left,training,hard,3,,,,,
,,,,,614618f3146cc85f803c4e69,001,36,Female,English,BA Degree,2024-03-06_14h28.35.176,CRL1h,2023.2.3,Win32,59.88023952,65e67470ae2fbf2172c317b2,65e87d72e5d71ae9900ad0f5,,,,,,,,,,,711.8847,1.2,713.083,713.0831,713.517,left,0,0.4252,,713.5171,714.516,3,13,61,5,1,partial,1,images/Ex6.jpg,right,training,hard,3,,,,,
,,,,,614618f3146cc85f803c4e69,001,36,Female,English,BA Degree,2024-03-06_14h28.35.176,CRL1h,2023.2.3,Win32,59.88023952,65e67470ae2fbf2172c317b2,65e87d72e5d71ae9900ad0f5,,,,,,,,,,,714.5169,0.6,715.1159,715.116,715.966,right,0,0.8425,,715.9661,716.9656,3,14,62,10,1,partial,1,images/Ex3.jpg,left,training,hard,3,,,,,
,,,,,614618f3146cc85f803c4e69,001,36,Female,English,BA Degree,2024-03-06_14h28.35.176,CRL1h,2023.2.3,Win32,59.88023952,65e67470ae2fbf2172c317b2,65e87d72e5d71ae9900ad0f5,,,,,,,,,,,716.9667,1.3,718.2652,718.2653,718.9657,left,0,0.689,,718.9658,719.9648,3,15,63,4,1,partial,1,images/Ex5.jpg,right,training,hard,3,,,,,
,,,,,614618f3146cc85f803c4e69,001,36,Female,English,BA Degree,2024-03-06_14h28.35.176,CRL1h,2023.2.3,Win32,59.88023952,65e67470ae2fbf2172c317b2,65e87d72e5d71ae9900ad0f5,,,,,,,,,,,719.9659,1.4,721.3645,721.3645,721.7485,left,1,0.3727,,721.7486,722.7475,4,0,64,8,1,partial,1,images/Ex1.jpg,left,training,hard,3,,,,,
,,,,,614618f3146cc85f803c4e69,001,36,Female,English,BA Degree,2024-03-06_14h28.35.176,CRL1h,2023.2.3,Win32,59.88023952,65e67470ae2fbf2172c317b2,65e87d72e5d71ae9900ad0f5,,,,,,,,,,,722.7491,1.4,724.1471,724.1472,724.5317,left,0,0.3827,,724.5317,725.5303,4,1,65,12,1,partial,1,images/Ex5.jpg,right,training,hard,3,,,,,
,,,,,614618f3146cc85f803c4e69,001,36,Female,English,BA Degree,2024-03-06_14h28.35.176,CRL1h,2023.2.3,Win32,59.88023952,65e67470ae2fbf2172c317b2,65e87d72e5d71ae9900ad0f5,,,,,,,,,,,725.5316,1,726.5301,726.5302,726.9469,right,1,0.4043,,726.947,727.9463,4,2,66,7,1,partial,1,images/Ex8.jpg,right,training,hard,3,,,,,
,,,,,614618f3146cc85f803c4e69,001,36,Female,English,BA Degree,2024-03-06_14h28.35.176,CRL1h,2023.2.3,Win32,59.88023952,65e67470ae2fbf2172c317b2,65e87d72e5d71ae9900ad0f5,,,,,,,,,,,727.9475,1.2,729.1462,729.1462,729.5129,right,0,0.3548,,729.513,730.5124,4,3,67,10,1,partial,1,images/Ex3.jpg,left,training,hard,3,,,,,
,,,,,614618f3146cc85f803c4e69,001,36,Female,English,BA Degree,2024-03-06_14h28.35.176,CRL1h,2023.2.3,Win32,59.88023952,65e67470ae2fbf2172c317b2,65e87d72e5d71ae9900ad0f5,,,,,,,,,,,730.5134,0.8,731.3121,731.3122,731.9458,left,1,0.6222,,731.9459,732.9452,4,4,68,9,1,partial,1,images/Ex2.jpg,left,training,hard,3,,,,,
,,,,,614618f3146cc85f803c4e69,001,36,Female,English,BA Degree,2024-03-06_14h28.35.176,CRL1h,2023.2.3,Win32,59.88023952,65e67470ae2fbf2172c317b2,65e87d72e5d71ae9900ad0f5,,,,,,,,,,,732.9463,1.1,734.0449,734.045,734.6122,left,0,0.5637,,734.6122,735.6113,4,5,69,13,1,partial,1,images/Ex6.jpg,right,training,hard,3,,,,,
,,,,,614618f3146cc85f803c4e69,001,36,Female,English,BA Degree,2024-03-06_14h28.35.176,CRL1h,2023.2.3,Win32,59.88023952,65e67470ae2fbf2172c317b2,65e87d72e5d71ae9900ad0f5,,,,,,,,,,,735.6121,1,736.6111,736.6111,736.9124,left,0,0.2979,,736.9124,737.9106,4,6,70,6,1,partial,1,images/Ex7.jpg,right,training,hard,3,,,,,
,,,,,614618f3146cc85f803c4e69,001,36,Female,English,BA Degree,2024-03-06_14h28.35.176,CRL1h,2023.2.3,Win32,59.88023952,65e67470ae2fbf2172c317b2,65e87d72e5d71ae9900ad0f5,,,,,,,,,,,737.9115,1.3,739.2104,739.2105,739.5944,right,1,0.3726,,739.5945,740.5936,4,7,71,5,1,partial,1,images/Ex6.jpg,right,training,hard,3,,,,,
,,,,,614618f3146cc85f803c4e69,001,36,Female,English,BA Degree,2024-03-06_14h28.35.176,CRL1h,2023.2.3,Win32,59.88023952,65e67470ae2fbf2172c317b2,65e87d72e5d71ae9900ad0f5,,,,,,,,,,,740.5946,0.7,741.2934,741.2934,741.6611,right,1,0.3582,,741.6613,742.6598,4,8,72,15,1,partial,1,images/Ex8.jpg,right,training,hard,3,,,,,
,,,,,614618f3146cc85f803c4e69,001,36,Female,English,BA Degree,2024-03-06_14h28.35.176,CRL1h,2023.2.3,Win32,59.88023952,65e67470ae2fbf2172c317b2,65e87d72e5d71ae9900ad0f5,,,,,,,,,,,742.6612,1.1,743.7595,743.7595,744.2267,right,0,0.4601,,744.2268,745.2258,4,9,73,2,1,partial,1,images/Ex3.jpg,left,training,hard,3,,,,,
,,,,,614618f3146cc85f803c4e69,001,36,Female,English,BA Degree,2024-03-06_14h28.35.176,CRL1h,2023.2.3,Win32,59.88023952,65e67470ae2fbf2172c317b2,65e87d72e5d71ae9900ad0f5,,,,,,,,,,,745.2269,1.1,746.3256,746.3256,746.9261,right,0,0.5893,,746.9263,747.9251,4,10,74,3,1,partial,1,images/Ex4.jpg,left,training,hard,3,,,,,
,,,,,614618f3146cc85f803c4e69,001,36,Female,English,BA Degree,2024-03-06_14h28.35.176,CRL1h,2023.2.3,Win32,59.88023952,65e67470ae2fbf2172c317b2,65e87d72e5d71ae9900ad0f5,,,,,,,,,,,747.9263,0.7,748.6249,748.625,749.1418,left,0,0.5048,,749.1419,750.1414,4,11,75,4,1,partial,1,images/Ex5.jpg,right,training,hard,3,,,,,
,,,,,614618f3146cc85f803c4e69,001,36,Female,English,BA Degree,2024-03-06_14h28.35.176,CRL1h,2023.2.3,Win32,59.88023952,65e67470ae2fbf2172c317b2,65e87d72e5d71ae9900ad0f5,,,,,,,,,,,750.1427,1.2,751.341,751.341,751.7246,right,0,0.3725,,751.7246,752.724,4,12,76,1,1,partial,1,images/Ex2.jpg,left,training,hard,3,,,,,
,,,,,614618f3146cc85f803c4e69,001,36,Female,English,BA Degree,2024-03-06_14h28.35.176,CRL1h,2023.2.3,Win32,59.88023952,65e67470ae2fbf2172c317b2,65e87d72e5d71ae9900ad0f5,,,,,,,,,,,752.725,0.8,753.5239,753.5239,754.3578,right,0,0.8224,,754.3578,755.3567,4,13,77,11,1,partial,1,images/Ex4.jpg,left,training,hard,3,,,,,
,,,,,614618f3146cc85f803c4e69,001,36,Female,English,BA Degree,2024-03-06_14h28.35.176,CRL1h,2023.2.3,Win32,59.88023952,65e67470ae2fbf2172c317b2,65e87d72e5d71ae9900ad0f5,,,,,,,,,,,755.3575,1.1,756.4566,756.4566,757.6571,left,1,1.1935,,757.6571,758.656,4,14,78,0,1,partial,1,images/Ex1.jpg,left,training,hard,3,,,,,
,,,,,614618f3146cc85f803c4e69,001,36,Female,English,BA Degree,2024-03-06_14h28.35.176,CRL1h,2023.2.3,Win32,59.88023952,65e67470ae2fbf2172c317b2,65e87d72e5d71ae9900ad0f5,,,,,,,,,,,758.6572,0.9,759.5559,759.5559,760.3064,left,0,0.7391,,760.3065,761.3055,4,15,79,14,1,partial,1,images/Ex7.jpg,right,training,hard,3,,,,,
,,,,,614618f3146cc85f803c4e69,001,36,Female,English,BA Degree,2024-03-06_14h28.35.176,CRL1h,2023.2.3,Win32,59.88023952,65e67470ae2fbf2172c317b2,65e87d72e5d71ae9900ad0f5,,,,,,,,,,,761.3067,0.7,762.0053,762.0053,763.2391,right,0,1.2229,,763.2392,764.2381,5,0,80,9,1,partial,1,images/Ex2.jpg,left,training,hard,3,,,,,
,,,,,614618f3146cc85f803c4e69,001,36,Female,English,BA Degree,2024-03-06_14h28.35.176,CRL1h,2023.2.3,Win32,59.88023952,65e67470ae2fbf2172c317b2,65e87d72e5d71ae9900ad0f5,,,,,,,,,,,764.251,1.5,765.7544,765.7544,766.0218,right,1,0.2649,,766.0219,767.0208,5,1,81,13,1,partial,1,images/Ex6.jpg,right,training,hard,3,,,,,
,,,,,614618f3146cc85f803c4e69,001,36,Female,English,BA Degree,2024-03-06_14h28.35.176,CRL1h,2023.2.3,Win32,59.88023952,65e67470ae2fbf2172c317b2,65e87d72e5d71ae9900ad0f5,,,,,,,,,,,767.0217,0.8,767.8206,767.8207,768.6213,right,0,0.7935,,768.6214,769.6204,5,2,82,8,1,partial,1,images/Ex1.jpg,left,training,hard,3,,,,,
,,,,,614618f3146cc85f803c4e69,001,36,Female,English,BA Degree,2024-03-06_14h28.35.176,CRL1h,2023.2.3,Win32,59.88023952,65e67470ae2fbf2172c317b2,65e87d72e5d71ae9900ad0f5,,,,,,,,,,,769.6216,0.9,770.52,770.52,771.6705,right,1,1.1386,,771.6705,772.6695,5,3,83,12,1,partial,1,images/Ex5.jpg,right,training,hard,3,,,,,
,,,,,614618f3146cc85f803c4e69,001,36,Female,English,BA Degree,2024-03-06_14h28.35.176,CRL1h,2023.2.3,Win32,59.88023952,65e67470ae2fbf2172c317b2,65e87d72e5d71ae9900ad0f5,,,,,,,,,,,772.6708,1.2,773.8691,773.8692,774.8864,right,1,1.0072,,774.8864,775.8855,5,4,84,4,1,partial,1,images/Ex5.jpg,right,training,hard,3,,,,,
,,,,,614618f3146cc85f803c4e69,001,36,Female,English,BA Degree,2024-03-06_14h28.35.176,CRL1h,2023.2.3,Win32,59.88023952,65e67470ae2fbf2172c317b2,65e87d72e5d71ae9900ad0f5,,,,,,,,,,,775.8863,0.9,776.7852,776.7853,777.5358,right,1,0.739,,777.5359,778.5348,5,5,85,5,1,partial,1,images/Ex6.jpg,right,training,hard,3,,,,,
,,,,,614618f3146cc85f803c4e69,001,36,Female,English,BA Degree,2024-03-06_14h28.35.176,CRL1h,2023.2.3,Win32,59.88023952,65e67470ae2fbf2172c317b2,65e87d72e5d71ae9900ad0f5,,,,,,,,,,,778.5358,1.4,779.9344,779.9345,780.6516,right,0,0.7135,,780.6516,781.6508,5,6,86,3,1,partial,1,images/Ex4.jpg,left,training,hard,3,,,,,
,,,,,614618f3146cc85f803c4e69,001,36,Female,English,BA Degree,2024-03-06_14h28.35.176,CRL1h,2023.2.3,Win32,59.88023952,65e67470ae2fbf2172c317b2,65e87d72e5d71ae9900ad0f5,,,,,,,,,,,781.6518,0.6,782.2508,782.251,783.1841,left,1,0.9246,,783.1841,784.1834,5,7,87,10,1,partial,1,images/Ex3.jpg,left,training,hard,3,,,,,
,,,,,614618f3146cc85f803c4e69,001,36,Female,English,BA Degree,2024-03-06_14h28.35.176,CRL1h,2023.2.3,Win32,59.88023952,65e67470ae2fbf2172c317b2,65e87d72e5d71ae9900ad0f5,,,,,,,,,,,784.1845,1.3,785.4833,785.4833,786.2509,left,1,0.7657,,786.2509,787.2495,5,8,88,2,1,partial,1,images/Ex3.jpg,left,training,hard,3,,,,,
,,,,,614618f3146cc85f803c4e69,001,36,Female,English,BA Degree,2024-03-06_14h28.35.176,CRL1h,2023.2.3,Win32,59.88023952,65e67470ae2fbf2172c317b2,65e87d72e5d71ae9900ad0f5,,,,,,,,,,,787.2511,0.6,787.8493,787.8494,789.1332,left,0,1.2721,,789.1332,790.1322,5,9,89,15,1,partial,1,images/Ex8.jpg,right,training,hard,3,,,,,
,,,,,614618f3146cc85f803c4e69,001,36,Female,English,BA Degree,2024-03-06_14h28.35.176,CRL1h,2023.2.3,Win32,59.88023952,65e67470ae2fbf2172c317b2,65e87d72e5d71ae9900ad0f5,,,,,,,,,,,790.133,1.4,791.5318,791.5319,792.3825,left,1,0.8392,,792.3826,793.3814,5,10,90,1,1,partial,1,images/Ex2.jpg,left,training,hard,3,,,,,
,,,,,614618f3146cc85f803c4e69,001,36,Female,English,BA Degree,2024-03-06_14h28.35.176,CRL1h,2023.2.3,Win32,59.88023952,65e67470ae2fbf2172c317b2,65e87d72e5d71ae9900ad0f5,,,,,,,,,,,793.3823,1.1,794.4812,794.4812,795.365,right,0,0.8727,,795.3651,796.3641,5,11,91,0,1,partial,1,images/Ex1.jpg,left,training,hard,3,,,,,
,,,,,614618f3146cc85f803c4e69,001,36,Female,English,BA Degree,2024-03-06_14h28.35.176,CRL1h,2023.2.3,Win32,59.88023952,65e67470ae2fbf2172c317b2,65e87d72e5d71ae9900ad0f5,,,,,,,,,,,796.3649,0.6,796.964,796.9641,797.9816,left,1,1.01,,797.9817,798.9802,5,12,92,11,1,partial,1,images/Ex4.jpg,left,training,hard,3,,,,,
,,,,,614618f3146cc85f803c4e69,001,36,Female,English,BA Degree,2024-03-06_14h28.35.176,CRL1h,2023.2.3,Win32,59.88023952,65e67470ae2fbf2172c317b2,65e87d72e5d71ae9900ad0f5,,,,,,,,,,,798.9824,1.2,800.1817,800.1818,801.1816,left,0,0.9979,,801.1817,802.1795,5,13,93,14,1,partial,1,images/Ex7.jpg,right,training,hard,3,,,,,
,,,,,614618f3146cc85f803c4e69,001,36,Female,English,BA Degree,2024-03-06_14h28.35.176,CRL1h,2023.2.3,Win32,59.88023952,65e67470ae2fbf2172c317b2,65e87d72e5d71ae9900ad0f5,,,,,,,,,,,802.1809,0.8,802.9792,802.9792,804.7962,right,1,1.8053,,804.7963,805.7952,5,14,94,7,1,partial,1,images/Ex8.jpg,right,training,hard,3,,,,,
,,,,,614618f3146cc85f803c4e69,001,36,Female,English,BA Degree,2024-03-06_14h28.35.176,CRL1h,2023.2.3,Win32,59.88023952,65e67470ae2fbf2172c317b2,65e87d72e5d71ae9900ad0f5,,,,,,,,,,,805.7961,0.7,806.4951,806.4952,807.3455,right,1,0.8385,,807.3457,808.3447,5,15,95,6,1,partial,1,images/Ex7.jpg,right,training,hard,3,,,,,
,,,,,614618f3146cc85f803c4e69,001,36,Female,English,BA Degree,2024-03-06_14h28.35.176,CRL1h,2023.2.3,Win32,59.88023952,65e67470ae2fbf2172c317b2,65e87d72e5d71ae9900ad0f5,,,,,,,,,,,808.3461,1.2,809.5444,809.5444,810.1951,right,1,0.6466,,810.1951,811.194,6,0,96,12,1,partial,1,images/Ex5.jpg,right,training,hard,3,,,,,
,,,,,614618f3146cc85f803c4e69,001,36,Female,English,BA Degree,2024-03-06_14h28.35.176,CRL1h,2023.2.3,Win32,59.88023952,65e67470ae2fbf2172c317b2,65e87d72e5d71ae9900ad0f5,,,,,,,,,,,811.1948,1.1,812.2938,812.2939,813.261,left,1,0.9625,,813.261,814.2601,6,1,97,1,1,partial,1,images/Ex2.jpg,left,training,hard,3,,,,,
,,,,,614618f3146cc85f803c4e69,001,36,Female,English,BA Degree,2024-03-06_14h28.35.176,CRL1h,2023.2.3,Win32,59.88023952,65e67470ae2fbf2172c317b2,65e87d72e5d71ae9900ad0f5,,,,,,,,,,,814.2616,0.8,815.0597,815.0598,815.8606,left,0,0.7883,,815.861,816.8593,6,2,98,4,1,partial,1,images/Ex5.jpg,right,training,hard,3,,,,,
,,,,,614618f3146cc85f803c4e69,001,36,Female,English,BA Degree,2024-03-06_14h28.35.176,CRL1h,2023.2.3,Win32,59.88023952,65e67470ae2fbf2172c317b2,65e87d72e5d71ae9900ad0f5,,,,,,,,,,,816.8607,1.2,818.0592,818.0593,818.8455,left,1,0.7772,,818.8457,819.842,6,3,99,2,1,partial,1,images/Ex3.jpg,left,training,hard,3,,,,,
,,,,,614618f3146cc85f803c4e69,001,36,Female,English,BA Degree,2024-03-06_14h28.35.176,CRL1h,2023.2.3,Win32,59.88023952,65e67470ae2fbf2172c317b2,65e87d72e5d71ae9900ad0f5,,,,,,,,,,,819.8434,0.6,820.4419,820.442,820.8421,left,1,0.3883,,820.8422,821.8416,6,4,100,0,1,partial,1,images/Ex1.jpg,left,training,hard,3,,,,,
,,,,,614618f3146cc85f803c4e69,001,36,Female,English,BA Degree,2024-03-06_14h28.35.176,CRL1h,2023.2.3,Win32,59.88023952,65e67470ae2fbf2172c317b2,65e87d72e5d71ae9900ad0f5,,,,,,,,,,,821.8427,1.1,822.9415,822.9415,823.242,right,0,0.2962,,823.2422,824.2411,6,5,101,9,1,partial,1,images/Ex2.jpg,left,training,hard,3,,,,,
,,,,,614618f3146cc85f803c4e69,001,36,Female,English,BA Degree,2024-03-06_14h28.35.176,CRL1h,2023.2.3,Win32,59.88023952,65e67470ae2fbf2172c317b2,65e87d72e5d71ae9900ad0f5,,,,,,,,,,,824.2421,1.5,825.7409,825.741,826.4248,right,0,0.6747,,826.4248,827.4237,6,6,102,10,1,partial,1,images/Ex3.jpg,left,training,hard,3,,,,,
,,,,,614618f3146cc85f803c4e69,001,36,Female,English,BA Degree,2024-03-06_14h28.35.176,CRL1h,2023.2.3,Win32,59.88023952,65e67470ae2fbf2172c317b2,65e87d72e5d71ae9900ad0f5,,,,,,,,,,,827.4245,1.2,828.6233,828.6234,829.474,left,0,0.8393,,829.474,830.473,6,7,103,15,1,partial,1,images/Ex8.jpg,right,training,hard,3,,,,,
,,,,,614618f3146cc85f803c4e69,001,36,Female,English,BA Degree,2024-03-06_14h28.35.176,CRL1h,2023.2.3,Win32,59.88023952,65e67470ae2fbf2172c317b2,65e87d72e5d71ae9900ad0f5,,,,,,,,,,,830.4739,0.6,831.0729,831.0729,831.8396,right,0,0.7556,,831.8402,832.8392,6,8,104,3,1,partial,1,images/Ex4.jpg,left,training,hard,3,,,,,
,,,,,614618f3146cc85f803c4e69,001,36,Female,English,BA Degree,2024-03-06_14h28.35.176,CRL1h,2023.2.3,Win32,59.88023952,65e67470ae2fbf2172c317b2,65e87d72e5d71ae9900ad0f5,,,,,,,,,,,832.8404,0.6,833.4391,833.4391,834.3391,right,1,0.8873,,834.3391,835.3386,6,9,105,14,1,partial,1,images/Ex7.jpg,right,training,hard,3,,,,,
,,,,,614618f3146cc85f803c4e69,001,36,Female,English,BA Degree,2024-03-06_14h28.35.176,CRL1h,2023.2.3,Win32,59.88023952,65e67470ae2fbf2172c317b2,65e87d72e5d71ae9900ad0f5,,,,,,,,,,,835.3395,0.7,836.0384,836.0384,837.4056,right,1,1.3614,,837.4057,838.4045,6,10,106,13,1,partial,1,images/Ex6.jpg,right,training,hard,3,,,,,
,,,,,614618f3146cc85f803c4e69,001,36,Female,English,BA Degree,2024-03-06_14h28.35.176,CRL1h,2023.2.3,Win32,59.88023952,65e67470ae2fbf2172c317b2,65e87d72e5d71ae9900ad0f5,,,,,,,,,,,838.417,1,839.4216,839.4218,840.0883,right,1,0.6539,,840.0883,841.0873,6,11,107,6,1,partial,1,images/Ex7.jpg,right,training,hard,3,,,,,
,,,,,614618f3146cc85f803c4e69,001,36,Female,English,BA Degree,2024-03-06_14h28.35.176,CRL1h,2023.2.3,Win32,59.88023952,65e67470ae2fbf2172c317b2,65e87d72e5d71ae9900ad0f5,,,,,,,,,,,841.088,1.3,842.387,842.387,843.2375,left,0,0.8414,,843.2376,844.2365,6,12,108,5,1,partial,1,images/Ex6.jpg,right,training,hard,3,,,,,
,,,,,614618f3146cc85f803c4e69,001,36,Female,English,BA Degree,2024-03-06_14h28.35.176,CRL1h,2023.2.3,Win32,59.88023952,65e67470ae2fbf2172c317b2,65e87d72e5d71ae9900ad0f5,,,,,,,,,,,844.2376,1.4,845.6361,845.6362,846.6701,right,1,1.0223,,846.6703,847.6693,6,13,109,7,1,partial,1,images/Ex8.jpg,right,training,hard,3,,,,,
,,,,,614618f3146cc85f803c4e69,001,36,Female,English,BA Degree,2024-03-06_14h28.35.176,CRL1h,2023.2.3,Win32,59.88023952,65e67470ae2fbf2172c317b2,65e87d72e5d71ae9900ad0f5,,,,,,,,,,,847.6706,1.1,848.7689,848.7689,849.5193,right,0,0.7426,,849.5193,850.5184,6,14,110,8,1,partial,1,images/Ex1.jpg,left,training,hard,3,,,,,
,,,,,614618f3146cc85f803c4e69,001,36,Female,English,BA Degree,2024-03-06_14h28.35.176,CRL1h,2023.2.3,Win32,59.88023952,65e67470ae2fbf2172c317b2,65e87d72e5d71ae9900ad0f5,,,,,,,,,,,850.5195,1.1,851.6182,851.6182,852.0516,right,0,0.4215,,852.0518,853.0513,6,15,111,11,1,partial,1,images/Ex4.jpg,left,training,hard,3,,,,,
,,,,,614618f3146cc85f803c4e69,001,36,Female,English,BA Degree,2024-03-06_14h28.35.176,CRL1h,2023.2.3,Win32,59.88023952,65e67470ae2fbf2172c317b2,65e87d72e5d71ae9900ad0f5,,,,,,,,,,,853.0526,0.6,853.6511,853.6512,855.4848,left,0,1.824,,855.4848,856.4838,7,0,112,13,1,partial,1,images/Ex6.jpg,right,training,hard,3,,,,,
,,,,,614618f3146cc85f803c4e69,001,36,Female,English,BA Degree,2024-03-06_14h28.35.176,CRL1h,2023.2.3,Win32,59.88023952,65e67470ae2fbf2172c317b2,65e87d72e5d71ae9900ad0f5,,,,,,,,,,,856.4966,0.6,857.1005,857.1005,859.3167,left,1,2.2105,,859.3167,860.3163,7,1,113,1,1,partial,1,images/Ex2.jpg,left,training,hard,3,,,,,
,,,,,614618f3146cc85f803c4e69,001,36,Female,English,BA Degree,2024-03-06_14h28.35.176,CRL1h,2023.2.3,Win32,59.88023952,65e67470ae2fbf2172c317b2,65e87d72e5d71ae9900ad0f5,,,,,,,,,,,860.3172,0.9,861.216,861.216,862.9661,left,0,1.7434,,862.9661,863.9654,7,2,114,12,1,partial,1,images/Ex5.jpg,right,training,hard,3,,,,,
,,,,,614618f3146cc85f803c4e69,001,36,Female,English,BA Degree,2024-03-06_14h28.35.176,CRL1h,2023.2.3,Win32,59.88023952,65e67470ae2fbf2172c317b2,65e87d72e5d71ae9900ad0f5,,,,,,,,,,,863.9664,0.8,864.7651,864.7652,865.633,right,0,0.8651,,865.633,866.6314,7,3,115,11,1,partial,1,images/Ex4.jpg,left,training,hard,3,,,,,
,,,,,614618f3146cc85f803c4e69,001,36,Female,English,BA Degree,2024-03-06_14h28.35.176,CRL1h,2023.2.3,Win32,59.88023952,65e67470ae2fbf2172c317b2,65e87d72e5d71ae9900ad0f5,,,,,,,,,,,866.6328,0.9,867.5313,867.5314,868.6817,right,1,1.1393,,868.6817,869.6808,7,4,116,5,1,partial,1,images/Ex6.jpg,right,training,hard,3,,,,,
,,,,,614618f3146cc85f803c4e69,001,36,Female,English,BA Degree,2024-03-06_14h28.35.176,CRL1h,2023.2.3,Win32,59.88023952,65e67470ae2fbf2172c317b2,65e87d72e5d71ae9900ad0f5,,,,,,,,,,,869.6819,0.9,870.5806,870.5807,871.0808,left,0,0.4886,,871.0808,872.0802,7,5,117,4,1,partial,1,images/Ex5.jpg,right,training,hard,3,,,,,
,,,,,614618f3146cc85f803c4e69,001,36,Female,English,BA Degree,2024-03-06_14h28.35.176,CRL1h,2023.2.3,Win32,59.88023952,65e67470ae2fbf2172c317b2,65e87d72e5d71ae9900ad0f5,,,,,,,,,,,872.082,0.7,872.78,872.78,873.3968,right,0,0.6072,,873.3969,874.3964,7,6,118,10,1,partial,1,images/Ex3.jpg,left,training,hard,3,,,,,
,,,,,614618f3146cc85f803c4e69,001,36,Female,English,BA Degree,2024-03-06_14h28.35.176,CRL1h,2023.2.3,Win32,59.88023952,65e67470ae2fbf2172c317b2,65e87d72e5d71ae9900ad0f5,,,,,,,,,,,874.3975,1.5,875.8959,875.8959,876.28,right,0,0.3765,,876.28,877.279,7,7,119,9,1,partial,1,images/Ex2.jpg,left,training,hard,3,,,,,
,,,,,614618f3146cc85f803c4e69,001,36,Female,English,BA Degree,2024-03-06_14h28.35.176,CRL1h,2023.2.3,Win32,59.88023952,65e67470ae2fbf2172c317b2,65e87d72e5d71ae9900ad0f5,,,,,,,,,,,877.2803,0.8,878.0788,878.0788,878.779,right,1,0.6905,,878.7792,879.7784,7,8,120,14,1,partial,1,images/Ex7.jpg,right,training,hard,3,,,,,
,,,,,614618f3146cc85f803c4e69,001,36,Female,English,BA Degree,2024-03-06_14h28.35.176,CRL1h,2023.2.3,Win32,59.88023952,65e67470ae2fbf2172c317b2,65e87d72e5d71ae9900ad0f5,,,,,,,,,,,879.7795,1.4,881.1782,881.1782,881.6954,left,0,0.5115,,881.6955,882.6943,7,9,121,7,1,partial,1,images/Ex8.jpg,right,training,hard,3,,,,,
