infCons.started,infCons.stopped,resp_consent.keys,resp_consent.rt,resp_consent.duration,participant,session,Age?,Gender?,Nationality?,Highest Educational Degree?,date,expName,psychopyVersion,OS,frameRate,STUDY_ID,SESSION_ID,instructions.started,instructions.stopped,resp_instructions.keys,resp_instructions.rt,resp_instructions.duration,nextTask.started,nextTask.stopped,ready_task.keys,ready_task.rt,ready_task.duration,fixation.started,ITI,fixation.stopped,stim.started,stim.stopped,response.keys,response.corr,response.rt,response.duration,feedback.started,feedback.stopped,trials.thisRepN,trials.thisTrialN,trials.thisN,trials.thisIndex,trials.ran,task,phase,Exemplars,r_correct,condition,difficulty,set,end.started,end.stopped,resp_end.keys,resp_end.rt,resp_end.duration
0.0005,8.4317,space,8.4127,,632c78dac01ee4ebd60f742c,001,23,Male,Nigeria,Bachelor,2024-03-06_16h06.00.264,CRL1h,2023.2.3,Win32,60.24096386,65e67470ae2fbf2172c317b2,65e885b3f0a2707eef3dc1a2,,,,,,,,,,,,,,,,,,,,,,,,,,,,,,,,,,,,,,
,,,,,632c78dac01ee4ebd60f742c,001,23,Male,Nigeria,Bachelor,2024-03-06_16h06.00.264,CRL1h,2023.2.3,Win32,60.24096386,65e67470ae2fbf2172c317b2,65e885b3f0a2707eef3dc1a2,8.4321,72.395,space,63.949,,,,,,,,,,,,,,,,,,,,,,,,,,,,,,,,,,
,,,,,632c78dac01ee4ebd60f742c,001,23,Male,Nigeria,Bachelor,2024-03-06_16h06.00.264,CRL1h,2023.2.3,Win32,60.24096386,65e67470ae2fbf2172c317b2,65e885b3f0a2707eef3dc1a2,,,,,,72.4185,78.6367,space,6.1998,,78.6976,0.7,79.4016,79.4021,95.5596,right,0,16.1168,,95.5778,96.5579,0,0,0,10,1,total,1,images/Ex11.jpg,left,training,hard,4,,,,,
,,,,,632c78dac01ee4ebd60f742c,001,23,Male,Nigeria,Bachelor,2024-03-06_16h06.00.264,CRL1h,2023.2.3,Win32,60.24096386,65e67470ae2fbf2172c317b2,65e885b3f0a2707eef3dc1a2,,,,,,,,,,,96.5612,1.1,97.6549,97.655,100.3345,left,0,2.676,,100.3348,101.3329,0,1,1,7,1,total,1,images/Ex16.jpg,right,training,hard,4,,,,,
,,,,,632c78dac01ee4ebd60f742c,001,23,Male,Nigeria,Bachelor,2024-03-06_16h06.00.264,CRL1h,2023.2.3,Win32,60.24096386,65e67470ae2fbf2172c317b2,65e885b3f0a2707eef3dc1a2,,,,,,,,,,,101.3344,0.7,102.0353,102.0353,102.9811,left,1,0.9438,,102.9812,103.9786,0,2,2,9,1,total,1,images/Ex10.jpg,left,training,hard,4,,,,,
,,,,,632c78dac01ee4ebd60f742c,001,23,Male,Nigeria,Bachelor,2024-03-06_16h06.00.264,CRL1h,2023.2.3,Win32,60.24096386,65e67470ae2fbf2172c317b2,65e885b3f0a2707eef3dc1a2,,,,,,,,,,,103.9798,1.5,105.4765,105.4766,108.0722,left,1,2.5836,,108.0723,109.0705,0,3,3,8,1,total,1,images/Ex9.jpg,left,training,hard,4,,,,,
,,,,,632c78dac01ee4ebd60f742c,001,23,Male,Nigeria,Bachelor,2024-03-06_16h06.00.264,CRL1h,2023.2.3,Win32,60.24096386,65e67470ae2fbf2172c317b2,65e885b3f0a2707eef3dc1a2,,,,,,,,,,,109.0849,1.3,110.3852,110.3852,112.7815,right,1,2.3836,,112.7816,113.7799,0,4,4,13,1,total,1,images/Ex14.jpg,right,training,hard,4,,,,,
,,,,,632c78dac01ee4ebd60f742c,001,23,Male,Nigeria,Bachelor,2024-03-06_16h06.00.264,CRL1h,2023.2.3,Win32,60.24096386,65e67470ae2fbf2172c317b2,65e885b3f0a2707eef3dc1a2,,,,,,,,,,,113.7924,1.3,115.098,115.098,116.4645,right,1,1.3646,,116.4646,117.4575,0,5,5,4,1,total,1,images/Ex13.jpg,right,training,hard,4,,,,,
,,,,,632c78dac01ee4ebd60f742c,001,23,Male,Nigeria,Bachelor,2024-03-06_16h06.00.264,CRL1h,2023.2.3,Win32,60.24096386,65e67470ae2fbf2172c317b2,65e885b3f0a2707eef3dc1a2,,,,,,,,,,,117.4586,1.2,118.6598,118.6599,119.6211,left,1,0.9584,,119.6212,120.6199,0,6,6,0,1,total,1,images/Ex9.jpg,left,training,hard,4,,,,,
,,,,,632c78dac01ee4ebd60f742c,001,23,Male,Nigeria,Bachelor,2024-03-06_16h06.00.264,CRL1h,2023.2.3,Win32,60.24096386,65e67470ae2fbf2172c317b2,65e885b3f0a2707eef3dc1a2,,,,,,,,,,,120.6211,1.5,122.1169,122.1169,123.3153,right,1,1.1943,,123.3154,124.3141,0,7,7,6,1,total,1,images/Ex15.jpg,right,training,hard,4,,,,,
,,,,,632c78dac01ee4ebd60f742c,001,23,Male,Nigeria,Bachelor,2024-03-06_16h06.00.264,CRL1h,2023.2.3,Win32,60.24096386,65e67470ae2fbf2172c317b2,65e885b3f0a2707eef3dc1a2,,,,,,,,,,,124.3152,1.4,125.7116,125.7116,126.9107,left,0,1.1873,,126.9108,127.908,0,8,8,5,1,total,1,images/Ex14.jpg,right,training,hard,4,,,,,
,,,,,632c78dac01ee4ebd60f742c,001,23,Male,Nigeria,Bachelor,2024-03-06_16h06.00.264,CRL1h,2023.2.3,Win32,60.24096386,65e67470ae2fbf2172c317b2,65e885b3f0a2707eef3dc1a2,,,,,,,,,,,127.9086,0.6,128.5123,128.5123,129.5592,right,1,1.0404,,129.5593,130.5541,0,9,9,12,1,total,1,images/Ex13.jpg,right,training,hard,4,,,,,
,,,,,632c78dac01ee4ebd60f742c,001,23,Male,Nigeria,Bachelor,2024-03-06_16h06.00.264,CRL1h,2023.2.3,Win32,60.24096386,65e67470ae2fbf2172c317b2,65e885b3f0a2707eef3dc1a2,,,,,,,,,,,130.5551,1,131.5529,131.553,132.4867,right,0,0.9217,,132.4869,133.4831,0,10,10,1,1,total,1,images/Ex10.jpg,left,training,hard,4,,,,,
,,,,,632c78dac01ee4ebd60f742c,001,23,Male,Nigeria,Bachelor,2024-03-06_16h06.00.264,CRL1h,2023.2.3,Win32,60.24096386,65e67470ae2fbf2172c317b2,65e885b3f0a2707eef3dc1a2,,,,,,,,,,,133.4842,0.9,134.3815,134.3815,135.2977,right,0,0.9101,,135.2977,136.2953,0,11,11,11,1,total,1,images/Ex12.jpg,left,training,hard,4,,,,,
,,,,,632c78dac01ee4ebd60f742c,001,23,Male,Nigeria,Bachelor,2024-03-06_16h06.00.264,CRL1h,2023.2.3,Win32,60.24096386,65e67470ae2fbf2172c317b2,65e885b3f0a2707eef3dc1a2,,,,,,,,,,,136.2964,1.3,137.5962,137.5964,139.0745,left,1,1.465,,139.0747,140.0771,0,12,12,3,1,total,1,images/Ex12.jpg,left,training,hard,4,,,,,
,,,,,632c78dac01ee4ebd60f742c,001,23,Male,Nigeria,Bachelor,2024-03-06_16h06.00.264,CRL1h,2023.2.3,Win32,60.24096386,65e67470ae2fbf2172c317b2,65e885b3f0a2707eef3dc1a2,,,,,,,,,,,140.1049,1.3,141.4041,141.4042,144.0671,left,1,2.6554,,144.0672,145.0648,0,13,13,2,1,total,1,images/Ex11.jpg,left,training,hard,4,,,,,
,,,,,632c78dac01ee4ebd60f742c,001,23,Male,Nigeria,Bachelor,2024-03-06_16h06.00.264,CRL1h,2023.2.3,Win32,60.24096386,65e67470ae2fbf2172c317b2,65e885b3f0a2707eef3dc1a2,,,,,,,,,,,145.0829,0.5,145.5812,145.5813,146.8634,left,0,1.2714,,146.8635,147.8664,0,14,14,14,1,total,1,images/Ex15.jpg,right,training,hard,4,,,,,
,,,,,632c78dac01ee4ebd60f742c,001,23,Male,Nigeria,Bachelor,2024-03-06_16h06.00.264,CRL1h,2023.2.3,Win32,60.24096386,65e67470ae2fbf2172c317b2,65e885b3f0a2707eef3dc1a2,,,,,,,,,,,147.9051,0.8,148.6926,148.6927,149.7954,right,1,1.1009,,149.7954,150.7938,0,15,15,15,1,total,1,images/Ex16.jpg,right,training,hard,4,,,,,
,,,,,632c78dac01ee4ebd60f742c,001,23,Male,Nigeria,Bachelor,2024-03-06_16h06.00.264,CRL1h,2023.2.3,Win32,60.24096386,65e67470ae2fbf2172c317b2,65e885b3f0a2707eef3dc1a2,,,,,,,,,,,150.7942,1.4,152.1869,152.1869,153.1236,right,1,0.9349,,153.1236,154.121,1,0,16,6,1,total,1,images/Ex15.jpg,right,training,hard,4,,,,,
,,,,,632c78dac01ee4ebd60f742c,001,23,Male,Nigeria,Bachelor,2024-03-06_16h06.00.264,CRL1h,2023.2.3,Win32,60.24096386,65e67470ae2fbf2172c317b2,65e885b3f0a2707eef3dc1a2,,,,,,,,,,,154.1214,1.4,155.5164,155.5165,156.919,left,1,1.3991,,156.919,157.9157,1,1,17,0,1,total,1,images/Ex9.jpg,left,training,hard,4,,,,,
,,,,,632c78dac01ee4ebd60f742c,001,23,Male,Nigeria,Bachelor,2024-03-06_16h06.00.264,CRL1h,2023.2.3,Win32,60.24096386,65e67470ae2fbf2172c317b2,65e885b3f0a2707eef3dc1a2,,,,,,,,,,,157.9281,0.7,158.6271,158.6272,159.6638,right,1,1.0348,,159.6638,160.6579,1,2,18,14,1,total,1,images/Ex15.jpg,right,training,hard,4,,,,,
,,,,,632c78dac01ee4ebd60f742c,001,23,Male,Nigeria,Bachelor,2024-03-06_16h06.00.264,CRL1h,2023.2.3,Win32,60.24096386,65e67470ae2fbf2172c317b2,65e885b3f0a2707eef3dc1a2,,,,,,,,,,,160.6592,0.7,161.3567,161.3568,162.1768,right,1,0.8181,,162.1768,163.1741,1,3,19,12,1,total,1,images/Ex13.jpg,right,training,hard,4,,,,,
,,,,,632c78dac01ee4ebd60f742c,001,23,Male,Nigeria,Bachelor,2024-03-06_16h06.00.264,CRL1h,2023.2.3,Win32,60.24096386,65e67470ae2fbf2172c317b2,65e885b3f0a2707eef3dc1a2,,,,,,,,,,,163.1745,0.8,163.9708,163.9708,164.7526,right,1,0.77,,164.7528,165.75,1,4,20,4,1,total,1,images/Ex13.jpg,right,training,hard,4,,,,,
,,,,,632c78dac01ee4ebd60f742c,001,23,Male,Nigeria,Bachelor,2024-03-06_16h06.00.264,CRL1h,2023.2.3,Win32,60.24096386,65e67470ae2fbf2172c317b2,65e885b3f0a2707eef3dc1a2,,,,,,,,,,,165.7512,0.5,166.2526,166.2526,167.4651,left,1,1.1988,,167.4651,168.4671,1,5,21,10,1,total,1,images/Ex11.jpg,left,training,hard,4,,,,,
,,,,,632c78dac01ee4ebd60f742c,001,23,Male,Nigeria,Bachelor,2024-03-06_16h06.00.264,CRL1h,2023.2.3,Win32,60.24096386,65e67470ae2fbf2172c317b2,65e885b3f0a2707eef3dc1a2,,,,,,,,,,,168.4676,1.1,169.561,169.5611,170.1456,right,1,0.5818,,170.1456,171.1469,1,6,22,7,1,total,1,images/Ex16.jpg,right,training,hard,4,,,,,
,,,,,632c78dac01ee4ebd60f742c,001,23,Male,Nigeria,Bachelor,2024-03-06_16h06.00.264,CRL1h,2023.2.3,Win32,60.24096386,65e67470ae2fbf2172c317b2,65e885b3f0a2707eef3dc1a2,,,,,,,,,,,171.1486,1.2,172.3394,172.3394,172.8433,right,1,0.5018,,172.8433,173.8369,1,7,23,15,1,total,1,images/Ex16.jpg,right,training,hard,4,,,,,
,,,,,632c78dac01ee4ebd60f742c,001,23,Male,Nigeria,Bachelor,2024-03-06_16h06.00.264,CRL1h,2023.2.3,Win32,60.24096386,65e67470ae2fbf2172c317b2,65e885b3f0a2707eef3dc1a2,,,,,,,,,,,173.8378,1.3,175.1349,175.1351,175.7021,left,1,0.5594,,175.7023,176.7033,1,8,24,2,1,total,1,images/Ex11.jpg,left,training,hard,4,,,,,
,,,,,632c78dac01ee4ebd60f742c,001,23,Male,Nigeria,Bachelor,2024-03-06_16h06.00.264,CRL1h,2023.2.3,Win32,60.24096386,65e67470ae2fbf2172c317b2,65e885b3f0a2707eef3dc1a2,,,,,,,,,,,176.7039,0.8,177.4987,177.4987,178.134,right,1,0.6335,,178.1341,179.129,1,9,25,13,1,total,1,images/Ex14.jpg,right,training,hard,4,,,,,
,,,,,632c78dac01ee4ebd60f742c,001,23,Male,Nigeria,Bachelor,2024-03-06_16h06.00.264,CRL1h,2023.2.3,Win32,60.24096386,65e67470ae2fbf2172c317b2,65e885b3f0a2707eef3dc1a2,,,,,,,,,,,179.13,1.4,180.5269,180.527,180.9776,right,0,0.4445,,180.9776,181.9747,1,10,26,1,1,total,1,images/Ex10.jpg,left,training,hard,4,,,,,
,,,,,632c78dac01ee4ebd60f742c,001,23,Male,Nigeria,Bachelor,2024-03-06_16h06.00.264,CRL1h,2023.2.3,Win32,60.24096386,65e67470ae2fbf2172c317b2,65e885b3f0a2707eef3dc1a2,,,,,,,,,,,181.976,0.8,182.7777,182.7778,183.3402,left,1,0.5529,,183.3403,184.3374,1,11,27,11,1,total,1,images/Ex12.jpg,left,training,hard,4,,,,,
,,,,,632c78dac01ee4ebd60f742c,001,23,Male,Nigeria,Bachelor,2024-03-06_16h06.00.264,CRL1h,2023.2.3,Win32,60.24096386,65e67470ae2fbf2172c317b2,65e885b3f0a2707eef3dc1a2,,,,,,,,,,,184.338,1.5,185.8353,185.8354,186.5514,left,1,0.71,,186.5516,187.5498,1,12,28,8,1,total,1,images/Ex9.jpg,left,training,hard,4,,,,,
,,,,,632c78dac01ee4ebd60f742c,001,23,Male,Nigeria,Bachelor,2024-03-06_16h06.00.264,CRL1h,2023.2.3,Win32,60.24096386,65e67470ae2fbf2172c317b2,65e885b3f0a2707eef3dc1a2,,,,,,,,,,,187.551,1.3,188.8477,188.8478,189.53,right,1,0.6738,,189.5301,190.5285,1,13,29,5,1,total,1,images/Ex14.jpg,right,training,hard,4,,,,,
,,,,,632c78dac01ee4ebd60f742c,001,23,Male,Nigeria,Bachelor,2024-03-06_16h06.00.264,CRL1h,2023.2.3,Win32,60.24096386,65e67470ae2fbf2172c317b2,65e885b3f0a2707eef3dc1a2,,,,,,,,,,,190.53,0.6,191.1269,191.1271,192.026,right,0,0.8868,,192.0262,193.0242,1,14,30,3,1,total,1,images/Ex12.jpg,left,training,hard,4,,,,,
,,,,,632c78dac01ee4ebd60f742c,001,23,Male,Nigeria,Bachelor,2024-03-06_16h06.00.264,CRL1h,2023.2.3,Win32,60.24096386,65e67470ae2fbf2172c317b2,65e885b3f0a2707eef3dc1a2,,,,,,,,,,,193.0249,0.8,193.8231,193.8231,194.8433,right,0,1.0176,,194.8434,195.8368,1,15,31,9,1,total,1,images/Ex10.jpg,left,training,hard,4,,,,,
,,,,,632c78dac01ee4ebd60f742c,001,23,Male,Nigeria,Bachelor,2024-03-06_16h06.00.264,CRL1h,2023.2.3,Win32,60.24096386,65e67470ae2fbf2172c317b2,65e885b3f0a2707eef3dc1a2,,,,,,,,,,,195.8381,1,196.8351,196.8352,197.6214,left,0,0.7835,,197.6215,198.6157,2,0,32,14,1,total,1,images/Ex15.jpg,right,training,hard,4,,,,,
,,,,,632c78dac01ee4ebd60f742c,001,23,Male,Nigeria,Bachelor,2024-03-06_16h06.00.264,CRL1h,2023.2.3,Win32,60.24096386,65e67470ae2fbf2172c317b2,65e885b3f0a2707eef3dc1a2,,,,,,,,,,,198.6167,0.5,199.1145,199.1147,200.4516,right,0,1.3345,,200.4518,201.4443,2,1,33,3,1,total,1,images/Ex12.jpg,left,training,hard,4,,,,,
,,,,,632c78dac01ee4ebd60f742c,001,23,Male,Nigeria,Bachelor,2024-03-06_16h06.00.264,CRL1h,2023.2.3,Win32,60.24096386,65e67470ae2fbf2172c317b2,65e885b3f0a2707eef3dc1a2,,,,,,,,,,,201.4456,1.2,202.6424,202.6426,203.4756,left,1,0.8288,,203.4757,204.4738,2,2,34,8,1,total,1,images/Ex9.jpg,left,training,hard,4,,,,,
,,,,,632c78dac01ee4ebd60f742c,001,23,Male,Nigeria,Bachelor,2024-03-06_16h06.00.264,CRL1h,2023.2.3,Win32,60.24096386,65e67470ae2fbf2172c317b2,65e885b3f0a2707eef3dc1a2,,,,,,,,,,,204.4744,0.5,204.977,204.977,206.088,right,1,1.1013,,206.088,207.0863,2,3,35,7,1,total,1,images/Ex16.jpg,right,training,hard,4,,,,,
,,,,,632c78dac01ee4ebd60f742c,001,23,Male,Nigeria,Bachelor,2024-03-06_16h06.00.264,CRL1h,2023.2.3,Win32,60.24096386,65e67470ae2fbf2172c317b2,65e885b3f0a2707eef3dc1a2,,,,,,,,,,,207.0873,1.3,208.3836,208.3836,209.0035,left,0,0.618,,209.0036,209.9983,2,4,36,6,1,total,1,images/Ex15.jpg,right,training,hard,4,,,,,
,,,,,632c78dac01ee4ebd60f742c,001,23,Male,Nigeria,Bachelor,2024-03-06_16h06.00.264,CRL1h,2023.2.3,Win32,60.24096386,65e67470ae2fbf2172c317b2,65e885b3f0a2707eef3dc1a2,,,,,,,,,,,209.9993,1.2,211.1962,211.1962,211.7166,right,1,0.5183,,211.7166,212.7161,2,5,37,15,1,total,1,images/Ex16.jpg,right,training,hard,4,,,,,
,,,,,632c78dac01ee4ebd60f742c,001,23,Male,Nigeria,Bachelor,2024-03-06_16h06.00.264,CRL1h,2023.2.3,Win32,60.24096386,65e67470ae2fbf2172c317b2,65e885b3f0a2707eef3dc1a2,,,,,,,,,,,212.7169,1.4,214.1082,214.1082,214.9746,right,0,0.8571,,214.9746,215.9721,2,6,38,9,1,total,1,images/Ex10.jpg,left,training,hard,4,,,,,
,,,,,632c78dac01ee4ebd60f742c,001,23,Male,Nigeria,Bachelor,2024-03-06_16h06.00.264,CRL1h,2023.2.3,Win32,60.24096386,65e67470ae2fbf2172c317b2,65e885b3f0a2707eef3dc1a2,,,,,,,,,,,215.9733,0.7,216.6708,216.6709,217.4035,right,1,0.7222,,217.4037,218.4013,2,7,39,5,1,total,1,images/Ex14.jpg,right,training,hard,4,,,,,
,,,,,632c78dac01ee4ebd60f742c,001,23,Male,Nigeria,Bachelor,2024-03-06_16h06.00.264,CRL1h,2023.2.3,Win32,60.24096386,65e67470ae2fbf2172c317b2,65e885b3f0a2707eef3dc1a2,,,,,,,,,,,218.4025,0.9,219.3042,219.3042,219.9501,right,0,0.6425,,219.9501,220.9474,2,8,40,11,1,total,1,images/Ex12.jpg,left,training,hard,4,,,,,
,,,,,632c78dac01ee4ebd60f742c,001,23,Male,Nigeria,Bachelor,2024-03-06_16h06.00.264,CRL1h,2023.2.3,Win32,60.24096386,65e67470ae2fbf2172c317b2,65e885b3f0a2707eef3dc1a2,,,,,,,,,,,220.9488,1.2,222.146,222.146,222.7962,left,1,0.6435,,222.7963,223.7939,2,9,41,10,1,total,1,images/Ex11.jpg,left,training,hard,4,,,,,
,,,,,632c78dac01ee4ebd60f742c,001,23,Male,Nigeria,Bachelor,2024-03-06_16h06.00.264,CRL1h,2023.2.3,Win32,60.24096386,65e67470ae2fbf2172c317b2,65e885b3f0a2707eef3dc1a2,,,,,,,,,,,223.7958,1.3,225.0912,225.0912,226.2572,left,1,1.1558,,226.2573,227.2571,2,10,42,2,1,total,1,images/Ex11.jpg,left,training,hard,4,,,,,
,,,,,632c78dac01ee4ebd60f742c,001,23,Male,Nigeria,Bachelor,2024-03-06_16h06.00.264,CRL1h,2023.2.3,Win32,60.24096386,65e67470ae2fbf2172c317b2,65e885b3f0a2707eef3dc1a2,,,,,,,,,,,227.2583,0.7,227.9534,227.9535,229.1394,right,0,1.184,,229.1395,230.1337,2,11,43,0,1,total,1,images/Ex9.jpg,left,training,hard,4,,,,,
,,,,,632c78dac01ee4ebd60f742c,001,23,Male,Nigeria,Bachelor,2024-03-06_16h06.00.264,CRL1h,2023.2.3,Win32,60.24096386,65e67470ae2fbf2172c317b2,65e885b3f0a2707eef3dc1a2,,,,,,,,,,,230.1349,1.1,231.2316,231.2317,231.8853,right,1,0.6518,,231.8853,232.8829,2,12,44,13,1,total,1,images/Ex14.jpg,right,training,hard,4,,,,,
,,,,,632c78dac01ee4ebd60f742c,001,23,Male,Nigeria,Bachelor,2024-03-06_16h06.00.264,CRL1h,2023.2.3,Win32,60.24096386,65e67470ae2fbf2172c317b2,65e885b3f0a2707eef3dc1a2,,,,,,,,,,,232.8833,0.7,233.5824,233.5824,234.2979,right,1,0.7134,,234.2979,235.296,2,13,45,12,1,total,1,images/Ex13.jpg,right,training,hard,4,,,,,
,,,,,632c78dac01ee4ebd60f742c,001,23,Male,Nigeria,Bachelor,2024-03-06_16h06.00.264,CRL1h,2023.2.3,Win32,60.24096386,65e67470ae2fbf2172c317b2,65e885b3f0a2707eef3dc1a2,,,,,,,,,,,235.2964,1.3,236.59,236.5901,237.2787,right,0,0.6853,,237.2787,238.2706,2,14,46,1,1,total,1,images/Ex10.jpg,left,training,hard,4,,,,,
,,,,,632c78dac01ee4ebd60f742c,001,23,Male,Nigeria,Bachelor,2024-03-06_16h06.00.264,CRL1h,2023.2.3,Win32,60.24096386,65e67470ae2fbf2172c317b2,65e885b3f0a2707eef3dc1a2,,,,,,,,,,,238.2715,0.5,238.7705,238.7706,239.3379,right,1,0.5613,,239.3379,240.3342,2,15,47,4,1,total,1,images/Ex13.jpg,right,training,hard,4,,,,,
,,,,,632c78dac01ee4ebd60f742c,001,23,Male,Nigeria,Bachelor,2024-03-06_16h06.00.264,CRL1h,2023.2.3,Win32,60.24096386,65e67470ae2fbf2172c317b2,65e885b3f0a2707eef3dc1a2,,,,,,,,,,,240.3363,1,241.3367,241.3367,241.9696,left,1,0.6306,,241.9696,242.9636,3,0,48,1,1,total,1,images/Ex10.jpg,left,training,hard,4,,,,,
,,,,,632c78dac01ee4ebd60f742c,001,23,Male,Nigeria,Bachelor,2024-03-06_16h06.00.264,CRL1h,2023.2.3,Win32,60.24096386,65e67470ae2fbf2172c317b2,65e885b3f0a2707eef3dc1a2,,,,,,,,,,,242.9646,1.1,244.062,244.0621,244.6492,left,1,0.5852,,244.6492,245.6462,3,1,49,9,1,total,1,images/Ex10.jpg,left,training,hard,4,,,,,
,,,,,632c78dac01ee4ebd60f742c,001,23,Male,Nigeria,Bachelor,2024-03-06_16h06.00.264,CRL1h,2023.2.3,Win32,60.24096386,65e67470ae2fbf2172c317b2,65e885b3f0a2707eef3dc1a2,,,,,,,,,,,245.6467,1.2,246.8408,246.8409,247.4413,left,1,0.586,,247.4414,248.4424,3,2,50,10,1,total,1,images/Ex11.jpg,left,training,hard,4,,,,,
,,,,,632c78dac01ee4ebd60f742c,001,23,Male,Nigeria,Bachelor,2024-03-06_16h06.00.264,CRL1h,2023.2.3,Win32,60.24096386,65e67470ae2fbf2172c317b2,65e885b3f0a2707eef3dc1a2,,,,,,,,,,,248.4436,1.2,249.6396,249.6396,251.2343,left,1,1.5828,,251.2343,252.2341,3,3,51,8,1,total,1,images/Ex9.jpg,left,training,hard,4,,,,,
,,,,,632c78dac01ee4ebd60f742c,001,23,Male,Nigeria,Bachelor,2024-03-06_16h06.00.264,CRL1h,2023.2.3,Win32,60.24096386,65e67470ae2fbf2172c317b2,65e885b3f0a2707eef3dc1a2,,,,,,,,,,,252.2346,0.7,252.9318,252.9319,253.5477,left,1,0.6122,,253.5478,254.5498,3,4,52,0,1,total,1,images/Ex9.jpg,left,training,hard,4,,,,,
,,,,,632c78dac01ee4ebd60f742c,001,23,Male,Nigeria,Bachelor,2024-03-06_16h06.00.264,CRL1h,2023.2.3,Win32,60.24096386,65e67470ae2fbf2172c317b2,65e885b3f0a2707eef3dc1a2,,,,,,,,,,,254.5502,0.7,255.2477,255.2477,256.3108,right,1,1.0524,,256.3108,257.3093,3,5,53,5,1,total,1,images/Ex14.jpg,right,training,hard,4,,,,,
,,,,,632c78dac01ee4ebd60f742c,001,23,Male,Nigeria,Bachelor,2024-03-06_16h06.00.264,CRL1h,2023.2.3,Win32,60.24096386,65e67470ae2fbf2172c317b2,65e885b3f0a2707eef3dc1a2,,,,,,,,,,,257.3111,0.7,258.0071,258.0071,258.6909,left,0,0.6791,,258.6911,259.6923,3,6,54,6,1,total,1,images/Ex15.jpg,right,training,hard,4,,,,,
,,,,,632c78dac01ee4ebd60f742c,001,23,Male,Nigeria,Bachelor,2024-03-06_16h06.00.264,CRL1h,2023.2.3,Win32,60.24096386,65e67470ae2fbf2172c317b2,65e885b3f0a2707eef3dc1a2,,,,,,,,,,,259.6929,1.1,260.7903,260.7904,261.5082,right,1,0.7153,,261.5083,262.4999,3,7,55,12,1,total,1,images/Ex13.jpg,right,training,hard,4,,,,,
,,,,,632c78dac01ee4ebd60f742c,001,23,Male,Nigeria,Bachelor,2024-03-06_16h06.00.264,CRL1h,2023.2.3,Win32,60.24096386,65e67470ae2fbf2172c317b2,65e885b3f0a2707eef3dc1a2,,,,,,,,,,,262.5006,0.7,263.1987,263.1988,263.8317,right,1,0.6275,,263.8318,264.8358,3,8,56,4,1,total,1,images/Ex13.jpg,right,training,hard,4,,,,,
,,,,,632c78dac01ee4ebd60f742c,001,23,Male,Nigeria,Bachelor,2024-03-06_16h06.00.264,CRL1h,2023.2.3,Win32,60.24096386,65e67470ae2fbf2172c317b2,65e885b3f0a2707eef3dc1a2,,,,,,,,,,,264.8368,0.9,265.7283,265.7284,266.9444,right,1,1.2091,,266.9444,267.946,3,9,57,14,1,total,1,images/Ex15.jpg,right,training,hard,4,,,,,
,,,,,632c78dac01ee4ebd60f742c,001,23,Male,Nigeria,Bachelor,2024-03-06_16h06.00.264,CRL1h,2023.2.3,Win32,60.24096386,65e67470ae2fbf2172c317b2,65e885b3f0a2707eef3dc1a2,,,,,,,,,,,267.9466,1.3,269.2449,269.245,269.9071,left,1,0.6476,,269.9071,270.9037,3,10,58,2,1,total,1,images/Ex11.jpg,left,training,hard,4,,,,,
,,,,,632c78dac01ee4ebd60f742c,001,23,Male,Nigeria,Bachelor,2024-03-06_16h06.00.264,CRL1h,2023.2.3,Win32,60.24096386,65e67470ae2fbf2172c317b2,65e885b3f0a2707eef3dc1a2,,,,,,,,,,,270.905,1.1,272.0019,272.002,272.7842,right,1,0.7699,,272.7843,273.7828,3,11,59,7,1,total,1,images/Ex16.jpg,right,training,hard,4,,,,,
,,,,,632c78dac01ee4ebd60f742c,001,23,Male,Nigeria,Bachelor,2024-03-06_16h06.00.264,CRL1h,2023.2.3,Win32,60.24096386,65e67470ae2fbf2172c317b2,65e885b3f0a2707eef3dc1a2,,,,,,,,,,,273.7837,0.7,274.4817,274.4817,275.0641,right,1,0.572,,275.0642,276.0625,3,12,60,15,1,total,1,images/Ex16.jpg,right,training,hard,4,,,,,
,,,,,632c78dac01ee4ebd60f742c,001,23,Male,Nigeria,Bachelor,2024-03-06_16h06.00.264,CRL1h,2023.2.3,Win32,60.24096386,65e67470ae2fbf2172c317b2,65e885b3f0a2707eef3dc1a2,,,,,,,,,,,276.0632,0.9,276.9612,276.9613,277.7268,right,1,0.7512,,277.7269,278.7255,3,13,61,13,1,total,1,images/Ex14.jpg,right,training,hard,4,,,,,
,,,,,632c78dac01ee4ebd60f742c,001,23,Male,Nigeria,Bachelor,2024-03-06_16h06.00.264,CRL1h,2023.2.3,Win32,60.24096386,65e67470ae2fbf2172c317b2,65e885b3f0a2707eef3dc1a2,,,,,,,,,,,278.7272,1.1,279.8231,279.8231,280.639,right,0,0.8034,,280.639,281.6374,3,14,62,3,1,total,1,images/Ex12.jpg,left,training,hard,4,,,,,
,,,,,632c78dac01ee4ebd60f742c,001,23,Male,Nigeria,Bachelor,2024-03-06_16h06.00.264,CRL1h,2023.2.3,Win32,60.24096386,65e67470ae2fbf2172c317b2,65e885b3f0a2707eef3dc1a2,,,,,,,,,,,281.6383,1.1,282.7354,282.7355,283.4684,left,1,0.7264,,283.4684,284.4665,3,15,63,11,1,total,1,images/Ex12.jpg,left,training,hard,4,,,,,
,,,,,632c78dac01ee4ebd60f742c,001,23,Male,Nigeria,Bachelor,2024-03-06_16h06.00.264,CRL1h,2023.2.3,Win32,60.24096386,65e67470ae2fbf2172c317b2,65e885b3f0a2707eef3dc1a2,,,,,,,,,,,284.4683,0.9,285.3645,285.3645,285.8488,left,1,0.4826,,285.8488,286.8464,4,0,64,2,1,total,1,images/Ex11.jpg,left,training,hard,4,,,,,
,,,,,632c78dac01ee4ebd60f742c,001,23,Male,Nigeria,Bachelor,2024-03-06_16h06.00.264,CRL1h,2023.2.3,Win32,60.24096386,65e67470ae2fbf2172c317b2,65e885b3f0a2707eef3dc1a2,,,,,,,,,,,286.8479,1.3,288.1437,288.1438,288.6769,right,1,0.5239,,288.6769,289.6746,4,1,65,15,1,total,1,images/Ex16.jpg,right,training,hard,4,,,,,
,,,,,632c78dac01ee4ebd60f742c,001,23,Male,Nigeria,Bachelor,2024-03-06_16h06.00.264,CRL1h,2023.2.3,Win32,60.24096386,65e67470ae2fbf2172c317b2,65e885b3f0a2707eef3dc1a2,,,,,,,,,,,289.675,1.1,290.7734,290.7734,291.3061,left,0,0.5228,,291.3062,292.3037,4,2,66,6,1,total,1,images/Ex15.jpg,right,training,hard,4,,,,,
,,,,,632c78dac01ee4ebd60f742c,001,23,Male,Nigeria,Bachelor,2024-03-06_16h06.00.264,CRL1h,2023.2.3,Win32,60.24096386,65e67470ae2fbf2172c317b2,65e885b3f0a2707eef3dc1a2,,,,,,,,,,,292.3041,0.9,293.2023,293.2024,293.9681,left,1,0.7641,,293.9682,294.9664,4,3,67,1,1,total,1,images/Ex10.jpg,left,training,hard,4,,,,,
,,,,,632c78dac01ee4ebd60f742c,001,23,Male,Nigeria,Bachelor,2024-03-06_16h06.00.264,CRL1h,2023.2.3,Win32,60.24096386,65e67470ae2fbf2172c317b2,65e885b3f0a2707eef3dc1a2,,,,,,,,,,,294.9671,1,295.9649,295.965,296.6314,right,0,0.6538,,296.6314,297.6289,4,4,68,3,1,total,1,images/Ex12.jpg,left,training,hard,4,,,,,
,,,,,632c78dac01ee4ebd60f742c,001,23,Male,Nigeria,Bachelor,2024-03-06_16h06.00.264,CRL1h,2023.2.3,Win32,60.24096386,65e67470ae2fbf2172c317b2,65e885b3f0a2707eef3dc1a2,,,,,,,,,,,297.6296,0.5,298.1282,298.1283,299.0766,left,1,0.9405,,299.0767,300.0751,4,5,69,0,1,total,1,images/Ex9.jpg,left,training,hard,4,,,,,
,,,,,632c78dac01ee4ebd60f742c,001,23,Male,Nigeria,Bachelor,2024-03-06_16h06.00.264,CRL1h,2023.2.3,Win32,60.24096386,65e67470ae2fbf2172c317b2,65e885b3f0a2707eef3dc1a2,,,,,,,,,,,300.0756,1.3,301.373,301.373,302.0393,right,1,0.6536,,302.0393,303.037,4,6,70,7,1,total,1,images/Ex16.jpg,right,training,hard,4,,,,,
,,,,,632c78dac01ee4ebd60f742c,001,23,Male,Nigeria,Bachelor,2024-03-06_16h06.00.264,CRL1h,2023.2.3,Win32,60.24096386,65e67470ae2fbf2172c317b2,65e885b3f0a2707eef3dc1a2,,,,,,,,,,,303.0376,0.8,303.8358,303.8359,304.6016,right,1,0.7537,,304.6016,305.6001,4,7,71,12,1,total,1,images/Ex13.jpg,right,training,hard,4,,,,,
,,,,,632c78dac01ee4ebd60f742c,001,23,Male,Nigeria,Bachelor,2024-03-06_16h06.00.264,CRL1h,2023.2.3,Win32,60.24096386,65e67470ae2fbf2172c317b2,65e885b3f0a2707eef3dc1a2,,,,,,,,,,,305.6006,1.3,306.8982,306.8983,307.4478,left,1,0.546,,307.4479,308.4457,4,8,72,10,1,total,1,images/Ex11.jpg,left,training,hard,4,,,,,
,,,,,632c78dac01ee4ebd60f742c,001,23,Male,Nigeria,Bachelor,2024-03-06_16h06.00.264,CRL1h,2023.2.3,Win32,60.24096386,65e67470ae2fbf2172c317b2,65e885b3f0a2707eef3dc1a2,,,,,,,,,,,308.4467,0.7,309.1446,309.1447,310.0604,left,0,0.9071,,310.0606,311.0586,4,9,73,4,1,total,1,images/Ex13.jpg,right,training,hard,4,,,,,
,,,,,632c78dac01ee4ebd60f742c,001,23,Male,Nigeria,Bachelor,2024-03-06_16h06.00.264,CRL1h,2023.2.3,Win32,60.24096386,65e67470ae2fbf2172c317b2,65e885b3f0a2707eef3dc1a2,,,,,,,,,,,311.0597,1.4,312.4598,312.4599,314.1703,left,1,1.702,,314.1705,315.1686,4,10,74,8,1,total,1,images/Ex9.jpg,left,training,hard,4,,,,,
,,,,,632c78dac01ee4ebd60f742c,001,23,Male,Nigeria,Bachelor,2024-03-06_16h06.00.264,CRL1h,2023.2.3,Win32,60.24096386,65e67470ae2fbf2172c317b2,65e885b3f0a2707eef3dc1a2,,,,,,,,,,,315.1825,1,316.1707,316.1707,317.0672,left,0,0.8904,,317.0672,318.0641,4,11,75,13,1,total,1,images/Ex14.jpg,right,training,hard,4,,,,,
,,,,,632c78dac01ee4ebd60f742c,001,23,Male,Nigeria,Bachelor,2024-03-06_16h06.00.264,CRL1h,2023.2.3,Win32,60.24096386,65e67470ae2fbf2172c317b2,65e885b3f0a2707eef3dc1a2,,,,,,,,,,,318.065,1.1,319.1624,319.1626,319.8964,left,1,0.7264,,319.8965,320.893,4,12,76,9,1,total,1,images/Ex10.jpg,left,training,hard,4,,,,,
,,,,,632c78dac01ee4ebd60f742c,001,23,Male,Nigeria,Bachelor,2024-03-06_16h06.00.264,CRL1h,2023.2.3,Win32,60.24096386,65e67470ae2fbf2172c317b2,65e885b3f0a2707eef3dc1a2,,,,,,,,,,,320.8942,1.2,322.0954,322.0954,322.8581,right,1,0.7497,,322.8583,323.8599,4,13,77,14,1,total,1,images/Ex15.jpg,right,training,hard,4,,,,,
,,,,,632c78dac01ee4ebd60f742c,001,23,Male,Nigeria,Bachelor,2024-03-06_16h06.00.264,CRL1h,2023.2.3,Win32,60.24096386,65e67470ae2fbf2172c317b2,65e885b3f0a2707eef3dc1a2,,,,,,,,,,,323.8611,1.1,324.9552,324.9553,325.6033,right,0,0.6436,,325.6033,326.6006,4,14,78,11,1,total,1,images/Ex12.jpg,left,training,hard,4,,,,,
,,,,,632c78dac01ee4ebd60f742c,001,23,Male,Nigeria,Bachelor,2024-03-06_16h06.00.264,CRL1h,2023.2.3,Win32,60.24096386,65e67470ae2fbf2172c317b2,65e885b3f0a2707eef3dc1a2,,,,,,,,,,,326.6018,0.7,327.3015,327.3017,328.0848,left,0,0.7819,,328.0849,329.0805,4,15,79,5,1,total,1,images/Ex14.jpg,right,training,hard,4,,,,,
,,,,,632c78dac01ee4ebd60f742c,001,23,Male,Nigeria,Bachelor,2024-03-06_16h06.00.264,CRL1h,2023.2.3,Win32,60.24096386,65e67470ae2fbf2172c317b2,65e885b3f0a2707eef3dc1a2,,,,,,,,,,,329.0812,1.3,330.3787,330.3788,331.1156,right,0,0.7343,,331.1157,332.1128,5,0,80,11,1,total,1,images/Ex12.jpg,left,training,hard,4,,,,,
,,,,,632c78dac01ee4ebd60f742c,001,23,Male,Nigeria,Bachelor,2024-03-06_16h06.00.264,CRL1h,2023.2.3,Win32,60.24096386,65e67470ae2fbf2172c317b2,65e885b3f0a2707eef3dc1a2,,,,,,,,,,,332.1134,1,333.1112,333.1112,333.7404,right,1,0.6183,,333.7406,334.7381,5,1,81,15,1,total,1,images/Ex16.jpg,right,training,hard,4,,,,,
,,,,,632c78dac01ee4ebd60f742c,001,23,Male,Nigeria,Bachelor,2024-03-06_16h06.00.264,CRL1h,2023.2.3,Win32,60.24096386,65e67470ae2fbf2172c317b2,65e885b3f0a2707eef3dc1a2,,,,,,,,,,,334.7392,1.4,336.1367,336.1369,337.0855,left,1,0.9407,,337.0856,338.0871,5,2,82,9,1,total,1,images/Ex10.jpg,left,training,hard,4,,,,,
,,,,,632c78dac01ee4ebd60f742c,001,23,Male,Nigeria,Bachelor,2024-03-06_16h06.00.264,CRL1h,2023.2.3,Win32,60.24096386,65e67470ae2fbf2172c317b2,65e885b3f0a2707eef3dc1a2,,,,,,,,,,,338.0874,0.7,338.782,338.7821,339.6687,right,1,0.885,,339.6687,340.6659,5,3,83,13,1,total,1,images/Ex14.jpg,right,training,hard,4,,,,,
,,,,,632c78dac01ee4ebd60f742c,001,23,Male,Nigeria,Bachelor,2024-03-06_16h06.00.264,CRL1h,2023.2.3,Win32,60.24096386,65e67470ae2fbf2172c317b2,65e885b3f0a2707eef3dc1a2,,,,,,,,,,,340.6664,0.7,341.3616,341.3616,342.0274,left,1,0.6592,,342.0277,343.0254,5,4,84,2,1,total,1,images/Ex11.jpg,left,training,hard,4,,,,,
,,,,,632c78dac01ee4ebd60f742c,001,23,Male,Nigeria,Bachelor,2024-03-06_16h06.00.264,CRL1h,2023.2.3,Win32,60.24096386,65e67470ae2fbf2172c317b2,65e885b3f0a2707eef3dc1a2,,,,,,,,,,,343.0266,0.7,343.7281,343.7281,344.9267,left,1,1.1975,,344.9267,345.9256,5,5,85,0,1,total,1,images/Ex9.jpg,left,training,hard,4,,,,,
,,,,,632c78dac01ee4ebd60f742c,001,23,Male,Nigeria,Bachelor,2024-03-06_16h06.00.264,CRL1h,2023.2.3,Win32,60.24096386,65e67470ae2fbf2172c317b2,65e885b3f0a2707eef3dc1a2,,,,,,,,,,,345.9282,0.6,346.5238,346.5239,347.3195,right,1,0.7921,,347.3196,348.3217,5,6,86,12,1,total,1,images/Ex13.jpg,right,training,hard,4,,,,,
,,,,,632c78dac01ee4ebd60f742c,001,23,Male,Nigeria,Bachelor,2024-03-06_16h06.00.264,CRL1h,2023.2.3,Win32,60.24096386,65e67470ae2fbf2172c317b2,65e885b3f0a2707eef3dc1a2,,,,,,,,,,,348.3227,1,349.316,349.3161,350.8511,left,1,1.5329,,350.8512,351.8465,5,7,87,1,1,total,1,images/Ex10.jpg,left,training,hard,4,,,,,
,,,,,632c78dac01ee4ebd60f742c,001,23,Male,Nigeria,Bachelor,2024-03-06_16h06.00.264,CRL1h,2023.2.3,Win32,60.24096386,65e67470ae2fbf2172c317b2,65e885b3f0a2707eef3dc1a2,,,,,,,,,,,351.848,1.1,352.9435,352.9435,354.1591,right,1,1.2092,,354.1591,355.1598,5,8,88,5,1,total,1,images/Ex14.jpg,right,training,hard,4,,,,,
,,,,,632c78dac01ee4ebd60f742c,001,23,Male,Nigeria,Bachelor,2024-03-06_16h06.00.264,CRL1h,2023.2.3,Win32,60.24096386,65e67470ae2fbf2172c317b2,65e885b3f0a2707eef3dc1a2,,,,,,,,,,,355.1601,0.5,355.6583,355.6583,356.5721,right,1,0.9122,,356.5721,357.5733,5,9,89,4,1,total,1,images/Ex13.jpg,right,training,hard,4,,,,,
,,,,,632c78dac01ee4ebd60f742c,001,23,Male,Nigeria,Bachelor,2024-03-06_16h06.00.264,CRL1h,2023.2.3,Win32,60.24096386,65e67470ae2fbf2172c317b2,65e885b3f0a2707eef3dc1a2,,,,,,,,,,,357.5739,1.2,358.7719,358.772,359.6002,right,1,0.8208,,359.6003,360.5985,5,10,90,14,1,total,1,images/Ex15.jpg,right,training,hard,4,,,,,
,,,,,632c78dac01ee4ebd60f742c,001,23,Male,Nigeria,Bachelor,2024-03-06_16h06.00.264,CRL1h,2023.2.3,Win32,60.24096386,65e67470ae2fbf2172c317b2,65e885b3f0a2707eef3dc1a2,,,,,,,,,,,360.5994,1.4,361.9962,361.9963,362.7294,right,1,0.7204,,362.7295,363.7264,5,11,91,6,1,total,1,images/Ex15.jpg,right,training,hard,4,,,,,
,,,,,632c78dac01ee4ebd60f742c,001,23,Male,Nigeria,Bachelor,2024-03-06_16h06.00.264,CRL1h,2023.2.3,Win32,60.24096386,65e67470ae2fbf2172c317b2,65e885b3f0a2707eef3dc1a2,,,,,,,,,,,363.7269,0.8,364.5254,364.5255,365.1083,right,1,0.5762,,365.1085,366.1063,5,12,92,7,1,total,1,images/Ex16.jpg,right,training,hard,4,,,,,
,,,,,632c78dac01ee4ebd60f742c,001,23,Male,Nigeria,Bachelor,2024-03-06_16h06.00.264,CRL1h,2023.2.3,Win32,60.24096386,65e67470ae2fbf2172c317b2,65e885b3f0a2707eef3dc1a2,,,,,,,,,,,366.1071,1.5,367.6045,367.6046,368.99,left,1,1.3828,,368.99,369.984,5,13,93,3,1,total,1,images/Ex12.jpg,left,training,hard,4,,,,,
,,,,,632c78dac01ee4ebd60f742c,001,23,Male,Nigeria,Bachelor,2024-03-06_16h06.00.264,CRL1h,2023.2.3,Win32,60.24096386,65e67470ae2fbf2172c317b2,65e885b3f0a2707eef3dc1a2,,,,,,,,,,,369.9851,1,370.9823,370.9824,371.5652,left,1,0.5695,,371.5654,372.5673,5,14,94,10,1,total,1,images/Ex11.jpg,left,training,hard,4,,,,,
,,,,,632c78dac01ee4ebd60f742c,001,23,Male,Nigeria,Bachelor,2024-03-06_16h06.00.264,CRL1h,2023.2.3,Win32,60.24096386,65e67470ae2fbf2172c317b2,65e885b3f0a2707eef3dc1a2,,,,,,,,,,,372.5683,1.5,374.0606,374.0606,375.2139,left,1,1.1512,,375.214,376.2074,5,15,95,8,1,total,1,images/Ex9.jpg,left,training,hard,4,,,,,
,,,,,632c78dac01ee4ebd60f742c,001,23,Male,Nigeria,Bachelor,2024-03-06_16h06.00.264,CRL1h,2023.2.3,Win32,60.24096386,65e67470ae2fbf2172c317b2,65e885b3f0a2707eef3dc1a2,,,,,,,,,,,376.2085,1.4,377.6051,377.6053,378.5217,left,1,0.9082,,378.5219,379.519,6,0,96,3,1,total,1,images/Ex12.jpg,left,training,hard,4,,,,,
,,,,,632c78dac01ee4ebd60f742c,001,23,Male,Nigeria,Bachelor,2024-03-06_16h06.00.264,CRL1h,2023.2.3,Win32,60.24096386,65e67470ae2fbf2172c317b2,65e885b3f0a2707eef3dc1a2,,,,,,,,,,,379.52,0.8,380.3214,380.3215,381.2693,right,1,0.9454,,381.2694,382.2653,6,1,97,14,1,total,1,images/Ex15.jpg,right,training,hard,4,,,,,
,,,,,632c78dac01ee4ebd60f742c,001,23,Male,Nigeria,Bachelor,2024-03-06_16h06.00.264,CRL1h,2023.2.3,Win32,60.24096386,65e67470ae2fbf2172c317b2,65e885b3f0a2707eef3dc1a2,,,,,,,,,,,382.2667,1,383.2632,383.2634,383.9998,right,1,0.7346,,383.9998,384.9943,6,2,98,12,1,total,1,images/Ex13.jpg,right,training,hard,4,,,,,
,,,,,632c78dac01ee4ebd60f742c,001,23,Male,Nigeria,Bachelor,2024-03-06_16h06.00.264,CRL1h,2023.2.3,Win32,60.24096386,65e67470ae2fbf2172c317b2,65e885b3f0a2707eef3dc1a2,,,,,,,,,,,384.9959,1.2,386.1954,386.1954,387.0452,left,1,0.8482,,387.0452,388.0411,6,3,99,11,1,total,1,images/Ex12.jpg,left,training,hard,4,,,,,
,,,,,632c78dac01ee4ebd60f742c,001,23,Male,Nigeria,Bachelor,2024-03-06_16h06.00.264,CRL1h,2023.2.3,Win32,60.24096386,65e67470ae2fbf2172c317b2,65e885b3f0a2707eef3dc1a2,,,,,,,,,,,388.0417,0.8,388.8381,388.8382,389.6932,left,1,0.8513,,389.6934,390.6855,6,4,100,1,1,total,1,images/Ex10.jpg,left,training,hard,4,,,,,
,,,,,632c78dac01ee4ebd60f742c,001,23,Male,Nigeria,Bachelor,2024-03-06_16h06.00.264,CRL1h,2023.2.3,Win32,60.24096386,65e67470ae2fbf2172c317b2,65e885b3f0a2707eef3dc1a2,,,,,,,,,,,390.6865,1.1,391.7839,391.7839,392.5837,right,1,0.7955,,392.5838,393.5804,6,5,101,6,1,total,1,images/Ex15.jpg,right,training,hard,4,,,,,
,,,,,632c78dac01ee4ebd60f742c,001,23,Male,Nigeria,Bachelor,2024-03-06_16h06.00.264,CRL1h,2023.2.3,Win32,60.24096386,65e67470ae2fbf2172c317b2,65e885b3f0a2707eef3dc1a2,,,,,,,,,,,393.5816,0.6,394.1795,394.1796,394.8839,right,1,0.7022,,394.8839,395.8781,6,6,102,4,1,total,1,images/Ex13.jpg,right,training,hard,4,,,,,
,,,,,632c78dac01ee4ebd60f742c,001,23,Male,Nigeria,Bachelor,2024-03-06_16h06.00.264,CRL1h,2023.2.3,Win32,60.24096386,65e67470ae2fbf2172c317b2,65e885b3f0a2707eef3dc1a2,,,,,,,,,,,395.879,1,396.8761,396.8762,398.1429,right,1,1.2542,,398.1429,399.1427,6,7,103,13,1,total,1,images/Ex14.jpg,right,training,hard,4,,,,,
,,,,,632c78dac01ee4ebd60f742c,001,23,Male,Nigeria,Bachelor,2024-03-06_16h06.00.264,CRL1h,2023.2.3,Win32,60.24096386,65e67470ae2fbf2172c317b2,65e885b3f0a2707eef3dc1a2,,,,,,,,,,,399.155,1.2,400.3537,400.3537,401.2241,left,1,0.8685,,401.2242,402.2172,6,8,104,2,1,total,1,images/Ex11.jpg,left,training,hard,4,,,,,
,,,,,632c78dac01ee4ebd60f742c,001,23,Male,Nigeria,Bachelor,2024-03-06_16h06.00.264,CRL1h,2023.2.3,Win32,60.24096386,65e67470ae2fbf2172c317b2,65e885b3f0a2707eef3dc1a2,,,,,,,,,,,402.218,1,403.216,403.2161,403.9189,right,1,0.7008,,403.919,404.9152,6,9,105,5,1,total,1,images/Ex14.jpg,right,training,hard,4,,,,,
,,,,,632c78dac01ee4ebd60f742c,001,23,Male,Nigeria,Bachelor,2024-03-06_16h06.00.264,CRL1h,2023.2.3,Win32,60.24096386,65e67470ae2fbf2172c317b2,65e885b3f0a2707eef3dc1a2,,,,,,,,,,,404.9173,1,405.9161,405.9162,406.7451,left,1,0.8149,,406.7452,407.7469,6,10,106,8,1,total,1,images/Ex9.jpg,left,training,hard,4,,,,,
,,,,,632c78dac01ee4ebd60f742c,001,23,Male,Nigeria,Bachelor,2024-03-06_16h06.00.264,CRL1h,2023.2.3,Win32,60.24096386,65e67470ae2fbf2172c317b2,65e885b3f0a2707eef3dc1a2,,,,,,,,,,,407.7485,0.6,408.3418,408.3419,409.0083,right,1,0.6602,,409.0083,410.0092,6,11,107,15,1,total,1,images/Ex16.jpg,right,training,hard,4,,,,,
,,,,,632c78dac01ee4ebd60f742c,001,23,Male,Nigeria,Bachelor,2024-03-06_16h06.00.264,CRL1h,2023.2.3,Win32,60.24096386,65e67470ae2fbf2172c317b2,65e885b3f0a2707eef3dc1a2,,,,,,,,,,,410.0105,0.8,410.804,410.804,411.6073,left,1,0.8013,,411.6074,412.6018,6,12,108,0,1,total,1,images/Ex9.jpg,left,training,hard,4,,,,,
,,,,,632c78dac01ee4ebd60f742c,001,23,Male,Nigeria,Bachelor,2024-03-06_16h06.00.264,CRL1h,2023.2.3,Win32,60.24096386,65e67470ae2fbf2172c317b2,65e885b3f0a2707eef3dc1a2,,,,,,,,,,,412.6031,1,413.5997,413.5998,414.6987,right,0,1.0874,,414.6988,415.6965,6,13,109,9,1,total,1,images/Ex10.jpg,left,training,hard,4,,,,,
,,,,,632c78dac01ee4ebd60f742c,001,23,Male,Nigeria,Bachelor,2024-03-06_16h06.00.264,CRL1h,2023.2.3,Win32,60.24096386,65e67470ae2fbf2172c317b2,65e885b3f0a2707eef3dc1a2,,,,,,,,,,,415.6975,1.1,416.7954,416.7955,417.3812,left,1,0.5842,,417.3812,418.3768,6,14,110,10,1,total,1,images/Ex11.jpg,left,training,hard,4,,,,,
,,,,,632c78dac01ee4ebd60f742c,001,23,Male,Nigeria,Bachelor,2024-03-06_16h06.00.264,CRL1h,2023.2.3,Win32,60.24096386,65e67470ae2fbf2172c317b2,65e885b3f0a2707eef3dc1a2,,,,,,,,,,,418.3778,1.2,419.5738,419.5739,420.1737,right,1,0.589,,420.1739,421.1712,6,15,111,7,1,total,1,images/Ex16.jpg,right,training,hard,4,,,,,
,,,,,632c78dac01ee4ebd60f742c,001,23,Male,Nigeria,Bachelor,2024-03-06_16h06.00.264,CRL1h,2023.2.3,Win32,60.24096386,65e67470ae2fbf2172c317b2,65e885b3f0a2707eef3dc1a2,,,,,,,,,,,421.1722,0.5,421.6713,421.6715,422.4772,right,1,0.8017,,422.4774,423.4684,7,0,112,14,1,total,1,images/Ex15.jpg,right,training,hard,4,,,,,
,,,,,632c78dac01ee4ebd60f742c,001,23,Male,Nigeria,Bachelor,2024-03-06_16h06.00.264,CRL1h,2023.2.3,Win32,60.24096386,65e67470ae2fbf2172c317b2,65e885b3f0a2707eef3dc1a2,,,,,,,,,,,423.4695,1.3,424.767,424.7671,426.1806,left,1,1.4012,,426.1806,427.1784,7,1,113,11,1,total,1,images/Ex12.jpg,left,training,hard,4,,,,,
,,,,,632c78dac01ee4ebd60f742c,001,23,Male,Nigeria,Bachelor,2024-03-06_16h06.00.264,CRL1h,2023.2.3,Win32,60.24096386,65e67470ae2fbf2172c317b2,65e885b3f0a2707eef3dc1a2,,,,,,,,,,,427.1939,0.6,427.7943,427.7943,428.461,left,1,0.6593,,428.4613,429.4589,7,2,114,0,1,total,1,images/Ex9.jpg,left,training,hard,4,,,,,
,,,,,632c78dac01ee4ebd60f742c,001,23,Male,Nigeria,Bachelor,2024-03-06_16h06.00.264,CRL1h,2023.2.3,Win32,60.24096386,65e67470ae2fbf2172c317b2,65e885b3f0a2707eef3dc1a2,,,,,,,,,,,429.4599,1.4,430.8576,430.8579,431.389,left,1,0.5162,,431.3891,432.3874,7,3,115,2,1,total,1,images/Ex11.jpg,left,training,hard,4,,,,,
,,,,,632c78dac01ee4ebd60f742c,001,23,Male,Nigeria,Bachelor,2024-03-06_16h06.00.264,CRL1h,2023.2.3,Win32,60.24096386,65e67470ae2fbf2172c317b2,65e885b3f0a2707eef3dc1a2,,,,,,,,,,,432.3889,1.2,433.5856,433.5856,434.486,right,1,0.888,,434.4861,435.4825,7,4,116,13,1,total,1,images/Ex14.jpg,right,training,hard,4,,,,,
,,,,,632c78dac01ee4ebd60f742c,001,23,Male,Nigeria,Bachelor,2024-03-06_16h06.00.264,CRL1h,2023.2.3,Win32,60.24096386,65e67470ae2fbf2172c317b2,65e885b3f0a2707eef3dc1a2,,,,,,,,,,,435.4833,0.7,436.1814,436.1815,436.8809,right,1,0.6912,,436.881,437.879,7,5,117,15,1,total,1,images/Ex16.jpg,right,training,hard,4,,,,,
,,,,,632c78dac01ee4ebd60f742c,001,23,Male,Nigeria,Bachelor,2024-03-06_16h06.00.264,CRL1h,2023.2.3,Win32,60.24096386,65e67470ae2fbf2172c317b2,65e885b3f0a2707eef3dc1a2,,,,,,,,,,,437.8801,1.2,439.0773,439.0773,439.7777,right,1,0.6888,,439.7779,440.7749,7,6,118,5,1,total,1,images/Ex14.jpg,right,training,hard,4,,,,,
,,,,,632c78dac01ee4ebd60f742c,001,23,Male,Nigeria,Bachelor,2024-03-06_16h06.00.264,CRL1h,2023.2.3,Win32,60.24096386,65e67470ae2fbf2172c317b2,65e885b3f0a2707eef3dc1a2,,,,,,,,,,,440.7766,0.6,441.3738,441.3739,442.1452,left,1,0.7679,,442.1454,443.1372,7,7,119,3,1,total,1,images/Ex12.jpg,left,training,hard,4,,,,,
,,,,,632c78dac01ee4ebd60f742c,001,23,Male,Nigeria,Bachelor,2024-03-06_16h06.00.264,CRL1h,2023.2.3,Win32,60.24096386,65e67470ae2fbf2172c317b2,65e885b3f0a2707eef3dc1a2,,,,,,,,,,,443.1383,0.9,444.0374,444.0374,445.0724,right,1,1.0334,,445.0724,446.0664,7,8,120,4,1,total,1,images/Ex13.jpg,right,training,hard,4,,,,,
,,,,,632c78dac01ee4ebd60f742c,001,23,Male,Nigeria,Bachelor,2024-03-06_16h06.00.264,CRL1h,2023.2.3,Win32,60.24096386,65e67470ae2fbf2172c317b2,65e885b3f0a2707eef3dc1a2,,,,,,,,,,,446.0676,1.5,447.564,447.564,448.4855,left,1,0.9186,,448.4855,449.4775,7,9,121,9,1,total,1,images/Ex10.jpg,left,training,hard,4,,,,,
,,,,,632c78dac01ee4ebd60f742c,001,23,Male,Nigeria,Bachelor,2024-03-06_16h06.00.264,CRL1h,2023.2.3,Win32,60.24096386,65e67470ae2fbf2172c317b2,65e885b3f0a2707eef3dc1a2,,,,,,,,,,,449.4786,1.1,450.5802,450.5802,451.2799,right,1,0.6973,,451.28,452.2775,7,10,122,12,1,total,1,images/Ex13.jpg,right,training,hard,4,,,,,
,,,,,632c78dac01ee4ebd60f742c,001,23,Male,Nigeria,Bachelor,2024-03-06_16h06.00.264,CRL1h,2023.2.3,Win32,60.24096386,65e67470ae2fbf2172c317b2,65e885b3f0a2707eef3dc1a2,,,,,,,,,,,452.2789,0.7,452.9767,452.9767,453.7547,right,1,0.7698,,453.7547,454.7567,7,11,123,7,1,total,1,images/Ex16.jpg,right,training,hard,4,,,,,
,,,,,632c78dac01ee4ebd60f742c,001,23,Male,Nigeria,Bachelor,2024-03-06_16h06.00.264,CRL1h,2023.2.3,Win32,60.24096386,65e67470ae2fbf2172c317b2,65e885b3f0a2707eef3dc1a2,,,,,,,,,,,454.7576,1.4,456.1557,456.1557,456.9533,right,1,0.7954,,456.9533,457.9476,7,12,124,6,1,total,1,images/Ex15.jpg,right,training,hard,4,,,,,
,,,,,632c78dac01ee4ebd60f742c,001,23,Male,Nigeria,Bachelor,2024-03-06_16h06.00.264,CRL1h,2023.2.3,Win32,60.24096386,65e67470ae2fbf2172c317b2,65e885b3f0a2707eef3dc1a2,,,,,,,,,,,457.9488,1.4,459.3495,459.3495,460.1655,left,1,0.8137,,460.1656,461.1627,7,13,125,10,1,total,1,images/Ex11.jpg,left,training,hard,4,,,,,
,,,,,632c78dac01ee4ebd60f742c,001,23,Male,Nigeria,Bachelor,2024-03-06_16h06.00.264,CRL1h,2023.2.3,Win32,60.24096386,65e67470ae2fbf2172c317b2,65e885b3f0a2707eef3dc1a2,,,,,,,,,,,461.1631,0.8,461.9614,461.9614,462.6279,right,0,0.6653,,462.6279,463.6229,7,14,126,1,1,total,1,images/Ex10.jpg,left,training,hard,4,,,,,
,,,,,632c78dac01ee4ebd60f742c,001,23,Male,Nigeria,Bachelor,2024-03-06_16h06.00.264,CRL1h,2023.2.3,Win32,60.24096386,65e67470ae2fbf2172c317b2,65e885b3f0a2707eef3dc1a2,,,,,,,,,,,463.6243,0.6,464.2214,464.2216,464.8892,left,1,0.6522,,464.8893,465.8861,7,15,127,8,1,total,1,images/Ex9.jpg,left,training,hard,4,,,,,
,,,,,632c78dac01ee4ebd60f742c,001,23,Male,Nigeria,Bachelor,2024-03-06_16h06.00.264,CRL1h,2023.2.3,Win32,60.24096386,65e67470ae2fbf2172c317b2,65e885b3f0a2707eef3dc1a2,,,,,,,,,,,465.8934,1.4,467.2834,467.2836,467.7336,left,0,0.4365,,467.7338,468.731,0,0,0,9,1,total,2,images/Ex10.jpg,right,reversed,hard,4,,,,,
,,,,,632c78dac01ee4ebd60f742c,001,23,Male,Nigeria,Bachelor,2024-03-06_16h06.00.264,CRL1h,2023.2.3,Win32,60.24096386,65e67470ae2fbf2172c317b2,65e885b3f0a2707eef3dc1a2,,,,,,,,,,,468.7319,1,469.7295,469.7296,470.2665,left,0,0.535,,470.2666,471.2605,0,1,1,2,1,total,2,images/Ex11.jpg,right,reversed,hard,4,,,,,
,,,,,632c78dac01ee4ebd60f742c,001,23,Male,Nigeria,Bachelor,2024-03-06_16h06.00.264,CRL1h,2023.2.3,Win32,60.24096386,65e67470ae2fbf2172c317b2,65e885b3f0a2707eef3dc1a2,,,,,,,,,,,471.2613,1.4,472.6615,472.6617,474.0071,left,1,1.3383,,474.0071,475.0091,0,2,2,15,1,total,2,images/Ex16.jpg,left,reversed,hard,4,,,,,
,,,,,632c78dac01ee4ebd60f742c,001,23,Male,Nigeria,Bachelor,2024-03-06_16h06.00.264,CRL1h,2023.2.3,Win32,60.24096386,65e67470ae2fbf2172c317b2,65e885b3f0a2707eef3dc1a2,,,,,,,,,,,475.0108,1.3,476.3064,476.3064,478.6373,left,1,2.3289,,478.6373,479.6312,0,3,3,14,1,total,2,images/Ex15.jpg,left,reversed,hard,4,,,,,
,,,,,632c78dac01ee4ebd60f742c,001,23,Male,Nigeria,Bachelor,2024-03-06_16h06.00.264,CRL1h,2023.2.3,Win32,60.24096386,65e67470ae2fbf2172c317b2,65e885b3f0a2707eef3dc1a2,,,,,,,,,,,479.6471,1,480.6496,480.6497,481.5334,left,1,0.8817,,481.5335,482.5265,0,4,4,5,1,total,2,images/Ex14.jpg,left,reversed,hard,4,,,,,
,,,,,632c78dac01ee4ebd60f742c,001,23,Male,Nigeria,Bachelor,2024-03-06_16h06.00.264,CRL1h,2023.2.3,Win32,60.24096386,65e67470ae2fbf2172c317b2,65e885b3f0a2707eef3dc1a2,,,,,,,,,,,482.5274,0.6,483.1258,483.1259,484.5129,left,0,1.3842,,484.513,485.5053,0,5,5,11,1,total,2,images/Ex12.jpg,right,reversed,hard,4,,,,,
,,,,,632c78dac01ee4ebd60f742c,001,23,Male,Nigeria,Bachelor,2024-03-06_16h06.00.264,CRL1h,2023.2.3,Win32,60.24096386,65e67470ae2fbf2172c317b2,65e885b3f0a2707eef3dc1a2,,,,,,,,,,,485.5182,1.2,486.7067,486.7068,488.1352,left,1,1.4236,,488.1353,489.1325,0,6,6,4,1,total,2,images/Ex13.jpg,left,reversed,hard,4,,,,,
,,,,,632c78dac01ee4ebd60f742c,001,23,Male,Nigeria,Bachelor,2024-03-06_16h06.00.264,CRL1h,2023.2.3,Win32,60.24096386,65e67470ae2fbf2172c317b2,65e885b3f0a2707eef3dc1a2,,,,,,,,,,,489.1333,0.7,489.8354,489.8355,491.1816,right,1,1.3376,,491.1817,492.1817,0,7,7,8,1,total,2,images/Ex9.jpg,right,reversed,hard,4,,,,,
,,,,,632c78dac01ee4ebd60f742c,001,23,Male,Nigeria,Bachelor,2024-03-06_16h06.00.264,CRL1h,2023.2.3,Win32,60.24096386,65e67470ae2fbf2172c317b2,65e885b3f0a2707eef3dc1a2,,,,,,,,,,,492.1823,0.8,492.9771,492.9772,494.0482,right,0,1.0677,,494.0484,495.0407,0,8,8,6,1,total,2,images/Ex15.jpg,left,reversed,hard,4,,,,,
,,,,,632c78dac01ee4ebd60f742c,001,23,Male,Nigeria,Bachelor,2024-03-06_16h06.00.264,CRL1h,2023.2.3,Win32,60.24096386,65e67470ae2fbf2172c317b2,65e885b3f0a2707eef3dc1a2,,,,,,,,,,,495.0417,0.9,495.9393,495.9395,497.7251,left,1,1.7834,,497.7252,498.7185,0,9,9,13,1,total,2,images/Ex14.jpg,left,reversed,hard,4,,,,,
,,,,,632c78dac01ee4ebd60f742c,001,23,Male,Nigeria,Bachelor,2024-03-06_16h06.00.264,CRL1h,2023.2.3,Win32,60.24096386,65e67470ae2fbf2172c317b2,65e885b3f0a2707eef3dc1a2,,,,,,,,,,,498.7201,0.6,499.3169,499.3169,500.217,left,1,0.8907,,500.2171,501.2179,0,10,10,7,1,total,2,images/Ex16.jpg,left,reversed,hard,4,,,,,
,,,,,632c78dac01ee4ebd60f742c,001,23,Male,Nigeria,Bachelor,2024-03-06_16h06.00.264,CRL1h,2023.2.3,Win32,60.24096386,65e67470ae2fbf2172c317b2,65e885b3f0a2707eef3dc1a2,,,,,,,,,,,501.2186,0.7,501.9179,501.9179,502.7666,left,0,0.8468,,502.7666,503.764,0,11,11,0,1,total,2,images/Ex9.jpg,right,reversed,hard,4,,,,,
,,,,,632c78dac01ee4ebd60f742c,001,23,Male,Nigeria,Bachelor,2024-03-06_16h06.00.264,CRL1h,2023.2.3,Win32,60.24096386,65e67470ae2fbf2172c317b2,65e885b3f0a2707eef3dc1a2,,,,,,,,,,,503.7644,1.4,505.1579,505.1581,506.3255,left,1,1.1653,,506.3256,507.3255,0,12,12,12,1,total,2,images/Ex13.jpg,left,reversed,hard,4,,,,,
,,,,,632c78dac01ee4ebd60f742c,001,23,Male,Nigeria,Bachelor,2024-03-06_16h06.00.264,CRL1h,2023.2.3,Win32,60.24096386,65e67470ae2fbf2172c317b2,65e885b3f0a2707eef3dc1a2,,,,,,,,,,,507.326,1.3,508.6193,508.6194,510.7389,right,1,2.1174,,510.7393,511.733,0,13,13,10,1,total,2,images/Ex11.jpg,right,reversed,hard,4,,,,,
,,,,,632c78dac01ee4ebd60f742c,001,23,Male,Nigeria,Bachelor,2024-03-06_16h06.00.264,CRL1h,2023.2.3,Win32,60.24096386,65e67470ae2fbf2172c317b2,65e885b3f0a2707eef3dc1a2,,,,,,,,,,,511.7454,1.1,512.8498,512.8499,515.1271,right,1,2.2633,,515.1272,516.1244,0,14,14,3,1,total,2,images/Ex12.jpg,right,reversed,hard,4,,,,,
,,,,,632c78dac01ee4ebd60f742c,001,23,Male,Nigeria,Bachelor,2024-03-06_16h06.00.264,CRL1h,2023.2.3,Win32,60.24096386,65e67470ae2fbf2172c317b2,65e885b3f0a2707eef3dc1a2,,,,,,,,,,,516.1437,0.8,516.9396,516.9396,518.1926,right,1,1.2511,,518.1926,519.1864,0,15,15,1,1,total,2,images/Ex10.jpg,right,reversed,hard,4,,,,,
,,,,,632c78dac01ee4ebd60f742c,001,23,Male,Nigeria,Bachelor,2024-03-06_16h06.00.264,CRL1h,2023.2.3,Win32,60.24096386,65e67470ae2fbf2172c317b2,65e885b3f0a2707eef3dc1a2,,,,,,,,,,,519.1872,1,520.185,520.1851,521.7515,right,1,1.5646,,521.7515,522.7478,1,0,16,2,1,total,2,images/Ex11.jpg,right,reversed,hard,4,,,,,
,,,,,632c78dac01ee4ebd60f742c,001,23,Male,Nigeria,Bachelor,2024-03-06_16h06.00.264,CRL1h,2023.2.3,Win32,60.24096386,65e67470ae2fbf2172c317b2,65e885b3f0a2707eef3dc1a2,,,,,,,,,,,522.7485,1.3,524.0453,524.0454,525.9766,left,1,1.9207,,525.9768,526.9743,1,1,17,14,1,total,2,images/Ex15.jpg,left,reversed,hard,4,,,,,
,,,,,632c78dac01ee4ebd60f742c,001,23,Male,Nigeria,Bachelor,2024-03-06_16h06.00.264,CRL1h,2023.2.3,Win32,60.24096386,65e67470ae2fbf2172c317b2,65e885b3f0a2707eef3dc1a2,,,,,,,,,,,526.9751,0.7,527.6735,527.6735,529.2275,left,1,1.5511,,529.2276,530.2195,1,2,18,4,1,total,2,images/Ex13.jpg,left,reversed,hard,4,,,,,
,,,,,632c78dac01ee4ebd60f742c,001,23,Male,Nigeria,Bachelor,2024-03-06_16h06.00.264,CRL1h,2023.2.3,Win32,60.24096386,65e67470ae2fbf2172c317b2,65e885b3f0a2707eef3dc1a2,,,,,,,,,,,530.2205,0.6,530.8184,530.8185,531.7049,left,1,0.8849,,531.7049,532.6991,1,3,19,12,1,total,2,images/Ex13.jpg,left,reversed,hard,4,,,,,
,,,,,632c78dac01ee4ebd60f742c,001,23,Male,Nigeria,Bachelor,2024-03-06_16h06.00.264,CRL1h,2023.2.3,Win32,60.24096386,65e67470ae2fbf2172c317b2,65e885b3f0a2707eef3dc1a2,,,,,,,,,,,532.7,1.1,533.7969,533.7971,535.6453,left,0,1.8356,,535.6457,536.6467,1,4,20,8,1,total,2,images/Ex9.jpg,right,reversed,hard,4,,,,,
,,,,,632c78dac01ee4ebd60f742c,001,23,Male,Nigeria,Bachelor,2024-03-06_16h06.00.264,CRL1h,2023.2.3,Win32,60.24096386,65e67470ae2fbf2172c317b2,65e885b3f0a2707eef3dc1a2,,,,,,,,,,,536.6473,1.2,537.8453,537.8454,538.7742,left,1,0.9151,,538.7743,539.7713,1,5,21,7,1,total,2,images/Ex16.jpg,left,reversed,hard,4,,,,,
,,,,,632c78dac01ee4ebd60f742c,001,23,Male,Nigeria,Bachelor,2024-03-06_16h06.00.264,CRL1h,2023.2.3,Win32,60.24096386,65e67470ae2fbf2172c317b2,65e885b3f0a2707eef3dc1a2,,,,,,,,,,,539.7724,1,540.7695,540.7695,542.6051,left,0,1.8331,,542.6051,543.6027,1,6,22,3,1,total,2,images/Ex12.jpg,right,reversed,hard,4,,,,,
,,,,,632c78dac01ee4ebd60f742c,001,23,Male,Nigeria,Bachelor,2024-03-06_16h06.00.264,CRL1h,2023.2.3,Win32,60.24096386,65e67470ae2fbf2172c317b2,65e885b3f0a2707eef3dc1a2,,,,,,,,,,,543.6034,0.7,544.2976,544.2978,546.8479,right,1,2.5486,,546.848,547.8424,1,7,23,10,1,total,2,images/Ex11.jpg,right,reversed,hard,4,,,,,
,,,,,632c78dac01ee4ebd60f742c,001,23,Male,Nigeria,Bachelor,2024-03-06_16h06.00.264,CRL1h,2023.2.3,Win32,60.24096386,65e67470ae2fbf2172c317b2,65e885b3f0a2707eef3dc1a2,,,,,,,,,,,547.8675,0.7,548.5575,548.5575,549.5411,right,1,0.978,,549.5413,550.5379,1,8,24,1,1,total,2,images/Ex10.jpg,right,reversed,hard,4,,,,,
,,,,,632c78dac01ee4ebd60f742c,001,23,Male,Nigeria,Bachelor,2024-03-06_16h06.00.264,CRL1h,2023.2.3,Win32,60.24096386,65e67470ae2fbf2172c317b2,65e885b3f0a2707eef3dc1a2,,,,,,,,,,,550.5391,0.6,551.1368,551.1369,553.4007,right,1,2.2506,,553.401,554.3988,1,9,25,11,1,total,2,images/Ex12.jpg,right,reversed,hard,4,,,,,
,,,,,632c78dac01ee4ebd60f742c,001,23,Male,Nigeria,Bachelor,2024-03-06_16h06.00.264,CRL1h,2023.2.3,Win32,60.24096386,65e67470ae2fbf2172c317b2,65e885b3f0a2707eef3dc1a2,,,,,,,,,,,554.4307,1.1,555.5309,555.531,557.8277,left,1,2.2911,,557.8279,558.8252,1,10,26,6,1,total,2,images/Ex15.jpg,left,reversed,hard,4,,,,,
,,,,,632c78dac01ee4ebd60f742c,001,23,Male,Nigeria,Bachelor,2024-03-06_16h06.00.264,CRL1h,2023.2.3,Win32,60.24096386,65e67470ae2fbf2172c317b2,65e885b3f0a2707eef3dc1a2,,,,,,,,,,,558.8475,0.9,559.7403,559.7405,560.7568,left,1,1.0069,,560.7569,561.754,1,11,27,15,1,total,2,images/Ex16.jpg,left,reversed,hard,4,,,,,
,,,,,632c78dac01ee4ebd60f742c,001,23,Male,Nigeria,Bachelor,2024-03-06_16h06.00.264,CRL1h,2023.2.3,Win32,60.24096386,65e67470ae2fbf2172c317b2,65e885b3f0a2707eef3dc1a2,,,,,,,,,,,561.7551,0.9,562.6528,562.6529,563.6355,right,1,0.9801,,563.6356,564.6368,1,12,28,9,1,total,2,images/Ex10.jpg,right,reversed,hard,4,,,,,
,,,,,632c78dac01ee4ebd60f742c,001,23,Male,Nigeria,Bachelor,2024-03-06_16h06.00.264,CRL1h,2023.2.3,Win32,60.24096386,65e67470ae2fbf2172c317b2,65e885b3f0a2707eef3dc1a2,,,,,,,,,,,564.6371,0.9,565.5315,565.5316,567.13,right,0,1.5918,,567.1301,568.1273,1,13,29,13,1,total,2,images/Ex14.jpg,left,reversed,hard,4,,,,,
,,,,,632c78dac01ee4ebd60f742c,001,23,Male,Nigeria,Bachelor,2024-03-06_16h06.00.264,CRL1h,2023.2.3,Win32,60.24096386,65e67470ae2fbf2172c317b2,65e885b3f0a2707eef3dc1a2,,,,,,,,,,,568.14,0.8,568.9464,568.9464,570.6737,left,0,1.7146,,570.6738,571.6755,1,14,30,0,1,total,2,images/Ex9.jpg,right,reversed,hard,4,,,,,
,,,,,632c78dac01ee4ebd60f742c,001,23,Male,Nigeria,Bachelor,2024-03-06_16h06.00.264,CRL1h,2023.2.3,Win32,60.24096386,65e67470ae2fbf2172c317b2,65e885b3f0a2707eef3dc1a2,,,,,,,,,,,571.676,1.1,572.7722,572.7722,573.7731,right,0,0.9998,,573.7732,574.7707,1,15,31,5,1,total,2,images/Ex14.jpg,left,reversed,hard,4,,,,,
,,,,,632c78dac01ee4ebd60f742c,001,23,Male,Nigeria,Bachelor,2024-03-06_16h06.00.264,CRL1h,2023.2.3,Win32,60.24096386,65e67470ae2fbf2172c317b2,65e885b3f0a2707eef3dc1a2,,,,,,,,,,,574.7711,1,575.7658,575.766,577.2013,left,1,1.4337,,577.2013,578.1951,2,0,32,12,1,total,2,images/Ex13.jpg,left,reversed,hard,4,,,,,
,,,,,632c78dac01ee4ebd60f742c,001,23,Male,Nigeria,Bachelor,2024-03-06_16h06.00.264,CRL1h,2023.2.3,Win32,60.24096386,65e67470ae2fbf2172c317b2,65e885b3f0a2707eef3dc1a2,,,,,,,,,,,578.2078,1.3,579.5095,579.5095,581.6106,right,1,2.0994,,581.6107,582.6052,2,1,33,8,1,total,2,images/Ex9.jpg,right,reversed,hard,4,,,,,
,,,,,632c78dac01ee4ebd60f742c,001,23,Male,Nigeria,Bachelor,2024-03-06_16h06.00.264,CRL1h,2023.2.3,Win32,60.24096386,65e67470ae2fbf2172c317b2,65e885b3f0a2707eef3dc1a2,,,,,,,,,,,582.6177,1.4,584.0063,584.0063,585.4346,right,0,1.4227,,585.435,586.4388,2,2,34,13,1,total,2,images/Ex14.jpg,left,reversed,hard,4,,,,,
,,,,,632c78dac01ee4ebd60f742c,001,23,Male,Nigeria,Bachelor,2024-03-06_16h06.00.264,CRL1h,2023.2.3,Win32,60.24096386,65e67470ae2fbf2172c317b2,65e885b3f0a2707eef3dc1a2,,,,,,,,,,,586.4398,0.8,587.2311,587.2313,588.2656,left,1,1.0268,,588.2659,589.2652,2,3,35,7,1,total,2,images/Ex16.jpg,left,reversed,hard,4,,,,,
,,,,,632c78dac01ee4ebd60f742c,001,23,Male,Nigeria,Bachelor,2024-03-06_16h06.00.264,CRL1h,2023.2.3,Win32,60.24096386,65e67470ae2fbf2172c317b2,65e885b3f0a2707eef3dc1a2,,,,,,,,,,,589.266,0.9,590.1639,590.1639,591.9095,right,1,1.7439,,591.9095,592.906,2,4,36,3,1,total,2,images/Ex12.jpg,right,reversed,hard,4,,,,,
,,,,,632c78dac01ee4ebd60f742c,001,23,Male,Nigeria,Bachelor,2024-03-06_16h06.00.264,CRL1h,2023.2.3,Win32,60.24096386,65e67470ae2fbf2172c317b2,65e885b3f0a2707eef3dc1a2,,,,,,,,,,,592.9068,0.9,593.8098,593.81,595.4215,left,1,1.6096,,595.4215,596.4169,2,5,37,5,1,total,2,images/Ex14.jpg,left,reversed,hard,4,,,,,
,,,,,632c78dac01ee4ebd60f742c,001,23,Male,Nigeria,Bachelor,2024-03-06_16h06.00.264,CRL1h,2023.2.3,Win32,60.24096386,65e67470ae2fbf2172c317b2,65e885b3f0a2707eef3dc1a2,,,,,,,,,,,596.4325,0.6,597.0362,597.0364,598.8677,left,0,1.8301,,598.8678,599.8649,2,6,38,0,1,total,2,images/Ex9.jpg,right,reversed,hard,4,,,,,
,,,,,632c78dac01ee4ebd60f742c,001,23,Male,Nigeria,Bachelor,2024-03-06_16h06.00.264,CRL1h,2023.2.3,Win32,60.24096386,65e67470ae2fbf2172c317b2,65e885b3f0a2707eef3dc1a2,,,,,,,,,,,599.8654,1.4,601.2632,601.2632,603.7264,right,1,2.4616,,603.7265,604.7208,2,7,39,10,1,total,2,images/Ex11.jpg,right,reversed,hard,4,,,,,
,,,,,632c78dac01ee4ebd60f742c,001,23,Male,Nigeria,Bachelor,2024-03-06_16h06.00.264,CRL1h,2023.2.3,Win32,60.24096386,65e67470ae2fbf2172c317b2,65e885b3f0a2707eef3dc1a2,,,,,,,,,,,604.7337,0.9,605.6237,605.6239,608.3195,right,1,2.6945,,608.3195,609.317,2,8,40,9,1,total,2,images/Ex10.jpg,right,reversed,hard,4,,,,,
,,,,,632c78dac01ee4ebd60f742c,001,23,Male,Nigeria,Bachelor,2024-03-06_16h06.00.264,CRL1h,2023.2.3,Win32,60.24096386,65e67470ae2fbf2172c317b2,65e885b3f0a2707eef3dc1a2,,,,,,,,,,,609.3334,1.2,610.5341,610.5341,612.7082,left,1,2.1611,,612.7083,613.7071,2,9,41,14,1,total,2,images/Ex15.jpg,left,reversed,hard,4,,,,,
,,,,,632c78dac01ee4ebd60f742c,001,23,Male,Nigeria,Bachelor,2024-03-06_16h06.00.264,CRL1h,2023.2.3,Win32,60.24096386,65e67470ae2fbf2172c317b2,65e885b3f0a2707eef3dc1a2,,,,,,,,,,,613.708,0.8,614.5063,614.5065,616.387,left,1,1.8672,,616.387,617.3846,2,10,42,6,1,total,2,images/Ex15.jpg,left,reversed,hard,4,,,,,
,,,,,632c78dac01ee4ebd60f742c,001,23,Male,Nigeria,Bachelor,2024-03-06_16h06.00.264,CRL1h,2023.2.3,Win32,60.24096386,65e67470ae2fbf2172c317b2,65e885b3f0a2707eef3dc1a2,,,,,,,,,,,617.3856,0.5,617.884,617.8841,621.1622,left,0,3.2744,,621.1623,622.1606,2,11,43,11,1,total,2,images/Ex12.jpg,right,reversed,hard,4,,,,,
,,,,,632c78dac01ee4ebd60f742c,001,23,Male,Nigeria,Bachelor,2024-03-06_16h06.00.264,CRL1h,2023.2.3,Win32,60.24096386,65e67470ae2fbf2172c317b2,65e885b3f0a2707eef3dc1a2,,,,,,,,,,,622.1829,0.6,622.7796,622.7796,624.2618,left,1,1.481,,624.2618,625.2561,2,12,44,15,1,total,2,images/Ex16.jpg,left,reversed,hard,4,,,,,
,,,,,632c78dac01ee4ebd60f742c,001,23,Male,Nigeria,Bachelor,2024-03-06_16h06.00.264,CRL1h,2023.2.3,Win32,60.24096386,65e67470ae2fbf2172c317b2,65e885b3f0a2707eef3dc1a2,,,,,,,,,,,625.2579,0.7,625.9592,625.9592,627.9183,right,0,1.9506,,627.9184,628.9173,2,13,45,4,1,total,2,images/Ex13.jpg,left,reversed,hard,4,,,,,
,,,,,632c78dac01ee4ebd60f742c,001,23,Male,Nigeria,Bachelor,2024-03-06_16h06.00.264,CRL1h,2023.2.3,Win32,60.24096386,65e67470ae2fbf2172c317b2,65e885b3f0a2707eef3dc1a2,,,,,,,,,,,628.9377,0.6,629.5324,629.5325,632.4951,right,1,2.9501,,632.4952,633.4928,2,14,46,1,1,total,2,images/Ex10.jpg,right,reversed,hard,4,,,,,
,,,,,632c78dac01ee4ebd60f742c,001,23,Male,Nigeria,Bachelor,2024-03-06_16h06.00.264,CRL1h,2023.2.3,Win32,60.24096386,65e67470ae2fbf2172c317b2,65e885b3f0a2707eef3dc1a2,,,,,,,,,,,633.5151,0.8,634.3084,634.3084,637.5699,left,0,3.2522,,637.5699,638.5685,2,15,47,2,1,total,2,images/Ex11.jpg,right,reversed,hard,4,,,,,
,,,,,632c78dac01ee4ebd60f742c,001,23,Male,Nigeria,Bachelor,2024-03-06_16h06.00.264,CRL1h,2023.2.3,Win32,60.24096386,65e67470ae2fbf2172c317b2,65e885b3f0a2707eef3dc1a2,,,,,,,,,,,638.5921,0.5,639.086,639.086,642.0803,right,1,2.9826,,642.0804,643.0782,3,0,48,2,1,total,2,images/Ex11.jpg,right,reversed,hard,4,,,,,
,,,,,632c78dac01ee4ebd60f742c,001,23,Male,Nigeria,Bachelor,2024-03-06_16h06.00.264,CRL1h,2023.2.3,Win32,60.24096386,65e67470ae2fbf2172c317b2,65e885b3f0a2707eef3dc1a2,,,,,,,,,,,643.0908,1.2,644.2794,644.2795,647.9761,right,0,3.6943,,647.9762,648.9691,3,1,49,12,1,total,2,images/Ex13.jpg,left,reversed,hard,4,,,,,
,,,,,632c78dac01ee4ebd60f742c,001,23,Male,Nigeria,Bachelor,2024-03-06_16h06.00.264,CRL1h,2023.2.3,Win32,60.24096386,65e67470ae2fbf2172c317b2,65e885b3f0a2707eef3dc1a2,,,,,,,,,,,648.9884,0.5,649.4887,649.4888,650.3045,left,1,0.814,,650.3045,651.2994,3,2,50,7,1,total,2,images/Ex16.jpg,left,reversed,hard,4,,,,,
,,,,,632c78dac01ee4ebd60f742c,001,23,Male,Nigeria,Bachelor,2024-03-06_16h06.00.264,CRL1h,2023.2.3,Win32,60.24096386,65e67470ae2fbf2172c317b2,65e885b3f0a2707eef3dc1a2,,,,,,,,,,,651.3008,1.4,652.697,652.697,653.8329,left,0,1.1334,,653.8329,654.8265,3,3,51,3,1,total,2,images/Ex12.jpg,right,reversed,hard,4,,,,,
,,,,,632c78dac01ee4ebd60f742c,001,23,Male,Nigeria,Bachelor,2024-03-06_16h06.00.264,CRL1h,2023.2.3,Win32,60.24096386,65e67470ae2fbf2172c317b2,65e885b3f0a2707eef3dc1a2,,,,,,,,,,,654.8274,1.1,655.9251,655.9252,657.6935,left,1,1.7662,,657.6935,658.6873,3,4,52,13,1,total,2,images/Ex14.jpg,left,reversed,hard,4,,,,,
,,,,,632c78dac01ee4ebd60f742c,001,23,Male,Nigeria,Bachelor,2024-03-06_16h06.00.264,CRL1h,2023.2.3,Win32,60.24096386,65e67470ae2fbf2172c317b2,65e885b3f0a2707eef3dc1a2,,,,,,,,,,,658.7017,1,659.6895,659.6895,661.451,left,1,1.7481,,661.4511,662.4484,3,5,53,15,1,total,2,images/Ex16.jpg,left,reversed,hard,4,,,,,
,,,,,632c78dac01ee4ebd60f742c,001,23,Male,Nigeria,Bachelor,2024-03-06_16h06.00.264,CRL1h,2023.2.3,Win32,60.24096386,65e67470ae2fbf2172c317b2,65e885b3f0a2707eef3dc1a2,,,,,,,,,,,662.4636,0.8,663.2637,663.2638,666.2775,right,1,3.0061,,666.2778,667.274,3,6,54,8,1,total,2,images/Ex9.jpg,right,reversed,hard,4,,,,,
,,,,,632c78dac01ee4ebd60f742c,001,23,Male,Nigeria,Bachelor,2024-03-06_16h06.00.264,CRL1h,2023.2.3,Win32,60.24096386,65e67470ae2fbf2172c317b2,65e885b3f0a2707eef3dc1a2,,,,,,,,,,,667.2936,1.3,668.5917,668.5918,672.3675,left,0,3.7622,,672.3676,673.3646,3,7,55,10,1,total,2,images/Ex11.jpg,right,reversed,hard,4,,,,,
,,,,,632c78dac01ee4ebd60f742c,001,23,Male,Nigeria,Bachelor,2024-03-06_16h06.00.264,CRL1h,2023.2.3,Win32,60.24096386,65e67470ae2fbf2172c317b2,65e885b3f0a2707eef3dc1a2,,,,,,,,,,,673.3842,1.1,674.4817,674.4818,675.7321,right,1,1.2488,,675.7322,676.7261,3,8,56,0,1,total,2,images/Ex9.jpg,right,reversed,hard,4,,,,,
,,,,,632c78dac01ee4ebd60f742c,001,23,Male,Nigeria,Bachelor,2024-03-06_16h06.00.264,CRL1h,2023.2.3,Win32,60.24096386,65e67470ae2fbf2172c317b2,65e885b3f0a2707eef3dc1a2,,,,,,,,,,,676.7271,1.3,678.0241,678.0242,681.257,left,1,3.2312,,681.2571,682.2511,3,9,57,4,1,total,2,images/Ex13.jpg,left,reversed,hard,4,,,,,
,,,,,632c78dac01ee4ebd60f742c,001,23,Male,Nigeria,Bachelor,2024-03-06_16h06.00.264,CRL1h,2023.2.3,Win32,60.24096386,65e67470ae2fbf2172c317b2,65e885b3f0a2707eef3dc1a2,,,,,,,,,,,682.2635,0.6,682.8701,682.8701,683.8878,right,1,1.0157,,683.8879,684.8807,3,10,58,11,1,total,2,images/Ex12.jpg,right,reversed,hard,4,,,,,
,,,,,632c78dac01ee4ebd60f742c,001,23,Male,Nigeria,Bachelor,2024-03-06_16h06.00.264,CRL1h,2023.2.3,Win32,60.24096386,65e67470ae2fbf2172c317b2,65e885b3f0a2707eef3dc1a2,,,,,,,,,,,684.8818,1,685.8788,685.8789,687.4439,right,0,1.5542,,687.4441,688.4435,3,11,59,6,1,total,2,images/Ex15.jpg,left,reversed,hard,4,,,,,
,,,,,632c78dac01ee4ebd60f742c,001,23,Male,Nigeria,Bachelor,2024-03-06_16h06.00.264,CRL1h,2023.2.3,Win32,60.24096386,65e67470ae2fbf2172c317b2,65e885b3f0a2707eef3dc1a2,,,,,,,,,,,688.4624,0.6,689.0601,689.0602,691.9865,right,1,2.9212,,691.9868,692.9844,3,12,60,1,1,total,2,images/Ex10.jpg,right,reversed,hard,4,,,,,
,,,,,632c78dac01ee4ebd60f742c,001,23,Male,Nigeria,Bachelor,2024-03-06_16h06.00.264,CRL1h,2023.2.3,Win32,60.24096386,65e67470ae2fbf2172c317b2,65e885b3f0a2707eef3dc1a2,,,,,,,,,,,693.0084,1.2,694.2026,694.2027,695.519,right,0,1.3146,,695.5191,696.5187,3,13,61,5,1,total,2,images/Ex14.jpg,left,reversed,hard,4,,,,,
,,,,,632c78dac01ee4ebd60f742c,001,23,Male,Nigeria,Bachelor,2024-03-06_16h06.00.264,CRL1h,2023.2.3,Win32,60.24096386,65e67470ae2fbf2172c317b2,65e885b3f0a2707eef3dc1a2,,,,,,,,,,,696.5483,1.3,697.8436,697.8436,698.709,right,0,0.8526,,698.709,699.7073,3,14,62,14,1,total,2,images/Ex15.jpg,left,reversed,hard,4,,,,,
,,,,,632c78dac01ee4ebd60f742c,001,23,Male,Nigeria,Bachelor,2024-03-06_16h06.00.264,CRL1h,2023.2.3,Win32,60.24096386,65e67470ae2fbf2172c317b2,65e885b3f0a2707eef3dc1a2,,,,,,,,,,,699.7077,1.5,701.2046,701.2047,702.6527,right,1,1.4422,,702.6527,703.6514,3,15,63,9,1,total,2,images/Ex10.jpg,right,reversed,hard,4,,,,,
,,,,,632c78dac01ee4ebd60f742c,001,23,Male,Nigeria,Bachelor,2024-03-06_16h06.00.264,CRL1h,2023.2.3,Win32,60.24096386,65e67470ae2fbf2172c317b2,65e885b3f0a2707eef3dc1a2,,,,,,703.6551,744.1551,space,40.482,,744.1759,0.8,744.9709,744.971,746.7856,left,1,1.8075,,746.7859,747.7834,0,0,0,2,1,partial,1,images/Ex3.jpg,left,training,hard,4,,,,,
,,,,,632c78dac01ee4ebd60f742c,001,23,Male,Nigeria,Bachelor,2024-03-06_16h06.00.264,CRL1h,2023.2.3,Win32,60.24096386,65e67470ae2fbf2172c317b2,65e885b3f0a2707eef3dc1a2,,,,,,,,,,,747.7845,1,748.7815,748.7816,749.4647,left,0,0.6708,,749.4649,750.4627,0,1,1,6,1,partial,1,images/Ex7.jpg,right,training,hard,4,,,,,
,,,,,632c78dac01ee4ebd60f742c,001,23,Male,Nigeria,Bachelor,2024-03-06_16h06.00.264,CRL1h,2023.2.3,Win32,60.24096386,65e67470ae2fbf2172c317b2,65e885b3f0a2707eef3dc1a2,,,,,,,,,,,750.4642,1.1,751.5605,751.5605,752.5425,right,0,0.9684,,752.5426,753.5415,0,2,2,0,1,partial,1,images/Ex1.jpg,left,training,hard,4,,,,,
,,,,,632c78dac01ee4ebd60f742c,001,23,Male,Nigeria,Bachelor,2024-03-06_16h06.00.264,CRL1h,2023.2.3,Win32,60.24096386,65e67470ae2fbf2172c317b2,65e885b3f0a2707eef3dc1a2,,,,,,,,,,,753.5431,0.6,754.1397,754.1398,754.8058,left,0,0.6525,,754.8059,755.8041,0,3,3,5,1,partial,1,images/Ex6.jpg,right,training,hard,4,,,,,
,,,,,632c78dac01ee4ebd60f742c,001,23,Male,Nigeria,Bachelor,2024-03-06_16h06.00.264,CRL1h,2023.2.3,Win32,60.24096386,65e67470ae2fbf2172c317b2,65e885b3f0a2707eef3dc1a2,,,,,,,,,,,755.8053,0.6,756.4068,756.4069,757.3017,right,1,0.886,,757.302,758.3001,0,4,4,7,1,partial,1,images/Ex8.jpg,right,training,hard,4,,,,,
,,,,,632c78dac01ee4ebd60f742c,001,23,Male,Nigeria,Bachelor,2024-03-06_16h06.00.264,CRL1h,2023.2.3,Win32,60.24096386,65e67470ae2fbf2172c317b2,65e885b3f0a2707eef3dc1a2,,,,,,,,,,,758.3013,0.9,759.1991,759.1993,760.4144,right,1,1.2054,,760.4144,761.4116,0,5,5,14,1,partial,1,images/Ex7.jpg,right,training,hard,4,,,,,
,,,,,632c78dac01ee4ebd60f742c,001,23,Male,Nigeria,Bachelor,2024-03-06_16h06.00.264,CRL1h,2023.2.3,Win32,60.24096386,65e67470ae2fbf2172c317b2,65e885b3f0a2707eef3dc1a2,,,,,,,,,,,761.4125,1,762.4101,762.4102,763.2264,left,0,0.807,,763.2265,764.2243,0,6,6,13,1,partial,1,images/Ex6.jpg,right,training,hard,4,,,,,
,,,,,632c78dac01ee4ebd60f742c,001,23,Male,Nigeria,Bachelor,2024-03-06_16h06.00.264,CRL1h,2023.2.3,Win32,60.24096386,65e67470ae2fbf2172c317b2,65e885b3f0a2707eef3dc1a2,,,,,,,,,,,764.2255,1.3,765.5258,765.5259,766.4878,right,1,0.9484,,766.4878,767.4858,0,7,7,12,1,partial,1,images/Ex5.jpg,right,training,hard,4,,,,,
,,,,,632c78dac01ee4ebd60f742c,001,23,Male,Nigeria,Bachelor,2024-03-06_16h06.00.264,CRL1h,2023.2.3,Win32,60.24096386,65e67470ae2fbf2172c317b2,65e885b3f0a2707eef3dc1a2,,,,,,,,,,,767.4865,0.7,768.1845,768.1846,769.0014,right,1,0.8152,,769.0015,769.9984,0,8,8,4,1,partial,1,images/Ex5.jpg,right,training,hard,4,,,,,
,,,,,632c78dac01ee4ebd60f742c,001,23,Male,Nigeria,Bachelor,2024-03-06_16h06.00.264,CRL1h,2023.2.3,Win32,60.24096386,65e67470ae2fbf2172c317b2,65e885b3f0a2707eef3dc1a2,,,,,,,,,,,769.999,1.3,771.2964,771.2965,772.0289,right,0,0.7209,,772.0289,773.0271,0,9,9,1,1,partial,1,images/Ex2.jpg,left,training,hard,4,,,,,
,,,,,632c78dac01ee4ebd60f742c,001,23,Male,Nigeria,Bachelor,2024-03-06_16h06.00.264,CRL1h,2023.2.3,Win32,60.24096386,65e67470ae2fbf2172c317b2,65e885b3f0a2707eef3dc1a2,,,,,,,,,,,773.0277,1,774.0257,774.0257,774.7924,left,1,0.7549,,774.7926,775.7899,0,10,10,9,1,partial,1,images/Ex2.jpg,left,training,hard,4,,,,,
,,,,,632c78dac01ee4ebd60f742c,001,23,Male,Nigeria,Bachelor,2024-03-06_16h06.00.264,CRL1h,2023.2.3,Win32,60.24096386,65e67470ae2fbf2172c317b2,65e885b3f0a2707eef3dc1a2,,,,,,,,,,,775.7915,1.5,777.2875,777.2875,778.5413,left,1,1.251,,778.5416,779.5341,0,11,11,8,1,partial,1,images/Ex1.jpg,left,training,hard,4,,,,,
,,,,,632c78dac01ee4ebd60f742c,001,23,Male,Nigeria,Bachelor,2024-03-06_16h06.00.264,CRL1h,2023.2.3,Win32,60.24096386,65e67470ae2fbf2172c317b2,65e885b3f0a2707eef3dc1a2,,,,,,,,,,,779.5348,0.8,780.3375,780.3376,781.0816,right,0,0.7322,,781.0817,782.0798,0,12,12,10,1,partial,1,images/Ex3.jpg,left,training,hard,4,,,,,
,,,,,632c78dac01ee4ebd60f742c,001,23,Male,Nigeria,Bachelor,2024-03-06_16h06.00.264,CRL1h,2023.2.3,Win32,60.24096386,65e67470ae2fbf2172c317b2,65e885b3f0a2707eef3dc1a2,,,,,,,,,,,782.0805,1.3,783.378,783.378,786.8739,right,0,3.4883,,786.8741,787.8719,0,13,13,11,1,partial,1,images/Ex4.jpg,left,training,hard,4,,,,,
,,,,,632c78dac01ee4ebd60f742c,001,23,Male,Nigeria,Bachelor,2024-03-06_16h06.00.264,CRL1h,2023.2.3,Win32,60.24096386,65e67470ae2fbf2172c317b2,65e885b3f0a2707eef3dc1a2,,,,,,,,,,,787.9126,0.6,788.5031,788.5032,791.8151,left,0,3.3063,,791.8153,792.8143,0,14,14,15,1,partial,1,images/Ex8.jpg,right,training,hard,4,,,,,
,,,,,632c78dac01ee4ebd60f742c,001,23,Male,Nigeria,Bachelor,2024-03-06_16h06.00.264,CRL1h,2023.2.3,Win32,60.24096386,65e67470ae2fbf2172c317b2,65e885b3f0a2707eef3dc1a2,,,,,,,,,,,792.8417,1.4,794.2442,794.2443,794.5955,right,0,0.3426,,794.5957,795.5926,0,15,15,3,1,partial,1,images/Ex4.jpg,left,training,hard,4,,,,,
,,,,,632c78dac01ee4ebd60f742c,001,23,Male,Nigeria,Bachelor,2024-03-06_16h06.00.264,CRL1h,2023.2.3,Win32,60.24096386,65e67470ae2fbf2172c317b2,65e885b3f0a2707eef3dc1a2,,,,,,,,,,,795.594,0.8,796.3911,796.3911,797.0731,left,1,0.6713,,797.0732,798.0723,1,0,16,8,1,partial,1,images/Ex1.jpg,left,training,hard,4,,,,,
,,,,,632c78dac01ee4ebd60f742c,001,23,Male,Nigeria,Bachelor,2024-03-06_16h06.00.264,CRL1h,2023.2.3,Win32,60.24096386,65e67470ae2fbf2172c317b2,65e885b3f0a2707eef3dc1a2,,,,,,,,,,,798.0735,0.8,798.8707,798.8709,800.2031,right,1,1.3279,,800.2033,801.2013,1,1,17,7,1,partial,1,images/Ex8.jpg,right,training,hard,4,,,,,
,,,,,632c78dac01ee4ebd60f742c,001,23,Male,Nigeria,Bachelor,2024-03-06_16h06.00.264,CRL1h,2023.2.3,Win32,60.24096386,65e67470ae2fbf2172c317b2,65e885b3f0a2707eef3dc1a2,,,,,,,,,,,801.2024,1.1,802.2992,802.2993,804.6459,right,0,2.3387,,804.6464,805.6436,1,2,18,3,1,partial,1,images/Ex4.jpg,left,training,hard,4,,,,,
,,,,,632c78dac01ee4ebd60f742c,001,23,Male,Nigeria,Bachelor,2024-03-06_16h06.00.264,CRL1h,2023.2.3,Win32,60.24096386,65e67470ae2fbf2172c317b2,65e885b3f0a2707eef3dc1a2,,,,,,,,,,,805.6664,1,806.6585,806.6586,807.1954,left,0,0.5349,,807.1954,808.19,1,3,19,4,1,partial,1,images/Ex5.jpg,right,training,hard,4,,,,,
,,,,,632c78dac01ee4ebd60f742c,001,23,Male,Nigeria,Bachelor,2024-03-06_16h06.00.264,CRL1h,2023.2.3,Win32,60.24096386,65e67470ae2fbf2172c317b2,65e885b3f0a2707eef3dc1a2,,,,,,,,,,,808.191,0.5,808.6927,808.6928,808.8953,right,1,0.2,,808.8953,809.8896,1,4,20,6,1,partial,1,images/Ex7.jpg,right,training,hard,4,,,,,
,,,,,632c78dac01ee4ebd60f742c,001,23,Male,Nigeria,Bachelor,2024-03-06_16h06.00.264,CRL1h,2023.2.3,Win32,60.24096386,65e67470ae2fbf2172c317b2,65e885b3f0a2707eef3dc1a2,,,,,,,,,,,809.8908,1.2,811.0854,811.0855,811.5893,right,0,0.5018,,811.5893,812.5871,1,5,21,2,1,partial,1,images/Ex3.jpg,left,training,hard,4,,,,,
,,,,,632c78dac01ee4ebd60f742c,001,23,Male,Nigeria,Bachelor,2024-03-06_16h06.00.264,CRL1h,2023.2.3,Win32,60.24096386,65e67470ae2fbf2172c317b2,65e885b3f0a2707eef3dc1a2,,,,,,,,,,,812.5882,0.6,813.1818,813.1819,814.0809,right,0,0.8955,,814.081,815.0832,1,6,22,1,1,partial,1,images/Ex2.jpg,left,training,hard,4,,,,,
,,,,,632c78dac01ee4ebd60f742c,001,23,Male,Nigeria,Bachelor,2024-03-06_16h06.00.264,CRL1h,2023.2.3,Win32,60.24096386,65e67470ae2fbf2172c317b2,65e885b3f0a2707eef3dc1a2,,,,,,,,,,,815.0842,0.5,815.5823,815.5824,816.5991,left,1,1.0145,,816.5991,817.5952,1,7,23,9,1,partial,1,images/Ex2.jpg,left,training,hard,4,,,,,
,,,,,632c78dac01ee4ebd60f742c,001,23,Male,Nigeria,Bachelor,2024-03-06_16h06.00.264,CRL1h,2023.2.3,Win32,60.24096386,65e67470ae2fbf2172c317b2,65e885b3f0a2707eef3dc1a2,,,,,,,,,,,817.5957,0.6,818.1908,818.1909,823.8826,left,0,5.685,,823.8827,824.8803,1,8,24,13,1,partial,1,images/Ex6.jpg,right,training,hard,4,,,,,
,,,,,632c78dac01ee4ebd60f742c,001,23,Male,Nigeria,Bachelor,2024-03-06_16h06.00.264,CRL1h,2023.2.3,Win32,60.24096386,65e67470ae2fbf2172c317b2,65e885b3f0a2707eef3dc1a2,,,,,,,,,,,824.8959,1.1,825.997,825.997,827.3671,right,1,1.3676,,827.3673,828.3583,1,9,25,15,1,partial,1,images/Ex8.jpg,right,training,hard,4,,,,,
,,,,,632c78dac01ee4ebd60f742c,001,23,Male,Nigeria,Bachelor,2024-03-06_16h06.00.264,CRL1h,2023.2.3,Win32,60.24096386,65e67470ae2fbf2172c317b2,65e885b3f0a2707eef3dc1a2,,,,,,,,,,,828.3595,1.5,829.8619,829.8619,831.8084,right,0,1.9432,,831.8085,832.8046,1,10,26,10,1,partial,1,images/Ex3.jpg,left,training,hard,4,,,,,
,,,,,632c78dac01ee4ebd60f742c,001,23,Male,Nigeria,Bachelor,2024-03-06_16h06.00.264,CRL1h,2023.2.3,Win32,60.24096386,65e67470ae2fbf2172c317b2,65e885b3f0a2707eef3dc1a2,,,,,,,,,,,832.8051,1.2,834.0027,834.0028,840.212,right,1,6.2077,,840.2122,841.2102,1,11,27,12,1,partial,1,images/Ex5.jpg,right,training,hard,4,,,,,
,,,,,632c78dac01ee4ebd60f742c,001,23,Male,Nigeria,Bachelor,2024-03-06_16h06.00.264,CRL1h,2023.2.3,Win32,60.24096386,65e67470ae2fbf2172c317b2,65e885b3f0a2707eef3dc1a2,,,,,,,,,,,841.2436,1,842.2367,842.2367,844.2837,left,0,2.0399,,844.2839,845.2822,1,12,28,5,1,partial,1,images/Ex6.jpg,right,training,hard,4,,,,,
,,,,,632c78dac01ee4ebd60f742c,001,23,Male,Nigeria,Bachelor,2024-03-06_16h06.00.264,CRL1h,2023.2.3,Win32,60.24096386,65e67470ae2fbf2172c317b2,65e885b3f0a2707eef3dc1a2,,,,,,,,,,,845.3163,0.6,845.9142,845.9143,863.7374,left,1,17.8114,,863.7377,864.7353,1,13,29,11,1,partial,1,images/Ex4.jpg,left,training,hard,4,,,,,
,,,,,632c78dac01ee4ebd60f742c,001,23,Male,Nigeria,Bachelor,2024-03-06_16h06.00.264,CRL1h,2023.2.3,Win32,60.24096386,65e67470ae2fbf2172c317b2,65e885b3f0a2707eef3dc1a2,,,,,,,,,,,864.7622,0.8,865.5506,865.5508,866.6876,right,1,1.1348,,866.6876,867.6849,1,14,30,14,1,partial,1,images/Ex7.jpg,right,training,hard,4,,,,,
,,,,,632c78dac01ee4ebd60f742c,001,23,Male,Nigeria,Bachelor,2024-03-06_16h06.00.264,CRL1h,2023.2.3,Win32,60.24096386,65e67470ae2fbf2172c317b2,65e885b3f0a2707eef3dc1a2,,,,,,,,,,,867.6858,0.6,868.2833,868.2834,869.4298,right,0,1.1376,,869.4298,870.4303,1,15,31,0,1,partial,1,images/Ex1.jpg,left,training,hard,4,,,,,
,,,,,632c78dac01ee4ebd60f742c,001,23,Male,Nigeria,Bachelor,2024-03-06_16h06.00.264,CRL1h,2023.2.3,Win32,60.24096386,65e67470ae2fbf2172c317b2,65e885b3f0a2707eef3dc1a2,,,,,,,,,,,870.431,1,871.4296,871.4297,871.7921,left,0,0.354,,871.7922,872.7945,2,0,32,13,1,partial,1,images/Ex6.jpg,right,training,hard,4,,,,,
,,,,,632c78dac01ee4ebd60f742c,001,23,Male,Nigeria,Bachelor,2024-03-06_16h06.00.264,CRL1h,2023.2.3,Win32,60.24096386,65e67470ae2fbf2172c317b2,65e885b3f0a2707eef3dc1a2,,,,,,,,,,,872.7957,1.5,874.2935,874.2935,875.0868,right,0,0.7885,,875.0869,876.0877,2,1,33,8,1,partial,1,images/Ex1.jpg,left,training,hard,4,,,,,
,,,,,632c78dac01ee4ebd60f742c,001,23,Male,Nigeria,Bachelor,2024-03-06_16h06.00.264,CRL1h,2023.2.3,Win32,60.24096386,65e67470ae2fbf2172c317b2,65e885b3f0a2707eef3dc1a2,,,,,,,,,,,876.0883,1.2,877.2825,877.2825,879.0995,left,1,1.8149,,879.0995,880.0949,2,2,34,11,1,partial,1,images/Ex4.jpg,left,training,hard,4,,,,,
,,,,,632c78dac01ee4ebd60f742c,001,23,Male,Nigeria,Bachelor,2024-03-06_16h06.00.264,CRL1h,2023.2.3,Win32,60.24096386,65e67470ae2fbf2172c317b2,65e885b3f0a2707eef3dc1a2,,,,,,,,,,,880.0955,0.6,880.6939,880.694,883.8614,left,0,3.164,,883.8615,884.8586,2,3,35,14,1,partial,1,images/Ex7.jpg,right,training,hard,4,,,,,
,,,,,632c78dac01ee4ebd60f742c,001,23,Male,Nigeria,Bachelor,2024-03-06_16h06.00.264,CRL1h,2023.2.3,Win32,60.24096386,65e67470ae2fbf2172c317b2,65e885b3f0a2707eef3dc1a2,,,,,,,,,,,884.892,0.8,885.6863,885.6864,887.4671,right,1,1.767,,887.4672,888.465,2,4,36,5,1,partial,1,images/Ex6.jpg,right,training,hard,4,,,,,
,,,,,632c78dac01ee4ebd60f742c,001,23,Male,Nigeria,Bachelor,2024-03-06_16h06.00.264,CRL1h,2023.2.3,Win32,60.24096386,65e67470ae2fbf2172c317b2,65e885b3f0a2707eef3dc1a2,,,,,,,,,,,888.4655,1.3,889.7634,889.7635,891.1281,right,0,1.3503,,891.1281,892.1262,2,5,37,2,1,partial,1,images/Ex3.jpg,left,training,hard,4,,,,,
,,,,,632c78dac01ee4ebd60f742c,001,23,Male,Nigeria,Bachelor,2024-03-06_16h06.00.264,CRL1h,2023.2.3,Win32,60.24096386,65e67470ae2fbf2172c317b2,65e885b3f0a2707eef3dc1a2,,,,,,,,,,,892.1266,0.9,893.0251,893.0251,894.6734,left,0,1.6368,,894.6735,895.6723,2,6,38,15,1,partial,1,images/Ex8.jpg,right,training,hard,4,,,,,
,,,,,632c78dac01ee4ebd60f742c,001,23,Male,Nigeria,Bachelor,2024-03-06_16h06.00.264,CRL1h,2023.2.3,Win32,60.24096386,65e67470ae2fbf2172c317b2,65e885b3f0a2707eef3dc1a2,,,,,,,,,,,895.673,0.5,896.1704,896.1705,896.7864,right,0,0.6048,,896.7864,897.7846,2,7,39,10,1,partial,1,images/Ex3.jpg,left,training,hard,4,,,,,
,,,,,632c78dac01ee4ebd60f742c,001,23,Male,Nigeria,Bachelor,2024-03-06_16h06.00.264,CRL1h,2023.2.3,Win32,60.24096386,65e67470ae2fbf2172c317b2,65e885b3f0a2707eef3dc1a2,,,,,,,,,,,897.7859,1.2,898.9825,898.9825,899.0995,left,1,0.107,,899.0995,900.0976,2,8,40,3,1,partial,1,images/Ex4.jpg,left,training,hard,4,,,,,
,,,,,632c78dac01ee4ebd60f742c,001,23,Male,Nigeria,Bachelor,2024-03-06_16h06.00.264,CRL1h,2023.2.3,Win32,60.24096386,65e67470ae2fbf2172c317b2,65e885b3f0a2707eef3dc1a2,,,,,,,,,,,900.0984,1.3,901.3957,901.3957,901.8618,left,0,0.453,,901.8618,902.8599,2,9,41,12,1,partial,1,images/Ex5.jpg,right,training,hard,4,,,,,
,,,,,632c78dac01ee4ebd60f742c,001,23,Male,Nigeria,Bachelor,2024-03-06_16h06.00.264,CRL1h,2023.2.3,Win32,60.24096386,65e67470ae2fbf2172c317b2,65e885b3f0a2707eef3dc1a2,,,,,,,,,,,902.861,0.6,903.459,903.4591,904.6414,right,1,1.169,,904.6414,905.6389,2,10,42,4,1,partial,1,images/Ex5.jpg,right,training,hard,4,,,,,
,,,,,632c78dac01ee4ebd60f742c,001,23,Male,Nigeria,Bachelor,2024-03-06_16h06.00.264,CRL1h,2023.2.3,Win32,60.24096386,65e67470ae2fbf2172c317b2,65e885b3f0a2707eef3dc1a2,,,,,,,,,,,905.6398,1.1,906.7374,906.7374,907.2408,right,0,0.5003,,907.2408,908.2352,2,11,43,1,1,partial,1,images/Ex2.jpg,left,training,hard,4,,,,,
,,,,,632c78dac01ee4ebd60f742c,001,23,Male,Nigeria,Bachelor,2024-03-06_16h06.00.264,CRL1h,2023.2.3,Win32,60.24096386,65e67470ae2fbf2172c317b2,65e885b3f0a2707eef3dc1a2,,,,,,,,,,,908.2362,1.2,909.4366,909.4366,909.4664,left,0,0.0198,,909.4665,910.4657,2,12,44,7,1,partial,1,images/Ex8.jpg,right,training,hard,4,,,,,
,,,,,632c78dac01ee4ebd60f742c,001,23,Male,Nigeria,Bachelor,2024-03-06_16h06.00.264,CRL1h,2023.2.3,Win32,60.24096386,65e67470ae2fbf2172c317b2,65e885b3f0a2707eef3dc1a2,,,,,,,,,,,910.467,0.5,910.9644,910.9647,911.4837,right,0,0.5176,,911.4838,912.4783,2,13,45,0,1,partial,1,images/Ex1.jpg,left,training,hard,4,,,,,
,,,,,632c78dac01ee4ebd60f742c,001,23,Male,Nigeria,Bachelor,2024-03-06_16h06.00.264,CRL1h,2023.2.3,Win32,60.24096386,65e67470ae2fbf2172c317b2,65e885b3f0a2707eef3dc1a2,,,,,,,,,,,912.4794,1.3,913.7797,913.7797,914.1465,left,0,0.3654,,914.1465,915.1412,2,14,46,6,1,partial,1,images/Ex7.jpg,right,training,hard,4,,,,,
,,,,,632c78dac01ee4ebd60f742c,001,23,Male,Nigeria,Bachelor,2024-03-06_16h06.00.264,CRL1h,2023.2.3,Win32,60.24096386,65e67470ae2fbf2172c317b2,65e885b3f0a2707eef3dc1a2,,,,,,,,,,,915.1422,0.7,915.843,915.8431,916.3265,right,0,0.4821,,916.3265,917.3207,2,15,47,9,1,partial,1,images/Ex2.jpg,left,training,hard,4,,,,,
,,,,,632c78dac01ee4ebd60f742c,001,23,Male,Nigeria,Bachelor,2024-03-06_16h06.00.264,CRL1h,2023.2.3,Win32,60.24096386,65e67470ae2fbf2172c317b2,65e885b3f0a2707eef3dc1a2,,,,,,,,,,,917.3215,0.7,918.0199,918.02,918.6396,right,0,0.6181,,918.6397,919.6337,3,0,48,8,1,partial,1,images/Ex1.jpg,left,training,hard,4,,,,,
,,,,,632c78dac01ee4ebd60f742c,001,23,Male,Nigeria,Bachelor,2024-03-06_16h06.00.264,CRL1h,2023.2.3,Win32,60.24096386,65e67470ae2fbf2172c317b2,65e885b3f0a2707eef3dc1a2,,,,,,,,,,,919.6346,1.1,920.7357,920.7358,920.8529,left,1,0.116,,920.8529,921.8498,3,1,49,9,1,partial,1,images/Ex2.jpg,left,training,hard,4,,,,,
,,,,,632c78dac01ee4ebd60f742c,001,23,Male,Nigeria,Bachelor,2024-03-06_16h06.00.264,CRL1h,2023.2.3,Win32,60.24096386,65e67470ae2fbf2172c317b2,65e885b3f0a2707eef3dc1a2,,,,,,,,,,,921.851,1.2,923.049,923.0491,925.2774,left,0,2.2269,,925.2774,926.2753,3,2,50,14,1,partial,1,images/Ex7.jpg,right,training,hard,4,,,,,
,,,,,632c78dac01ee4ebd60f742c,001,23,Male,Nigeria,Bachelor,2024-03-06_16h06.00.264,CRL1h,2023.2.3,Win32,60.24096386,65e67470ae2fbf2172c317b2,65e885b3f0a2707eef3dc1a2,,,,,,,,,,,926.2758,0.7,926.9725,926.9726,927.4764,right,1,0.5022,,927.4764,928.4712,3,3,51,15,1,partial,1,images/Ex8.jpg,right,training,hard,4,,,,,
,,,,,632c78dac01ee4ebd60f742c,001,23,Male,Nigeria,Bachelor,2024-03-06_16h06.00.264,CRL1h,2023.2.3,Win32,60.24096386,65e67470ae2fbf2172c317b2,65e885b3f0a2707eef3dc1a2,,,,,,,,,,,928.472,1.3,929.7683,929.7683,930.4384,right,0,0.6681,,930.4385,931.4318,3,4,52,11,1,partial,1,images/Ex4.jpg,left,training,hard,4,,,,,
,,,,,632c78dac01ee4ebd60f742c,001,23,Male,Nigeria,Bachelor,2024-03-06_16h06.00.264,CRL1h,2023.2.3,Win32,60.24096386,65e67470ae2fbf2172c317b2,65e885b3f0a2707eef3dc1a2,,,,,,,,,,,931.4329,1.2,932.6344,932.6345,933.3303,right,1,0.687,,933.3305,934.3312,3,5,53,13,1,partial,1,images/Ex6.jpg,right,training,hard,4,,,,,
,,,,,632c78dac01ee4ebd60f742c,001,23,Male,Nigeria,Bachelor,2024-03-06_16h06.00.264,CRL1h,2023.2.3,Win32,60.24096386,65e67470ae2fbf2172c317b2,65e885b3f0a2707eef3dc1a2,,,,,,,,,,,934.3318,0.6,934.9306,934.9306,937.0411,left,0,2.1074,,937.0411,938.0421,3,6,54,4,1,partial,1,images/Ex5.jpg,right,training,hard,4,,,,,
,,,,,632c78dac01ee4ebd60f742c,001,23,Male,Nigeria,Bachelor,2024-03-06_16h06.00.264,CRL1h,2023.2.3,Win32,60.24096386,65e67470ae2fbf2172c317b2,65e885b3f0a2707eef3dc1a2,,,,,,,,,,,938.0542,0.9,938.9543,938.9543,940.9192,right,1,1.9572,,940.9195,941.9197,3,7,55,7,1,partial,1,images/Ex8.jpg,right,training,hard,4,,,,,
,,,,,632c78dac01ee4ebd60f742c,001,23,Male,Nigeria,Bachelor,2024-03-06_16h06.00.264,CRL1h,2023.2.3,Win32,60.24096386,65e67470ae2fbf2172c317b2,65e885b3f0a2707eef3dc1a2,,,,,,,,,,,941.9341,1.4,943.3305,943.3306,944.7295,right,0,1.3844,,944.7296,945.7304,3,8,56,2,1,partial,1,images/Ex3.jpg,left,training,hard,4,,,,,
,,,,,632c78dac01ee4ebd60f742c,001,23,Male,Nigeria,Bachelor,2024-03-06_16h06.00.264,CRL1h,2023.2.3,Win32,60.24096386,65e67470ae2fbf2172c317b2,65e885b3f0a2707eef3dc1a2,,,,,,,,,,,945.7308,0.5,946.2301,946.2301,946.797,right,1,0.5653,,946.7971,947.7906,3,9,57,5,1,partial,1,images/Ex6.jpg,right,training,hard,4,,,,,
,,,,,632c78dac01ee4ebd60f742c,001,23,Male,Nigeria,Bachelor,2024-03-06_16h06.00.264,CRL1h,2023.2.3,Win32,60.24096386,65e67470ae2fbf2172c317b2,65e885b3f0a2707eef3dc1a2,,,,,,,,,,,947.7912,0.5,948.2902,948.2903,949.026,left,1,0.7332,,949.026,950.0217,3,10,58,3,1,partial,1,images/Ex4.jpg,left,training,hard,4,,,,,
,,,,,632c78dac01ee4ebd60f742c,001,23,Male,Nigeria,Bachelor,2024-03-06_16h06.00.264,CRL1h,2023.2.3,Win32,60.24096386,65e67470ae2fbf2172c317b2,65e885b3f0a2707eef3dc1a2,,,,,,,,,,,950.0223,0.7,950.7206,950.7208,951.3695,right,0,0.6419,,951.3698,952.368,3,11,59,10,1,partial,1,images/Ex3.jpg,left,training,hard,4,,,,,
,,,,,632c78dac01ee4ebd60f742c,001,23,Male,Nigeria,Bachelor,2024-03-06_16h06.00.264,CRL1h,2023.2.3,Win32,60.24096386,65e67470ae2fbf2172c317b2,65e885b3f0a2707eef3dc1a2,,,,,,,,,,,952.3684,1,953.3671,953.3672,954.4841,right,1,1.1156,,954.4842,955.4814,3,12,60,12,1,partial,1,images/Ex5.jpg,right,training,hard,4,,,,,
,,,,,632c78dac01ee4ebd60f742c,001,23,Male,Nigeria,Bachelor,2024-03-06_16h06.00.264,CRL1h,2023.2.3,Win32,60.24096386,65e67470ae2fbf2172c317b2,65e885b3f0a2707eef3dc1a2,,,,,,,,,,,955.4821,0.9,956.3774,956.3775,958.5741,right,0,2.1854,,958.5742,959.5747,3,13,61,1,1,partial,1,images/Ex2.jpg,left,training,hard,4,,,,,
,,,,,632c78dac01ee4ebd60f742c,001,23,Male,Nigeria,Bachelor,2024-03-06_16h06.00.264,CRL1h,2023.2.3,Win32,60.24096386,65e67470ae2fbf2172c317b2,65e885b3f0a2707eef3dc1a2,,,,,,,,,,,959.5885,0.8,960.3906,960.3907,971.0237,left,0,10.6318,,971.0238,972.0232,3,14,62,6,1,partial,1,images/Ex7.jpg,right,training,hard,4,,,,,
,,,,,632c78dac01ee4ebd60f742c,001,23,Male,Nigeria,Bachelor,2024-03-06_16h06.00.264,CRL1h,2023.2.3,Win32,60.24096386,65e67470ae2fbf2172c317b2,65e885b3f0a2707eef3dc1a2,,,,,,,,,,,972.042,1.1,973.1359,973.136,978.6108,right,0,5.4598,,978.6109,979.6078,3,15,63,0,1,partial,1,images/Ex1.jpg,left,training,hard,4,,,,,
,,,,,632c78dac01ee4ebd60f742c,001,23,Male,Nigeria,Bachelor,2024-03-06_16h06.00.264,CRL1h,2023.2.3,Win32,60.24096386,65e67470ae2fbf2172c317b2,65e885b3f0a2707eef3dc1a2,,,,,,,,,,,979.6201,0.7,980.3101,980.3102,983.7023,left,0,3.3882,,983.7024,984.7062,4,0,64,13,1,partial,1,images/Ex6.jpg,right,training,hard,4,,,,,
,,,,,632c78dac01ee4ebd60f742c,001,23,Male,Nigeria,Bachelor,2024-03-06_16h06.00.264,CRL1h,2023.2.3,Win32,60.24096386,65e67470ae2fbf2172c317b2,65e885b3f0a2707eef3dc1a2,,,,,,,,,,,984.7466,1.1,985.8493,985.8494,987.2174,right,0,1.3648,,987.2174,988.2115,4,1,65,1,1,partial,1,images/Ex2.jpg,left,training,hard,4,,,,,
,,,,,632c78dac01ee4ebd60f742c,001,23,Male,Nigeria,Bachelor,2024-03-06_16h06.00.264,CRL1h,2023.2.3,Win32,60.24096386,65e67470ae2fbf2172c317b2,65e885b3f0a2707eef3dc1a2,,,,,,,,,,,988.2251,1.3,989.5294,989.5295,994.021,left,0,4.4851,,994.021,995.0215,4,2,66,7,1,partial,1,images/Ex8.jpg,right,training,hard,4,,,,,
,,,,,632c78dac01ee4ebd60f742c,001,23,Male,Nigeria,Bachelor,2024-03-06_16h06.00.264,CRL1h,2023.2.3,Win32,60.24096386,65e67470ae2fbf2172c317b2,65e885b3f0a2707eef3dc1a2,,,,,,,,,,,995.0388,0.7,995.7338,995.734,998.9281,right,1,3.1908,,998.9283,999.9308,4,3,67,4,1,partial,1,images/Ex5.jpg,right,training,hard,4,,,,,
,,,,,632c78dac01ee4ebd60f742c,001,23,Male,Nigeria,Bachelor,2024-03-06_16h06.00.264,CRL1h,2023.2.3,Win32,60.24096386,65e67470ae2fbf2172c317b2,65e885b3f0a2707eef3dc1a2,,,,,,,,,,,999.9679,0.9,1000.8583,1000.8584,1004.47,right,0,3.6071,,1004.4702,1005.468,4,4,68,11,1,partial,1,images/Ex4.jpg,left,training,hard,4,,,,,
,,,,,632c78dac01ee4ebd60f742c,001,23,Male,Nigeria,Bachelor,2024-03-06_16h06.00.264,CRL1h,2023.2.3,Win32,60.24096386,65e67470ae2fbf2172c317b2,65e885b3f0a2707eef3dc1a2,,,,,,,,,,,1005.4936,0.8,1006.283,1006.283,1010.1115,right,1,3.82,,1010.1116,1011.1092,4,5,69,15,1,partial,1,images/Ex8.jpg,right,training,hard,4,,,,,
,,,,,632c78dac01ee4ebd60f742c,001,23,Male,Nigeria,Bachelor,2024-03-06_16h06.00.264,CRL1h,2023.2.3,Win32,60.24096386,65e67470ae2fbf2172c317b2,65e885b3f0a2707eef3dc1a2,,,,,,,,,,,1011.1262,0.8,1011.9284,1011.9285,1013.2101,left,1,1.2795,,1013.2102,1014.2042,4,6,70,10,1,partial,1,images/Ex3.jpg,left,training,hard,4,,,,,
,,,,,632c78dac01ee4ebd60f742c,001,23,Male,Nigeria,Bachelor,2024-03-06_16h06.00.264,CRL1h,2023.2.3,Win32,60.24096386,65e67470ae2fbf2172c317b2,65e885b3f0a2707eef3dc1a2,,,,,,,,,,,1014.2052,0.9,1015.1066,1015.1066,1019.4972,right,0,4.3802,,1019.4972,1020.5004,4,7,71,2,1,partial,1,images/Ex3.jpg,left,training,hard,4,,,,,
,,,,,632c78dac01ee4ebd60f742c,001,23,Male,Nigeria,Bachelor,2024-03-06_16h06.00.264,CRL1h,2023.2.3,Win32,60.24096386,65e67470ae2fbf2172c317b2,65e885b3f0a2707eef3dc1a2,,,,,,,,,,,1020.5468,0.6,1021.1446,1021.1447,1021.4113,left,0,0.264,,1021.4113,1022.4088,4,8,72,5,1,partial,1,images/Ex6.jpg,right,training,hard,4,,,,,
,,,,,632c78dac01ee4ebd60f742c,001,23,Male,Nigeria,Bachelor,2024-03-06_16h06.00.264,CRL1h,2023.2.3,Win32,60.24096386,65e67470ae2fbf2172c317b2,65e885b3f0a2707eef3dc1a2,,,,,,,,,,,1022.4104,1.5,1023.9059,1023.9059,1033.974,left,0,10.065,,1033.9741,1034.972,4,9,73,14,1,partial,1,images/Ex7.jpg,right,training,hard,4,,,,,
,,,,,632c78dac01ee4ebd60f742c,001,23,Male,Nigeria,Bachelor,2024-03-06_16h06.00.264,CRL1h,2023.2.3,Win32,60.24096386,65e67470ae2fbf2172c317b2,65e885b3f0a2707eef3dc1a2,,,,,,,,,,,1034.9848,1.5,1036.4868,1036.4869,1037.4353,right,1,0.946,,1037.4354,1038.4339,4,10,74,12,1,partial,1,images/Ex5.jpg,right,training,hard,4,,,,,
,,,,,632c78dac01ee4ebd60f742c,001,23,Male,Nigeria,Bachelor,2024-03-06_16h06.00.264,CRL1h,2023.2.3,Win32,60.24096386,65e67470ae2fbf2172c317b2,65e885b3f0a2707eef3dc1a2,,,,,,,,,,,1038.4349,1.5,1039.9313,1039.9314,1042.8111,right,0,2.8687,,1042.8115,1043.8087,4,11,75,9,1,partial,1,images/Ex2.jpg,left,training,hard,4,,,,,
,,,,,632c78dac01ee4ebd60f742c,001,23,Male,Nigeria,Bachelor,2024-03-06_16h06.00.264,CRL1h,2023.2.3,Win32,60.24096386,65e67470ae2fbf2172c317b2,65e885b3f0a2707eef3dc1a2,,,,,,,,,,,1043.8475,1.5,1045.3402,1045.3403,1047.0041,right,0,1.6527,,1047.0042,1048.0025,4,12,76,3,1,partial,1,images/Ex4.jpg,left,training,hard,4,,,,,
,,,,,632c78dac01ee4ebd60f742c,001,23,Male,Nigeria,Bachelor,2024-03-06_16h06.00.264,CRL1h,2023.2.3,Win32,60.24096386,65e67470ae2fbf2172c317b2,65e885b3f0a2707eef3dc1a2,,,,,,,,,,,1048.0038,0.8,1048.8015,1048.8016,1049.221,left,1,0.417,,1049.221,1050.2153,4,13,77,0,1,partial,1,images/Ex1.jpg,left,training,hard,4,,,,,
,,,,,632c78dac01ee4ebd60f742c,001,23,Male,Nigeria,Bachelor,2024-03-06_16h06.00.264,CRL1h,2023.2.3,Win32,60.24096386,65e67470ae2fbf2172c317b2,65e885b3f0a2707eef3dc1a2,,,,,,,,,,,1050.2161,1.2,1051.4169,1051.417,1055.2415,left,1,3.82,,1055.2415,1056.2396,4,14,78,8,1,partial,1,images/Ex1.jpg,left,training,hard,4,,,,,
,,,,,632c78dac01ee4ebd60f742c,001,23,Male,Nigeria,Bachelor,2024-03-06_16h06.00.264,CRL1h,2023.2.3,Win32,60.24096386,65e67470ae2fbf2172c317b2,65e885b3f0a2707eef3dc1a2,,,,,,,,,,,1056.2588,0.6,1056.8574,1056.8574,1061.4987,left,0,4.6335,,1061.4988,1062.4968,4,15,79,6,1,partial,1,images/Ex7.jpg,right,training,hard,4,,,,,
,,,,,632c78dac01ee4ebd60f742c,001,23,Male,Nigeria,Bachelor,2024-03-06_16h06.00.264,CRL1h,2023.2.3,Win32,60.24096386,65e67470ae2fbf2172c317b2,65e885b3f0a2707eef3dc1a2,,,,,,,,,,,1062.5349,1.4,1063.9274,1063.9275,1066.6397,left,1,2.6993,,1066.6397,1067.6382,5,0,80,11,1,partial,1,images/Ex4.jpg,left,training,hard,4,,,,,
,,,,,632c78dac01ee4ebd60f742c,001,23,Male,Nigeria,Bachelor,2024-03-06_16h06.00.264,CRL1h,2023.2.3,Win32,60.24096386,65e67470ae2fbf2172c317b2,65e885b3f0a2707eef3dc1a2,,,,,,,,,,,1067.6513,0.9,1068.5539,1068.5539,1072.6471,right,1,4.0801,,1072.6472,1073.6456,5,1,81,14,1,partial,1,images/Ex7.jpg,right,training,hard,4,,,,,
,,,,,632c78dac01ee4ebd60f742c,001,23,Male,Nigeria,Bachelor,2024-03-06_16h06.00.264,CRL1h,2023.2.3,Win32,60.24096386,65e67470ae2fbf2172c317b2,65e885b3f0a2707eef3dc1a2,,,,,,,,,,,1073.658,1.4,1075.0601,1075.0602,1077.9579,left,0,2.8846,,1077.958,1078.9543,5,2,82,12,1,partial,1,images/Ex5.jpg,right,training,hard,4,,,,,
,,,,,632c78dac01ee4ebd60f742c,001,23,Male,Nigeria,Bachelor,2024-03-06_16h06.00.264,CRL1h,2023.2.3,Win32,60.24096386,65e67470ae2fbf2172c317b2,65e885b3f0a2707eef3dc1a2,,,,,,,,,,,1078.9686,0.6,1079.57,1079.5701,1104.1322,left,0,24.5504,,1104.1323,1105.1302,5,3,83,15,1,partial,1,images/Ex8.jpg,right,training,hard,4,,,,,
,,,,,632c78dac01ee4ebd60f742c,001,23,Male,Nigeria,Bachelor,2024-03-06_16h06.00.264,CRL1h,2023.2.3,Win32,60.24096386,65e67470ae2fbf2172c317b2,65e885b3f0a2707eef3dc1a2,,,,,,,,,,,1105.1471,0.7,1105.846,1105.846,1123.0568,left,1,17.2073,,1123.0569,1124.0548,5,4,84,3,1,partial,1,images/Ex4.jpg,left,training,hard,4,,,,,
,,,,,632c78dac01ee4ebd60f742c,001,23,Male,Nigeria,Bachelor,2024-03-06_16h06.00.264,CRL1h,2023.2.3,Win32,60.24096386,65e67470ae2fbf2172c317b2,65e885b3f0a2707eef3dc1a2,,,,,,,,,,,1124.0714,0.6,1124.6705,1124.6705,1125.116,left,0,0.432,,1125.1162,1126.1145,5,5,85,4,1,partial,1,images/Ex5.jpg,right,training,hard,4,,,,,
,,,,,632c78dac01ee4ebd60f742c,001,23,Male,Nigeria,Bachelor,2024-03-06_16h06.00.264,CRL1h,2023.2.3,Win32,60.24096386,65e67470ae2fbf2172c317b2,65e885b3f0a2707eef3dc1a2,,,,,,,,,,,1126.115,0.8,1126.9144,1126.9146,1136.1497,right,1,9.2235,,1136.1497,1137.1474,5,6,86,5,1,partial,1,images/Ex6.jpg,right,training,hard,4,,,,,
,,,,,632c78dac01ee4ebd60f742c,001,23,Male,Nigeria,Bachelor,2024-03-06_16h06.00.264,CRL1h,2023.2.3,Win32,60.24096386,65e67470ae2fbf2172c317b2,65e885b3f0a2707eef3dc1a2,,,,,,,,,,,1137.1609,0.9,1138.0627,1138.0627,1141.6421,right,1,3.5743,,1141.6423,1142.6394,5,7,87,13,1,partial,1,images/Ex6.jpg,right,training,hard,4,,,,,
,,,,,632c78dac01ee4ebd60f742c,001,23,Male,Nigeria,Bachelor,2024-03-06_16h06.00.264,CRL1h,2023.2.3,Win32,60.24096386,65e67470ae2fbf2172c317b2,65e885b3f0a2707eef3dc1a2,,,,,,,,,,,1142.6609,0.6,1143.2548,1143.2548,1150.9435,right,0,7.6755,,1150.9436,1151.9412,5,8,88,1,1,partial,1,images/Ex2.jpg,left,training,hard,4,,,,,
,,,,,632c78dac01ee4ebd60f742c,001,23,Male,Nigeria,Bachelor,2024-03-06_16h06.00.264,CRL1h,2023.2.3,Win32,60.24096386,65e67470ae2fbf2172c317b2,65e885b3f0a2707eef3dc1a2,,,,,,,,,,,1151.9753,1.2,1153.1725,1153.1725,1153.6233,left,1,0.4456,,1153.6233,1154.6211,5,9,89,8,1,partial,1,images/Ex1.jpg,left,training,hard,4,,,,,
,,,,,632c78dac01ee4ebd60f742c,001,23,Male,Nigeria,Bachelor,2024-03-06_16h06.00.264,CRL1h,2023.2.3,Win32,60.24096386,65e67470ae2fbf2172c317b2,65e885b3f0a2707eef3dc1a2,,,,,,,,,,,1154.6223,0.9,1155.5193,1155.5195,1156.0516,left,1,0.5229,,1156.0517,1157.0498,5,10,90,10,1,partial,1,images/Ex3.jpg,left,training,hard,4,,,,,
,,,,,632c78dac01ee4ebd60f742c,001,23,Male,Nigeria,Bachelor,2024-03-06_16h06.00.264,CRL1h,2023.2.3,Win32,60.24096386,65e67470ae2fbf2172c317b2,65e885b3f0a2707eef3dc1a2,,,,,,,,,,,1157.0505,1.3,1158.3483,1158.3483,1160.2167,right,0,1.8629,,1160.2167,1161.2111,5,11,91,0,1,partial,1,images/Ex1.jpg,left,training,hard,4,,,,,
,,,,,632c78dac01ee4ebd60f742c,001,23,Male,Nigeria,Bachelor,2024-03-06_16h06.00.264,CRL1h,2023.2.3,Win32,60.24096386,65e67470ae2fbf2172c317b2,65e885b3f0a2707eef3dc1a2,,,,,,,,,,,1161.2121,1.1,1162.312,1162.312,1163.9632,left,0,1.648,,1163.9634,1164.9583,5,12,92,6,1,partial,1,images/Ex7.jpg,right,training,hard,4,,,,,
,,,,,632c78dac01ee4ebd60f742c,001,23,Male,Nigeria,Bachelor,2024-03-06_16h06.00.264,CRL1h,2023.2.3,Win32,60.24096386,65e67470ae2fbf2172c317b2,65e885b3f0a2707eef3dc1a2,,,,,,,,,,,1164.9588,1.4,1166.3567,1166.3567,1169.1889,left,1,2.8294,,1169.1892,1170.1799,5,13,93,9,1,partial,1,images/Ex2.jpg,left,training,hard,4,,,,,
,,,,,632c78dac01ee4ebd60f742c,001,23,Male,Nigeria,Bachelor,2024-03-06_16h06.00.264,CRL1h,2023.2.3,Win32,60.24096386,65e67470ae2fbf2172c317b2,65e885b3f0a2707eef3dc1a2,,,,,,,,,,,1170.1966,1.2,1171.3948,1171.3949,1177.7362,left,0,6.3357,,1177.7363,1178.7332,5,14,94,7,1,partial,1,images/Ex8.jpg,right,training,hard,4,,,,,
,,,,,632c78dac01ee4ebd60f742c,001,23,Male,Nigeria,Bachelor,2024-03-06_16h06.00.264,CRL1h,2023.2.3,Win32,60.24096386,65e67470ae2fbf2172c317b2,65e885b3f0a2707eef3dc1a2,,,,,,,,,,,1178.757,0.7,1179.4525,1179.4525,1181.4505,left,1,1.9959,,1181.4506,1182.4444,5,15,95,2,1,partial,1,images/Ex3.jpg,left,training,hard,4,,,,,
,,,,,632c78dac01ee4ebd60f742c,001,23,Male,Nigeria,Bachelor,2024-03-06_16h06.00.264,CRL1h,2023.2.3,Win32,60.24096386,65e67470ae2fbf2172c317b2,65e885b3f0a2707eef3dc1a2,,,,,,,,,,,1182.4457,0.8,1183.2428,1183.2429,1184.0274,right,0,0.7826,,1184.0275,1185.0269,6,0,96,8,1,partial,1,images/Ex1.jpg,left,training,hard,4,,,,,
,,,,,632c78dac01ee4ebd60f742c,001,23,Male,Nigeria,Bachelor,2024-03-06_16h06.00.264,CRL1h,2023.2.3,Win32,60.24096386,65e67470ae2fbf2172c317b2,65e885b3f0a2707eef3dc1a2,,,,,,,,,,,1185.0275,0.7,1185.7226,1185.7226,1192.5664,right,0,6.8416,,1192.5665,1193.5605,6,1,97,11,1,partial,1,images/Ex4.jpg,left,training,hard,4,,,,,
,,,,,632c78dac01ee4ebd60f742c,001,23,Male,Nigeria,Bachelor,2024-03-06_16h06.00.264,CRL1h,2023.2.3,Win32,60.24096386,65e67470ae2fbf2172c317b2,65e885b3f0a2707eef3dc1a2,,,,,,,,,,,1193.5733,1.2,1194.7621,1194.7622,1201.6717,right,1,6.9072,,1201.6721,1202.6679,6,2,98,4,1,partial,1,images/Ex5.jpg,right,training,hard,4,,,,,
,,,,,632c78dac01ee4ebd60f742c,001,23,Male,Nigeria,Bachelor,2024-03-06_16h06.00.264,CRL1h,2023.2.3,Win32,60.24096386,65e67470ae2fbf2172c317b2,65e885b3f0a2707eef3dc1a2,,,,,,,,,,,1202.6939,1.2,1203.8945,1203.8946,1204.277,left,0,0.3683,,1204.2771,1205.2756,6,3,99,14,1,partial,1,images/Ex7.jpg,right,training,hard,4,,,,,
,,,,,632c78dac01ee4ebd60f742c,001,23,Male,Nigeria,Bachelor,2024-03-06_16h06.00.264,CRL1h,2023.2.3,Win32,60.24096386,65e67470ae2fbf2172c317b2,65e885b3f0a2707eef3dc1a2,,,,,,,,,,,1205.2771,0.6,1205.8747,1205.8747,1206.1407,right,0,0.2539,,1206.1408,1207.1392,6,4,100,2,1,partial,1,images/Ex3.jpg,left,training,hard,4,,,,,
,,,,,632c78dac01ee4ebd60f742c,001,23,Male,Nigeria,Bachelor,2024-03-06_16h06.00.264,CRL1h,2023.2.3,Win32,60.24096386,65e67470ae2fbf2172c317b2,65e885b3f0a2707eef3dc1a2,,,,,,,,,,,1207.1398,1.4,1208.5372,1208.5372,1208.8702,right,0,0.3192,,1208.8703,1209.87,6,5,101,10,1,partial,1,images/Ex3.jpg,left,training,hard,4,,,,,
,,,,,632c78dac01ee4ebd60f742c,001,23,Male,Nigeria,Bachelor,2024-03-06_16h06.00.264,CRL1h,2023.2.3,Win32,60.24096386,65e67470ae2fbf2172c317b2,65e885b3f0a2707eef3dc1a2,,,,,,,,,,,1209.8714,0.8,1210.6677,1210.6677,1210.9007,right,0,0.219,,1210.9008,1211.8983,6,6,102,3,1,partial,1,images/Ex4.jpg,left,training,hard,4,,,,,
,,,,,632c78dac01ee4ebd60f742c,001,23,Male,Nigeria,Bachelor,2024-03-06_16h06.00.264,CRL1h,2023.2.3,Win32,60.24096386,65e67470ae2fbf2172c317b2,65e885b3f0a2707eef3dc1a2,,,,,,,,,,,1211.899,1,1212.8967,1212.8967,1214.9109,right,1,2.0112,,1214.911,1215.9096,6,7,103,6,1,partial,1,images/Ex7.jpg,right,training,hard,4,,,,,
,,,,,632c78dac01ee4ebd60f742c,001,23,Male,Nigeria,Bachelor,2024-03-06_16h06.00.264,CRL1h,2023.2.3,Win32,60.24096386,65e67470ae2fbf2172c317b2,65e885b3f0a2707eef3dc1a2,,,,,,,,,,,1215.9108,0.6,1216.5079,1216.5079,1219.3714,right,1,2.8579,,1219.3715,1220.3692,6,8,104,5,1,partial,1,images/Ex6.jpg,right,training,hard,4,,,,,
,,,,,632c78dac01ee4ebd60f742c,001,23,Male,Nigeria,Bachelor,2024-03-06_16h06.00.264,CRL1h,2023.2.3,Win32,60.24096386,65e67470ae2fbf2172c317b2,65e885b3f0a2707eef3dc1a2,,,,,,,,,,,1220.4029,0.9,1221.3011,1221.3011,1224.5138,left,1,3.2025,,1224.514,1225.5108,6,9,105,0,1,partial,1,images/Ex1.jpg,left,training,hard,4,,,,,
,,,,,632c78dac01ee4ebd60f742c,001,23,Male,Nigeria,Bachelor,2024-03-06_16h06.00.264,CRL1h,2023.2.3,Win32,60.24096386,65e67470ae2fbf2172c317b2,65e885b3f0a2707eef3dc1a2,,,,,,,,,,,1225.5302,0.8,1226.3262,1226.3262,1226.6107,right,1,0.2735,,1226.6109,1227.6077,6,10,106,12,1,partial,1,images/Ex5.jpg,right,training,hard,4,,,,,
,,,,,632c78dac01ee4ebd60f742c,001,23,Male,Nigeria,Bachelor,2024-03-06_16h06.00.264,CRL1h,2023.2.3,Win32,60.24096386,65e67470ae2fbf2172c317b2,65e885b3f0a2707eef3dc1a2,,,,,,,,,,,1227.6088,1.3,1228.9054,1228.9054,1230.3534,left,1,1.4404,,1230.3534,1231.3519,6,11,107,9,1,partial,1,images/Ex2.jpg,left,training,hard,4,,,,,
,,,,,632c78dac01ee4ebd60f742c,001,23,Male,Nigeria,Bachelor,2024-03-06_16h06.00.264,CRL1h,2023.2.3,Win32,60.24096386,65e67470ae2fbf2172c317b2,65e885b3f0a2707eef3dc1a2,,,,,,,,,,,1231.3529,0.9,1232.2512,1232.2513,1234.2984,right,1,2.0393,,1234.2984,1235.2958,6,12,108,13,1,partial,1,images/Ex6.jpg,right,training,hard,4,,,,,
,,,,,632c78dac01ee4ebd60f742c,001,23,Male,Nigeria,Bachelor,2024-03-06_16h06.00.264,CRL1h,2023.2.3,Win32,60.24096386,65e67470ae2fbf2172c317b2,65e885b3f0a2707eef3dc1a2,,,,,,,,,,,1235.3336,1.4,1236.727,1236.7272,1240.7707,right,1,4.0369,,1240.7707,1241.7689,6,13,109,7,1,partial,1,images/Ex8.jpg,right,training,hard,4,,,,,
,,,,,632c78dac01ee4ebd60f742c,001,23,Male,Nigeria,Bachelor,2024-03-06_16h06.00.264,CRL1h,2023.2.3,Win32,60.24096386,65e67470ae2fbf2172c317b2,65e885b3f0a2707eef3dc1a2,,,,,,,,,,,1241.7821,1,1242.7843,1242.7843,1243.2998,right,0,0.5062,,1243.2998,1244.2984,6,14,110,1,1,partial,1,images/Ex2.jpg,left,training,hard,4,,,,,
,,,,,632c78dac01ee4ebd60f742c,001,23,Male,Nigeria,Bachelor,2024-03-06_16h06.00.264,CRL1h,2023.2.3,Win32,60.24096386,65e67470ae2fbf2172c317b2,65e885b3f0a2707eef3dc1a2,,,,,,,,,,,1244.299,0.8,1245.0968,1245.0969,1245.1468,left,0,0.0365,,1245.1469,1246.1456,6,15,111,15,1,partial,1,images/Ex8.jpg,right,training,hard,4,,,,,
,,,,,632c78dac01ee4ebd60f742c,001,23,Male,Nigeria,Bachelor,2024-03-06_16h06.00.264,CRL1h,2023.2.3,Win32,60.24096386,65e67470ae2fbf2172c317b2,65e885b3f0a2707eef3dc1a2,,,,,,,,,,,1246.146,1.3,1247.444,1247.444,1248.8082,right,0,1.3555,,1248.8083,1249.8065,7,0,112,2,1,partial,1,images/Ex3.jpg,left,training,hard,4,,,,,
,,,,,632c78dac01ee4ebd60f742c,001,23,Male,Nigeria,Bachelor,2024-03-06_16h06.00.264,CRL1h,2023.2.3,Win32,60.24096386,65e67470ae2fbf2172c317b2,65e885b3f0a2707eef3dc1a2,,,,,,,,,,,1249.8075,0.7,1250.5055,1250.5056,1253.6508,right,1,3.1373,,1253.6509,1254.6493,7,1,113,5,1,partial,1,images/Ex6.jpg,right,training,hard,4,,,,,
,,,,,632c78dac01ee4ebd60f742c,001,23,Male,Nigeria,Bachelor,2024-03-06_16h06.00.264,CRL1h,2023.2.3,Win32,60.24096386,65e67470ae2fbf2172c317b2,65e885b3f0a2707eef3dc1a2,,,,,,,,,,,1254.6743,1.2,1255.864,1255.864,1256.2487,right,1,0.3749,,1256.2487,1257.2449,7,2,114,4,1,partial,1,images/Ex5.jpg,right,training,hard,4,,,,,
,,,,,632c78dac01ee4ebd60f742c,001,23,Male,Nigeria,Bachelor,2024-03-06_16h06.00.264,CRL1h,2023.2.3,Win32,60.24096386,65e67470ae2fbf2172c317b2,65e885b3f0a2707eef3dc1a2,,,,,,,,,,,1257.2458,0.9,1258.1437,1258.1438,1259.6457,right,1,1.5005,,1259.6458,1260.6407,7,3,115,13,1,partial,1,images/Ex6.jpg,right,training,hard,4,,,,,
,,,,,632c78dac01ee4ebd60f742c,001,23,Male,Nigeria,Bachelor,2024-03-06_16h06.00.264,CRL1h,2023.2.3,Win32,60.24096386,65e67470ae2fbf2172c317b2,65e885b3f0a2707eef3dc1a2,,,,,,,,,,,1260.6419,0.9,1261.5431,1261.5431,1261.6103,left,0,0.0656,,1261.6103,1262.6044,7,4,116,7,1,partial,1,images/Ex8.jpg,right,training,hard,4,,,,,
,,,,,632c78dac01ee4ebd60f742c,001,23,Male,Nigeria,Bachelor,2024-03-06_16h06.00.264,CRL1h,2023.2.3,Win32,60.24096386,65e67470ae2fbf2172c317b2,65e885b3f0a2707eef3dc1a2,,,,,,,,,,,1262.6058,1.4,1264.0072,1264.0073,1264.5877,right,0,0.5789,,1264.5877,1265.5866,7,5,117,1,1,partial,1,images/Ex2.jpg,left,training,hard,4,,,,,
,,,,,632c78dac01ee4ebd60f742c,001,23,Male,Nigeria,Bachelor,2024-03-06_16h06.00.264,CRL1h,2023.2.3,Win32,60.24096386,65e67470ae2fbf2172c317b2,65e885b3f0a2707eef3dc1a2,,,,,,,,,,,1265.5876,0.5,1266.0816,1266.0817,1266.5315,left,1,0.438,,1266.5318,1267.5336,7,6,118,10,1,partial,1,images/Ex3.jpg,left,training,hard,4,,,,,
,,,,,632c78dac01ee4ebd60f742c,001,23,Male,Nigeria,Bachelor,2024-03-06_16h06.00.264,CRL1h,2023.2.3,Win32,60.24096386,65e67470ae2fbf2172c317b2,65e885b3f0a2707eef3dc1a2,,,,,,,,,,,1267.5346,0.8,1268.3321,1268.3322,1268.9448,right,0,0.5984,,1268.9448,1269.9465,7,7,119,11,1,partial,1,images/Ex4.jpg,left,training,hard,4,,,,,
,,,,,632c78dac01ee4ebd60f742c,001,23,Male,Nigeria,Bachelor,2024-03-06_16h06.00.264,CRL1h,2023.2.3,Win32,60.24096386,65e67470ae2fbf2172c317b2,65e885b3f0a2707eef3dc1a2,,,,,,,,,,,1269.9472,1,1270.9405,1270.9406,1271.3939,left,1,0.4518,,1271.3939,1272.3889,7,8,120,8,1,partial,1,images/Ex1.jpg,left,training,hard,4,,,,,
,,,,,632c78dac01ee4ebd60f742c,001,23,Male,Nigeria,Bachelor,2024-03-06_16h06.00.264,CRL1h,2023.2.3,Win32,60.24096386,65e67470ae2fbf2172c317b2,65e885b3f0a2707eef3dc1a2,,,,,,,,,,,1272.3909,0.9,1273.2905,1273.2905,1273.8201,left,0,0.5201,,1273.8202,1274.8187,7,9,121,6,1,partial,1,images/Ex7.jpg,right,training,hard,4,,,,,
,,,,,632c78dac01ee4ebd60f742c,001,23,Male,Nigeria,Bachelor,2024-03-06_16h06.00.264,CRL1h,2023.2.3,Win32,60.24096386,65e67470ae2fbf2172c317b2,65e885b3f0a2707eef3dc1a2,,,,,,,,,,,1274.82,1.1,1275.9208,1275.9209,1276.301,right,1,0.3788,,1276.3011,1277.2974,7,10,122,15,1,partial,1,images/Ex8.jpg,right,training,hard,4,,,,,
,,,,,632c78dac01ee4ebd60f742c,001,23,Male,Nigeria,Bachelor,2024-03-06_16h06.00.264,CRL1h,2023.2.3,Win32,60.24096386,65e67470ae2fbf2172c317b2,65e885b3f0a2707eef3dc1a2,,,,,,,,,,,1277.2984,1.4,1278.6984,1278.6984,1279.0291,right,1,0.3229,,1279.0291,1280.03,7,11,123,14,1,partial,1,images/Ex7.jpg,right,training,hard,4,,,,,
