infCons.started,infCons.stopped,resp_consent.keys,resp_consent.rt,resp_consent.duration,participant,session,Age?,Gender?,Nationality?,Highest Educational Degree?,date,expName,psychopyVersion,OS,frameRate,STUDY_ID,SESSION_ID,instructions.started,instructions.stopped,resp_instructions.keys,resp_instructions.rt,resp_instructions.duration,nextTask.started,nextTask.stopped,ready_task.keys,ready_task.rt,ready_task.duration,fixation.started,ITI,fixation.stopped,stim.started,stim.stopped,response.keys,response.corr,response.rt,response.duration,feedback.started,feedback.stopped,trials.thisRepN,trials.thisTrialN,trials.thisN,trials.thisIndex,trials.ran,task,phase,Exemplars,r_correct,condition,difficulty,set,end.started,end.stopped,resp_end.keys,resp_end.rt,resp_end.duration
0.0007,34.344,space,34.3033,,637fcee60a8378c1c3a65898,001,,,,,2024-03-06_12h16.14.481,CRL1h,2023.2.3,Linux x86_64,59.88023952,65e67470ae2fbf2172c317b2,65e85e752eabfe91b174cc95,,,,,,,,,,,,,,,,,,,,,,,,,,,,,,,,,,,,,,
,,,,,637fcee60a8378c1c3a65898,001,,,,,2024-03-06_12h16.14.481,CRL1h,2023.2.3,Linux x86_64,59.88023952,65e67470ae2fbf2172c317b2,65e85e752eabfe91b174cc95,34.345,80.5623,space,46.1904,,,,,,,,,,,,,,,,,,,,,,,,,,,,,,,,,,
,,,,,637fcee60a8378c1c3a65898,001,,,,,2024-03-06_12h16.14.481,CRL1h,2023.2.3,Linux x86_64,59.88023952,65e67470ae2fbf2172c317b2,65e85e752eabfe91b174cc95,,,,,,80.5969,83.9042,space,3.2898,,83.9289,1,84.9206,84.9208,89.3181,left,1,4.3885,,89.3311,90.3132,0,0,0,3,1,partial,1,images/Ex12.jpg,left,training,hard,2,,,,,
,,,,,637fcee60a8378c1c3a65898,001,,,,,2024-03-06_12h16.14.481,CRL1h,2023.2.3,Linux x86_64,59.88023952,65e67470ae2fbf2172c317b2,65e85e752eabfe91b174cc95,,,,,,,,,,,90.3154,0.9,91.2146,91.2153,93.2321,right,1,2.0107,,93.2323,94.2329,0,1,1,6,1,partial,1,images/Ex15.jpg,right,training,hard,2,,,,,
,,,,,637fcee60a8378c1c3a65898,001,,,,,2024-03-06_12h16.14.481,CRL1h,2023.2.3,Linux x86_64,59.88023952,65e67470ae2fbf2172c317b2,65e85e752eabfe91b174cc95,,,,,,,,,,,94.2343,1.4,95.6346,95.6346,97.7045,right,1,2.0673,,97.7047,98.7008,0,2,2,4,1,partial,1,images/Ex13.jpg,right,training,hard,2,,,,,
,,,,,637fcee60a8378c1c3a65898,001,,,,,2024-03-06_12h16.14.481,CRL1h,2023.2.3,Linux x86_64,59.88023952,65e67470ae2fbf2172c317b2,65e85e752eabfe91b174cc95,,,,,,,,,,,98.7156,1.4,100.1185,100.1186,101.0393,left,0,0.9168,,101.0393,102.0367,0,3,3,13,1,partial,1,images/Ex14.jpg,right,training,hard,2,,,,,
,,,,,637fcee60a8378c1c3a65898,001,,,,,2024-03-06_12h16.14.481,CRL1h,2023.2.3,Linux x86_64,59.88023952,65e67470ae2fbf2172c317b2,65e85e752eabfe91b174cc95,,,,,,,,,,,102.0375,0.9,102.9362,102.9363,103.3876,right,0,0.4488,,103.3876,104.3863,0,4,4,10,1,partial,1,images/Ex11.jpg,left,training,hard,2,,,,,
,,,,,637fcee60a8378c1c3a65898,001,,,,,2024-03-06_12h16.14.481,CRL1h,2023.2.3,Linux x86_64,59.88023952,65e67470ae2fbf2172c317b2,65e85e752eabfe91b174cc95,,,,,,,,,,,104.3873,0.7,105.0871,105.0871,106.0211,left,1,0.9311,,106.0213,107.0211,0,5,5,0,1,partial,1,images/Ex9.jpg,left,training,hard,2,,,,,
,,,,,637fcee60a8378c1c3a65898,001,,,,,2024-03-06_12h16.14.481,CRL1h,2023.2.3,Linux x86_64,59.88023952,65e67470ae2fbf2172c317b2,65e85e752eabfe91b174cc95,,,,,,,,,,,107.0226,0.8,107.8221,107.8222,108.5548,left,0,0.7276,,108.555,109.5552,0,6,6,5,1,partial,1,images/Ex14.jpg,right,training,hard,2,,,,,
,,,,,637fcee60a8378c1c3a65898,001,,,,,2024-03-06_12h16.14.481,CRL1h,2023.2.3,Linux x86_64,59.88023952,65e67470ae2fbf2172c317b2,65e85e752eabfe91b174cc95,,,,,,,,,,,109.5559,1.2,110.7557,110.7559,111.6899,right,0,0.9313,,111.6901,112.6909,0,7,7,9,1,partial,1,images/Ex10.jpg,left,training,hard,2,,,,,
,,,,,637fcee60a8378c1c3a65898,001,,,,,2024-03-06_12h16.14.481,CRL1h,2023.2.3,Linux x86_64,59.88023952,65e67470ae2fbf2172c317b2,65e85e752eabfe91b174cc95,,,,,,,,,,,112.6916,0.8,113.4915,113.4915,114.5942,left,0,1.0997,,114.5942,115.5905,0,8,8,14,1,partial,1,images/Ex15.jpg,right,training,hard,2,,,,,
,,,,,637fcee60a8378c1c3a65898,001,,,,,2024-03-06_12h16.14.481,CRL1h,2023.2.3,Linux x86_64,59.88023952,65e67470ae2fbf2172c317b2,65e85e752eabfe91b174cc95,,,,,,,,,,,115.5914,1.3,116.8915,116.8916,118.1418,left,1,1.2467,,118.1419,119.1426,0,9,9,1,1,partial,1,images/Ex10.jpg,left,training,hard,2,,,,,
,,,,,637fcee60a8378c1c3a65898,001,,,,,2024-03-06_12h16.14.481,CRL1h,2023.2.3,Linux x86_64,59.88023952,65e67470ae2fbf2172c317b2,65e85e752eabfe91b174cc95,,,,,,,,,,,119.1432,1.1,120.243,120.2431,121.3972,right,1,1.1521,,121.3973,122.3932,0,10,10,12,1,partial,1,images/Ex13.jpg,right,training,hard,2,,,,,
,,,,,637fcee60a8378c1c3a65898,001,,,,,2024-03-06_12h16.14.481,CRL1h,2023.2.3,Linux x86_64,59.88023952,65e67470ae2fbf2172c317b2,65e85e752eabfe91b174cc95,,,,,,,,,,,122.3942,0.8,123.1939,123.194,124.5172,right,1,1.3211,,124.5173,125.5128,0,11,11,15,1,partial,1,images/Ex16.jpg,right,training,hard,2,,,,,
,,,,,637fcee60a8378c1c3a65898,001,,,,,2024-03-06_12h16.14.481,CRL1h,2023.2.3,Linux x86_64,59.88023952,65e67470ae2fbf2172c317b2,65e85e752eabfe91b174cc95,,,,,,,,,,,125.5136,0.8,126.3158,126.316,127.2157,right,1,0.8977,,127.2157,128.2122,0,12,12,7,1,partial,1,images/Ex16.jpg,right,training,hard,2,,,,,
,,,,,637fcee60a8378c1c3a65898,001,,,,,2024-03-06_12h16.14.481,CRL1h,2023.2.3,Linux x86_64,59.88023952,65e67470ae2fbf2172c317b2,65e85e752eabfe91b174cc95,,,,,,,,,,,128.2132,0.9,129.1125,129.1127,129.9128,left,1,0.7954,,129.9129,130.9133,0,13,13,8,1,partial,1,images/Ex9.jpg,left,training,hard,2,,,,,
,,,,,637fcee60a8378c1c3a65898,001,,,,,2024-03-06_12h16.14.481,CRL1h,2023.2.3,Linux x86_64,59.88023952,65e67470ae2fbf2172c317b2,65e85e752eabfe91b174cc95,,,,,,,,,,,130.9143,0.5,131.414,131.414,132.4443,right,0,1.0282,,132.4444,133.4488,0,14,14,2,1,partial,1,images/Ex11.jpg,left,training,hard,2,,,,,
,,,,,637fcee60a8378c1c3a65898,001,,,,,2024-03-06_12h16.14.481,CRL1h,2023.2.3,Linux x86_64,59.88023952,65e67470ae2fbf2172c317b2,65e85e752eabfe91b174cc95,,,,,,,,,,,133.4501,0.6,134.0477,134.0477,135.4782,left,1,1.4287,,135.4783,136.4819,0,15,15,11,1,partial,1,images/Ex12.jpg,left,training,hard,2,,,,,
,,,,,637fcee60a8378c1c3a65898,001,,,,,2024-03-06_12h16.14.481,CRL1h,2023.2.3,Linux x86_64,59.88023952,65e67470ae2fbf2172c317b2,65e85e752eabfe91b174cc95,,,,,,,,,,,136.4833,1.3,137.7832,137.7834,138.9661,left,0,1.1805,,138.9662,139.9668,1,0,16,14,1,partial,1,images/Ex15.jpg,right,training,hard,2,,,,,
,,,,,637fcee60a8378c1c3a65898,001,,,,,2024-03-06_12h16.14.481,CRL1h,2023.2.3,Linux x86_64,59.88023952,65e67470ae2fbf2172c317b2,65e85e752eabfe91b174cc95,,,,,,,,,,,139.9677,0.8,140.7673,140.7673,142.056,right,0,1.2872,,142.0562,143.0517,1,1,17,9,1,partial,1,images/Ex10.jpg,left,training,hard,2,,,,,
,,,,,637fcee60a8378c1c3a65898,001,,,,,2024-03-06_12h16.14.481,CRL1h,2023.2.3,Linux x86_64,59.88023952,65e67470ae2fbf2172c317b2,65e85e752eabfe91b174cc95,,,,,,,,,,,143.0652,1,144.0688,144.0689,144.8873,right,0,0.8169,,144.8874,145.8855,1,2,18,0,1,partial,1,images/Ex9.jpg,left,training,hard,2,,,,,
,,,,,637fcee60a8378c1c3a65898,001,,,,,2024-03-06_12h16.14.481,CRL1h,2023.2.3,Linux x86_64,59.88023952,65e67470ae2fbf2172c317b2,65e85e752eabfe91b174cc95,,,,,,,,,,,145.8863,1.4,147.2861,147.2863,148.8376,left,0,1.5447,,148.8378,149.8377,1,3,19,13,1,partial,1,images/Ex14.jpg,right,training,hard,2,,,,,
,,,,,637fcee60a8378c1c3a65898,001,,,,,2024-03-06_12h16.14.481,CRL1h,2023.2.3,Linux x86_64,59.88023952,65e67470ae2fbf2172c317b2,65e85e752eabfe91b174cc95,,,,,,,,,,,149.8386,1.5,151.3381,151.3381,152.8891,right,0,1.548,,152.8892,153.8888,1,4,20,8,1,partial,1,images/Ex9.jpg,left,training,hard,2,,,,,
,,,,,637fcee60a8378c1c3a65898,001,,,,,2024-03-06_12h16.14.481,CRL1h,2023.2.3,Linux x86_64,59.88023952,65e67470ae2fbf2172c317b2,65e85e752eabfe91b174cc95,,,,,,,,,,,153.8898,0.6,154.4912,154.4913,156.0929,left,0,1.5998,,156.0929,157.0904,1,5,21,15,1,partial,1,images/Ex16.jpg,right,training,hard,2,,,,,
,,,,,637fcee60a8378c1c3a65898,001,,,,,2024-03-06_12h16.14.481,CRL1h,2023.2.3,Linux x86_64,59.88023952,65e67470ae2fbf2172c317b2,65e85e752eabfe91b174cc95,,,,,,,,,,,157.1047,0.8,157.9069,157.9069,158.8927,left,0,0.9839,,158.8928,159.8912,1,6,22,7,1,partial,1,images/Ex16.jpg,right,training,hard,2,,,,,
,,,,,637fcee60a8378c1c3a65898,001,,,,,2024-03-06_12h16.14.481,CRL1h,2023.2.3,Linux x86_64,59.88023952,65e67470ae2fbf2172c317b2,65e85e752eabfe91b174cc95,,,,,,,,,,,159.8918,1.2,161.0912,161.0913,162.8756,left,1,1.7783,,162.8757,163.8768,1,7,23,3,1,partial,1,images/Ex12.jpg,left,training,hard,2,,,,,
,,,,,637fcee60a8378c1c3a65898,001,,,,,2024-03-06_12h16.14.481,CRL1h,2023.2.3,Linux x86_64,59.88023952,65e67470ae2fbf2172c317b2,65e85e752eabfe91b174cc95,,,,,,,,,,,163.8777,0.6,164.4762,164.4762,165.5933,left,0,1.1101,,165.5939,166.594,1,8,24,4,1,partial,1,images/Ex13.jpg,right,training,hard,2,,,,,
,,,,,637fcee60a8378c1c3a65898,001,,,,,2024-03-06_12h16.14.481,CRL1h,2023.2.3,Linux x86_64,59.88023952,65e67470ae2fbf2172c317b2,65e85e752eabfe91b174cc95,,,,,,,,,,,166.5952,1.3,167.8938,167.8939,169.1159,right,1,1.2197,,169.1159,170.1125,1,9,25,5,1,partial,1,images/Ex14.jpg,right,training,hard,2,,,,,
,,,,,637fcee60a8378c1c3a65898,001,,,,,2024-03-06_12h16.14.481,CRL1h,2023.2.3,Linux x86_64,59.88023952,65e67470ae2fbf2172c317b2,65e85e752eabfe91b174cc95,,,,,,,,,,,170.1135,1.2,171.3142,171.3142,172.6818,right,0,1.3618,,172.6819,173.6801,1,10,26,1,1,partial,1,images/Ex10.jpg,left,training,hard,2,,,,,
,,,,,637fcee60a8378c1c3a65898,001,,,,,2024-03-06_12h16.14.481,CRL1h,2023.2.3,Linux x86_64,59.88023952,65e67470ae2fbf2172c317b2,65e85e752eabfe91b174cc95,,,,,,,,,,,173.6808,0.7,174.3804,174.3804,175.435,right,0,1.0528,,175.4351,176.4312,1,11,27,11,1,partial,1,images/Ex12.jpg,left,training,hard,2,,,,,
,,,,,637fcee60a8378c1c3a65898,001,,,,,2024-03-06_12h16.14.481,CRL1h,2023.2.3,Linux x86_64,59.88023952,65e67470ae2fbf2172c317b2,65e85e752eabfe91b174cc95,,,,,,,,,,,176.4319,0.9,177.3307,177.3308,178.9982,right,0,1.6619,,178.9983,179.9984,1,12,28,2,1,partial,1,images/Ex11.jpg,left,training,hard,2,,,,,
,,,,,637fcee60a8378c1c3a65898,001,,,,,2024-03-06_12h16.14.481,CRL1h,2023.2.3,Linux x86_64,59.88023952,65e67470ae2fbf2172c317b2,65e85e752eabfe91b174cc95,,,,,,,,,,,179.9993,0.6,180.5882,180.5883,181.3329,left,1,0.742,,181.3329,182.3329,1,13,29,10,1,partial,1,images/Ex11.jpg,left,training,hard,2,,,,,
,,,,,637fcee60a8378c1c3a65898,001,,,,,2024-03-06_12h16.14.481,CRL1h,2023.2.3,Linux x86_64,59.88023952,65e67470ae2fbf2172c317b2,65e85e752eabfe91b174cc95,,,,,,,,,,,182.3337,0.8,183.1331,183.1331,183.9917,left,0,0.8569,,183.9918,184.9843,1,14,30,6,1,partial,1,images/Ex15.jpg,right,training,hard,2,,,,,
,,,,,637fcee60a8378c1c3a65898,001,,,,,2024-03-06_12h16.14.481,CRL1h,2023.2.3,Linux x86_64,59.88023952,65e67470ae2fbf2172c317b2,65e85e752eabfe91b174cc95,,,,,,,,,,,184.9852,1.4,186.3846,186.3847,187.3516,right,1,0.9654,,187.3518,188.3533,1,15,31,12,1,partial,1,images/Ex13.jpg,right,training,hard,2,,,,,
,,,,,637fcee60a8378c1c3a65898,001,,,,,2024-03-06_12h16.14.481,CRL1h,2023.2.3,Linux x86_64,59.88023952,65e67470ae2fbf2172c317b2,65e85e752eabfe91b174cc95,,,,,,,,,,,188.3543,0.5,188.8526,188.8527,189.7713,right,0,0.9165,,189.7713,190.7695,2,0,32,10,1,partial,1,images/Ex11.jpg,left,training,hard,2,,,,,
,,,,,637fcee60a8378c1c3a65898,001,,,,,2024-03-06_12h16.14.481,CRL1h,2023.2.3,Linux x86_64,59.88023952,65e67470ae2fbf2172c317b2,65e85e752eabfe91b174cc95,,,,,,,,,,,190.7702,1.4,192.1709,192.171,193.0579,right,0,0.8846,,193.0579,194.0538,2,1,33,3,1,partial,1,images/Ex12.jpg,left,training,hard,2,,,,,
,,,,,637fcee60a8378c1c3a65898,001,,,,,2024-03-06_12h16.14.481,CRL1h,2023.2.3,Linux x86_64,59.88023952,65e67470ae2fbf2172c317b2,65e85e752eabfe91b174cc95,,,,,,,,,,,194.0547,1,195.0546,195.0546,196.3219,left,1,1.2627,,196.3219,197.3227,2,2,34,1,1,partial,1,images/Ex10.jpg,left,training,hard,2,,,,,
,,,,,637fcee60a8378c1c3a65898,001,,,,,2024-03-06_12h16.14.481,CRL1h,2023.2.3,Linux x86_64,59.88023952,65e67470ae2fbf2172c317b2,65e85e752eabfe91b174cc95,,,,,,,,,,,197.3363,0.6,197.9401,197.9404,199.1058,left,1,1.1607,,199.106,200.1067,2,3,35,2,1,partial,1,images/Ex11.jpg,left,training,hard,2,,,,,
,,,,,637fcee60a8378c1c3a65898,001,,,,,2024-03-06_12h16.14.481,CRL1h,2023.2.3,Linux x86_64,59.88023952,65e67470ae2fbf2172c317b2,65e85e752eabfe91b174cc95,,,,,,,,,,,200.1078,1.5,201.6069,201.607,202.4527,left,1,0.8429,,202.4529,203.4428,2,4,36,11,1,partial,1,images/Ex12.jpg,left,training,hard,2,,,,,
,,,,,637fcee60a8378c1c3a65898,001,,,,,2024-03-06_12h16.14.481,CRL1h,2023.2.3,Linux x86_64,59.88023952,65e67470ae2fbf2172c317b2,65e85e752eabfe91b174cc95,,,,,,,,,,,203.4441,0.8,204.2414,204.2415,205.1371,right,0,0.8938,,205.1372,206.1255,2,5,37,8,1,partial,1,images/Ex9.jpg,left,training,hard,2,,,,,
,,,,,637fcee60a8378c1c3a65898,001,,,,,2024-03-06_12h16.14.481,CRL1h,2023.2.3,Linux x86_64,59.88023952,65e67470ae2fbf2172c317b2,65e85e752eabfe91b174cc95,,,,,,,,,,,206.1267,1.1,207.2259,207.2261,208.5098,left,0,1.28,,208.5099,209.5099,2,6,38,7,1,partial,1,images/Ex16.jpg,right,training,hard,2,,,,,
,,,,,637fcee60a8378c1c3a65898,001,,,,,2024-03-06_12h16.14.481,CRL1h,2023.2.3,Linux x86_64,59.88023952,65e67470ae2fbf2172c317b2,65e85e752eabfe91b174cc95,,,,,,,,,,,209.5107,0.5,210.0104,210.0104,211.5311,left,0,1.519,,211.5312,212.5283,2,7,39,12,1,partial,1,images/Ex13.jpg,right,training,hard,2,,,,,
,,,,,637fcee60a8378c1c3a65898,001,,,,,2024-03-06_12h16.14.481,CRL1h,2023.2.3,Linux x86_64,59.88023952,65e67470ae2fbf2172c317b2,65e85e752eabfe91b174cc95,,,,,,,,,,,212.5293,1,213.5204,213.5204,215.1793,left,1,1.6572,,215.1794,216.1793,2,8,40,0,1,partial,1,images/Ex9.jpg,left,training,hard,2,,,,,
,,,,,637fcee60a8378c1c3a65898,001,,,,,2024-03-06_12h16.14.481,CRL1h,2023.2.3,Linux x86_64,59.88023952,65e67470ae2fbf2172c317b2,65e85e752eabfe91b174cc95,,,,,,,,,,,216.18,1.4,217.5794,217.5795,218.4807,left,0,0.895,,218.4807,219.4803,2,9,41,13,1,partial,1,images/Ex14.jpg,right,training,hard,2,,,,,
,,,,,637fcee60a8378c1c3a65898,001,,,,,2024-03-06_12h16.14.481,CRL1h,2023.2.3,Linux x86_64,59.88023952,65e67470ae2fbf2172c317b2,65e85e752eabfe91b174cc95,,,,,,,,,,,219.4817,0.7,220.1808,220.1808,221.6851,left,1,1.5023,,221.6852,222.6826,2,10,42,9,1,partial,1,images/Ex10.jpg,left,training,hard,2,,,,,
,,,,,637fcee60a8378c1c3a65898,001,,,,,2024-03-06_12h16.14.481,CRL1h,2023.2.3,Linux x86_64,59.88023952,65e67470ae2fbf2172c317b2,65e85e752eabfe91b174cc95,,,,,,,,,,,222.6843,0.6,223.2821,223.2822,224.7259,right,1,1.4419,,224.726,225.7168,2,11,43,4,1,partial,1,images/Ex13.jpg,right,training,hard,2,,,,,
,,,,,637fcee60a8378c1c3a65898,001,,,,,2024-03-06_12h16.14.481,CRL1h,2023.2.3,Linux x86_64,59.88023952,65e67470ae2fbf2172c317b2,65e85e752eabfe91b174cc95,,,,,,,,,,,225.7176,1.3,227.0193,227.0194,228.5537,right,1,1.5317,,228.5537,229.5514,2,12,44,6,1,partial,1,images/Ex15.jpg,right,training,hard,2,,,,,
,,,,,637fcee60a8378c1c3a65898,001,,,,,2024-03-06_12h16.14.481,CRL1h,2023.2.3,Linux x86_64,59.88023952,65e67470ae2fbf2172c317b2,65e85e752eabfe91b174cc95,,,,,,,,,,,229.5656,0.6,230.1677,230.1677,231.0514,left,0,0.8814,,231.0514,232.0521,2,13,45,15,1,partial,1,images/Ex16.jpg,right,training,hard,2,,,,,
,,,,,637fcee60a8378c1c3a65898,001,,,,,2024-03-06_12h16.14.481,CRL1h,2023.2.3,Linux x86_64,59.88023952,65e67470ae2fbf2172c317b2,65e85e752eabfe91b174cc95,,,,,,,,,,,232.0532,0.7,232.7528,232.7528,234.3222,left,0,1.5678,,234.3223,235.3198,2,14,46,5,1,partial,1,images/Ex14.jpg,right,training,hard,2,,,,,
,,,,,637fcee60a8378c1c3a65898,001,,,,,2024-03-06_12h16.14.481,CRL1h,2023.2.3,Linux x86_64,59.88023952,65e67470ae2fbf2172c317b2,65e85e752eabfe91b174cc95,,,,,,,,,,,235.334,1.1,236.4368,236.4369,238.8041,left,0,2.3654,,238.8041,239.8048,2,15,47,14,1,partial,1,images/Ex15.jpg,right,training,hard,2,,,,,
,,,,,637fcee60a8378c1c3a65898,001,,,,,2024-03-06_12h16.14.481,CRL1h,2023.2.3,Linux x86_64,59.88023952,65e67470ae2fbf2172c317b2,65e85e752eabfe91b174cc95,,,,,,,,,,,239.8185,1.3,241.1223,241.1224,242.4566,left,1,1.331,,242.4566,243.4565,3,0,48,3,1,partial,1,images/Ex12.jpg,left,training,hard,2,,,,,
,,,,,637fcee60a8378c1c3a65898,001,,,,,2024-03-06_12h16.14.481,CRL1h,2023.2.3,Linux x86_64,59.88023952,65e67470ae2fbf2172c317b2,65e85e752eabfe91b174cc95,,,,,,,,,,,243.4699,0.8,244.2732,244.2733,245.4248,left,0,1.1481,,245.4248,246.425,3,1,49,13,1,partial,1,images/Ex14.jpg,right,training,hard,2,,,,,
,,,,,637fcee60a8378c1c3a65898,001,,,,,2024-03-06_12h16.14.481,CRL1h,2023.2.3,Linux x86_64,59.88023952,65e67470ae2fbf2172c317b2,65e85e752eabfe91b174cc95,,,,,,,,,,,246.4265,0.9,247.3253,247.3254,248.3924,right,1,1.0653,,248.3925,249.3921,3,2,50,7,1,partial,1,images/Ex16.jpg,right,training,hard,2,,,,,
,,,,,637fcee60a8378c1c3a65898,001,,,,,2024-03-06_12h16.14.481,CRL1h,2023.2.3,Linux x86_64,59.88023952,65e67470ae2fbf2172c317b2,65e85e752eabfe91b174cc95,,,,,,,,,,,249.3937,0.6,249.9942,249.9942,251.5446,right,0,1.5478,,251.5447,252.5429,3,3,51,0,1,partial,1,images/Ex9.jpg,left,training,hard,2,,,,,
,,,,,637fcee60a8378c1c3a65898,001,,,,,2024-03-06_12h16.14.481,CRL1h,2023.2.3,Linux x86_64,59.88023952,65e67470ae2fbf2172c317b2,65e85e752eabfe91b174cc95,,,,,,,,,,,252.5437,1.4,253.9439,253.9439,255.1636,right,0,1.2144,,255.1636,256.1615,3,4,52,11,1,partial,1,images/Ex12.jpg,left,training,hard,2,,,,,
,,,,,637fcee60a8378c1c3a65898,001,,,,,2024-03-06_12h16.14.481,CRL1h,2023.2.3,Linux x86_64,59.88023952,65e67470ae2fbf2172c317b2,65e85e752eabfe91b174cc95,,,,,,,,,,,256.1622,0.8,256.9616,256.9616,258.4623,left,0,1.4969,,258.4623,259.4633,3,5,53,6,1,partial,1,images/Ex15.jpg,right,training,hard,2,,,,,
,,,,,637fcee60a8378c1c3a65898,001,,,,,2024-03-06_12h16.14.481,CRL1h,2023.2.3,Linux x86_64,59.88023952,65e67470ae2fbf2172c317b2,65e85e752eabfe91b174cc95,,,,,,,,,,,259.4786,0.6,260.0801,260.0801,261.586,left,1,1.503,,261.586,262.5801,3,6,54,1,1,partial,1,images/Ex10.jpg,left,training,hard,2,,,,,
,,,,,637fcee60a8378c1c3a65898,001,,,,,2024-03-06_12h16.14.481,CRL1h,2023.2.3,Linux x86_64,59.88023952,65e67470ae2fbf2172c317b2,65e85e752eabfe91b174cc95,,,,,,,,,,,262.5808,1.2,263.7825,263.7826,265.0144,right,0,1.2279,,265.0144,266.0155,3,7,55,10,1,partial,1,images/Ex11.jpg,left,training,hard,2,,,,,
,,,,,637fcee60a8378c1c3a65898,001,,,,,2024-03-06_12h16.14.481,CRL1h,2023.2.3,Linux x86_64,59.88023952,65e67470ae2fbf2172c317b2,65e85e752eabfe91b174cc95,,,,,,,,,,,266.0164,1.3,267.3161,267.3162,268.8664,left,0,1.545,,268.8665,269.8678,3,8,56,5,1,partial,1,images/Ex14.jpg,right,training,hard,2,,,,,
,,,,,637fcee60a8378c1c3a65898,001,,,,,2024-03-06_12h16.14.481,CRL1h,2023.2.3,Linux x86_64,59.88023952,65e67470ae2fbf2172c317b2,65e85e752eabfe91b174cc95,,,,,,,,,,,269.8821,1.1,270.9833,270.9833,271.8679,left,1,0.8822,,271.868,272.869,3,9,57,9,1,partial,1,images/Ex10.jpg,left,training,hard,2,,,,,
,,,,,637fcee60a8378c1c3a65898,001,,,,,2024-03-06_12h16.14.481,CRL1h,2023.2.3,Linux x86_64,59.88023952,65e67470ae2fbf2172c317b2,65e85e752eabfe91b174cc95,,,,,,,,,,,272.8698,0.7,273.5676,273.5677,274.352,left,0,0.7784,,274.3521,275.3526,3,10,58,15,1,partial,1,images/Ex16.jpg,right,training,hard,2,,,,,
,,,,,637fcee60a8378c1c3a65898,001,,,,,2024-03-06_12h16.14.481,CRL1h,2023.2.3,Linux x86_64,59.88023952,65e67470ae2fbf2172c317b2,65e85e752eabfe91b174cc95,,,,,,,,,,,275.3542,0.8,276.1526,276.1527,277.3069,right,0,1.152,,277.3069,278.3044,3,11,59,8,1,partial,1,images/Ex9.jpg,left,training,hard,2,,,,,
,,,,,637fcee60a8378c1c3a65898,001,,,,,2024-03-06_12h16.14.481,CRL1h,2023.2.3,Linux x86_64,59.88023952,65e67470ae2fbf2172c317b2,65e85e752eabfe91b174cc95,,,,,,,,,,,278.3052,0.6,278.9034,278.9034,279.9371,right,1,1.0295,,279.9373,280.9372,3,12,60,4,1,partial,1,images/Ex13.jpg,right,training,hard,2,,,,,
,,,,,637fcee60a8378c1c3a65898,001,,,,,2024-03-06_12h16.14.481,CRL1h,2023.2.3,Linux x86_64,59.88023952,65e67470ae2fbf2172c317b2,65e85e752eabfe91b174cc95,,,,,,,,,,,280.9381,0.9,281.8376,281.8376,283.3271,right,1,1.4871,,283.3271,284.3217,3,13,61,14,1,partial,1,images/Ex15.jpg,right,training,hard,2,,,,,
,,,,,637fcee60a8378c1c3a65898,001,,,,,2024-03-06_12h16.14.481,CRL1h,2023.2.3,Linux x86_64,59.88023952,65e67470ae2fbf2172c317b2,65e85e752eabfe91b174cc95,,,,,,,,,,,284.3226,1.1,285.4267,285.4268,286.6893,right,1,1.2587,,286.6894,287.6897,3,14,62,12,1,partial,1,images/Ex13.jpg,right,training,hard,2,,,,,
,,,,,637fcee60a8378c1c3a65898,001,,,,,2024-03-06_12h16.14.481,CRL1h,2023.2.3,Linux x86_64,59.88023952,65e67470ae2fbf2172c317b2,65e85e752eabfe91b174cc95,,,,,,,,,,,287.6907,0.5,288.1914,288.1915,289.5313,left,1,1.3378,,289.5317,290.5247,3,15,63,2,1,partial,1,images/Ex11.jpg,left,training,hard,2,,,,,
,,,,,637fcee60a8378c1c3a65898,001,,,,,2024-03-06_12h16.14.481,CRL1h,2023.2.3,Linux x86_64,59.88023952,65e67470ae2fbf2172c317b2,65e85e752eabfe91b174cc95,,,,,,,,,,,290.5268,0.5,291.0242,291.0242,293.4255,right,1,2.396,,293.4256,294.426,4,0,64,4,1,partial,1,images/Ex13.jpg,right,training,hard,2,,,,,
,,,,,637fcee60a8378c1c3a65898,001,,,,,2024-03-06_12h16.14.481,CRL1h,2023.2.3,Linux x86_64,59.88023952,65e67470ae2fbf2172c317b2,65e85e752eabfe91b174cc95,,,,,,,,,,,294.4392,1.4,295.8434,295.8434,297.0152,right,0,1.1686,,297.0152,298.0106,4,1,65,10,1,partial,1,images/Ex11.jpg,left,training,hard,2,,,,,
,,,,,637fcee60a8378c1c3a65898,001,,,,,2024-03-06_12h16.14.481,CRL1h,2023.2.3,Linux x86_64,59.88023952,65e67470ae2fbf2172c317b2,65e85e752eabfe91b174cc95,,,,,,,,,,,298.0114,0.9,298.9109,298.9112,300.2982,left,1,1.385,,300.2982,301.2955,4,2,66,8,1,partial,1,images/Ex9.jpg,left,training,hard,2,,,,,
,,,,,637fcee60a8378c1c3a65898,001,,,,,2024-03-06_12h16.14.481,CRL1h,2023.2.3,Linux x86_64,59.88023952,65e67470ae2fbf2172c317b2,65e85e752eabfe91b174cc95,,,,,,,,,,,301.2966,1.1,302.3954,302.3954,303.1658,left,1,0.7655,,303.1658,304.1629,4,3,67,0,1,partial,1,images/Ex9.jpg,left,training,hard,2,,,,,
,,,,,637fcee60a8378c1c3a65898,001,,,,,2024-03-06_12h16.14.481,CRL1h,2023.2.3,Linux x86_64,59.88023952,65e67470ae2fbf2172c317b2,65e85e752eabfe91b174cc95,,,,,,,,,,,304.1636,1.2,305.3633,305.3634,306.6344,left,0,1.2685,,306.6345,307.6316,4,4,68,12,1,partial,1,images/Ex13.jpg,right,training,hard,2,,,,,
,,,,,637fcee60a8378c1c3a65898,001,,,,,2024-03-06_12h16.14.481,CRL1h,2023.2.3,Linux x86_64,59.88023952,65e67470ae2fbf2172c317b2,65e85e752eabfe91b174cc95,,,,,,,,,,,307.645,1.2,308.8482,308.8483,310.8826,right,0,2.028,,310.8827,311.8822,4,5,69,11,1,partial,1,images/Ex12.jpg,left,training,hard,2,,,,,
,,,,,637fcee60a8378c1c3a65898,001,,,,,2024-03-06_12h16.14.481,CRL1h,2023.2.3,Linux x86_64,59.88023952,65e67470ae2fbf2172c317b2,65e85e752eabfe91b174cc95,,,,,,,,,,,311.8955,0.6,312.4993,312.4994,313.8211,left,0,1.3183,,313.8212,314.817,4,6,70,6,1,partial,1,images/Ex15.jpg,right,training,hard,2,,,,,
,,,,,637fcee60a8378c1c3a65898,001,,,,,2024-03-06_12h16.14.481,CRL1h,2023.2.3,Linux x86_64,59.88023952,65e67470ae2fbf2172c317b2,65e85e752eabfe91b174cc95,,,,,,,,,,,314.8177,1.3,316.1173,316.1173,316.9364,right,1,0.8176,,316.9364,317.9357,4,7,71,14,1,partial,1,images/Ex15.jpg,right,training,hard,2,,,,,
,,,,,637fcee60a8378c1c3a65898,001,,,,,2024-03-06_12h16.14.481,CRL1h,2023.2.3,Linux x86_64,59.88023952,65e67470ae2fbf2172c317b2,65e85e752eabfe91b174cc95,,,,,,,,,,,317.9364,0.7,318.6349,318.6351,319.4851,left,1,0.8452,,319.4852,320.4858,4,8,72,9,1,partial,1,images/Ex10.jpg,left,training,hard,2,,,,,
,,,,,637fcee60a8378c1c3a65898,001,,,,,2024-03-06_12h16.14.481,CRL1h,2023.2.3,Linux x86_64,59.88023952,65e67470ae2fbf2172c317b2,65e85e752eabfe91b174cc95,,,,,,,,,,,320.487,0.6,321.0888,321.0888,321.8081,left,0,0.7173,,321.8081,322.8034,4,9,73,5,1,partial,1,images/Ex14.jpg,right,training,hard,2,,,,,
,,,,,637fcee60a8378c1c3a65898,001,,,,,2024-03-06_12h16.14.481,CRL1h,2023.2.3,Linux x86_64,59.88023952,65e67470ae2fbf2172c317b2,65e85e752eabfe91b174cc95,,,,,,,,,,,322.8044,1,323.8049,323.805,325.3064,right,0,1.4993,,325.3065,326.3049,4,10,74,2,1,partial,1,images/Ex11.jpg,left,training,hard,2,,,,,
,,,,,637fcee60a8378c1c3a65898,001,,,,,2024-03-06_12h16.14.481,CRL1h,2023.2.3,Linux x86_64,59.88023952,65e67470ae2fbf2172c317b2,65e85e752eabfe91b174cc95,,,,,,,,,,,326.3059,0.5,326.8049,326.805,328.5388,right,1,1.732,,328.5389,329.5399,4,11,75,15,1,partial,1,images/Ex16.jpg,right,training,hard,2,,,,,
,,,,,637fcee60a8378c1c3a65898,001,,,,,2024-03-06_12h16.14.481,CRL1h,2023.2.3,Linux x86_64,59.88023952,65e67470ae2fbf2172c317b2,65e85e752eabfe91b174cc95,,,,,,,,,,,329.5413,1.2,330.7395,330.7396,332.2102,right,1,1.4685,,332.2103,333.2197,4,12,76,13,1,partial,1,images/Ex14.jpg,right,training,hard,2,,,,,
,,,,,637fcee60a8378c1c3a65898,001,,,,,2024-03-06_12h16.14.481,CRL1h,2023.2.3,Linux x86_64,59.88023952,65e67470ae2fbf2172c317b2,65e85e752eabfe91b174cc95,,,,,,,,,,,333.221,0.7,333.9101,333.9102,334.6245,right,1,0.711,,334.6246,335.6245,4,13,77,7,1,partial,1,images/Ex16.jpg,right,training,hard,2,,,,,
,,,,,637fcee60a8378c1c3a65898,001,,,,,2024-03-06_12h16.14.481,CRL1h,2023.2.3,Linux x86_64,59.88023952,65e67470ae2fbf2172c317b2,65e85e752eabfe91b174cc95,,,,,,,,,,,335.6252,1.1,336.7253,336.7254,337.8827,right,0,1.1545,,337.8829,338.8759,4,14,78,3,1,partial,1,images/Ex12.jpg,left,training,hard,2,,,,,
,,,,,637fcee60a8378c1c3a65898,001,,,,,2024-03-06_12h16.14.481,CRL1h,2023.2.3,Linux x86_64,59.88023952,65e67470ae2fbf2172c317b2,65e85e752eabfe91b174cc95,,,,,,,,,,,338.8768,1.1,339.9764,339.9764,340.7766,left,1,0.7983,,340.7766,341.7773,4,15,79,1,1,partial,1,images/Ex10.jpg,left,training,hard,2,,,,,
,,,,,637fcee60a8378c1c3a65898,001,,,,,2024-03-06_12h16.14.481,CRL1h,2023.2.3,Linux x86_64,59.88023952,65e67470ae2fbf2172c317b2,65e85e752eabfe91b174cc95,,,,,,,,,,,341.7783,1.4,343.1776,343.1777,344.5125,left,0,1.3313,,344.5126,345.5152,5,0,80,5,1,partial,1,images/Ex14.jpg,right,training,hard,2,,,,,
,,,,,637fcee60a8378c1c3a65898,001,,,,,2024-03-06_12h16.14.481,CRL1h,2023.2.3,Linux x86_64,59.88023952,65e67470ae2fbf2172c317b2,65e85e752eabfe91b174cc95,,,,,,,,,,,345.5159,1.1,346.6123,346.6123,348.2134,left,1,1.5962,,348.2135,349.2134,5,1,81,11,1,partial,1,images/Ex12.jpg,left,training,hard,2,,,,,
,,,,,637fcee60a8378c1c3a65898,001,,,,,2024-03-06_12h16.14.481,CRL1h,2023.2.3,Linux x86_64,59.88023952,65e67470ae2fbf2172c317b2,65e85e752eabfe91b174cc95,,,,,,,,,,,349.2142,1.3,350.5138,350.5141,351.8188,left,1,1.298,,351.8188,352.8154,5,2,82,10,1,partial,1,images/Ex11.jpg,left,training,hard,2,,,,,
,,,,,637fcee60a8378c1c3a65898,001,,,,,2024-03-06_12h16.14.481,CRL1h,2023.2.3,Linux x86_64,59.88023952,65e67470ae2fbf2172c317b2,65e85e752eabfe91b174cc95,,,,,,,,,,,352.8163,1.2,354.016,354.016,354.7865,left,1,0.7685,,354.7865,355.7822,5,3,83,1,1,partial,1,images/Ex10.jpg,left,training,hard,2,,,,,
,,,,,637fcee60a8378c1c3a65898,001,,,,,2024-03-06_12h16.14.481,CRL1h,2023.2.3,Linux x86_64,59.88023952,65e67470ae2fbf2172c317b2,65e85e752eabfe91b174cc95,,,,,,,,,,,355.7828,0.6,356.3829,356.383,357.972,right,1,1.5867,,357.972,358.9667,5,4,84,7,1,partial,1,images/Ex16.jpg,right,training,hard,2,,,,,
,,,,,637fcee60a8378c1c3a65898,001,,,,,2024-03-06_12h16.14.481,CRL1h,2023.2.3,Linux x86_64,59.88023952,65e67470ae2fbf2172c317b2,65e85e752eabfe91b174cc95,,,,,,,,,,,358.9674,1.2,360.1674,360.1674,361.5849,left,1,1.4116,,361.5851,362.5873,5,5,85,3,1,partial,1,images/Ex12.jpg,left,training,hard,2,,,,,
,,,,,637fcee60a8378c1c3a65898,001,,,,,2024-03-06_12h16.14.481,CRL1h,2023.2.3,Linux x86_64,59.88023952,65e67470ae2fbf2172c317b2,65e85e752eabfe91b174cc95,,,,,,,,,,,362.5883,0.6,363.1854,363.1855,364.7699,left,1,1.5777,,364.77,365.7716,5,6,86,2,1,partial,1,images/Ex11.jpg,left,training,hard,2,,,,,
,,,,,637fcee60a8378c1c3a65898,001,,,,,2024-03-06_12h16.14.481,CRL1h,2023.2.3,Linux x86_64,59.88023952,65e67470ae2fbf2172c317b2,65e85e752eabfe91b174cc95,,,,,,,,,,,365.7854,0.7,366.4867,366.4867,368.1404,right,1,1.6516,,368.1404,369.1374,5,7,87,15,1,partial,1,images/Ex16.jpg,right,training,hard,2,,,,,
,,,,,637fcee60a8378c1c3a65898,001,,,,,2024-03-06_12h16.14.481,CRL1h,2023.2.3,Linux x86_64,59.88023952,65e67470ae2fbf2172c317b2,65e85e752eabfe91b174cc95,,,,,,,,,,,369.1382,1.2,370.3379,370.3379,372.0985,left,0,1.7586,,372.0985,373.0894,5,8,88,12,1,partial,1,images/Ex13.jpg,right,training,hard,2,,,,,
,,,,,637fcee60a8378c1c3a65898,001,,,,,2024-03-06_12h16.14.481,CRL1h,2023.2.3,Linux x86_64,59.88023952,65e67470ae2fbf2172c317b2,65e85e752eabfe91b174cc95,,,,,,,,,,,373.0905,1,374.0902,374.0903,375.24,left,0,1.143,,375.2401,376.2404,5,9,89,13,1,partial,1,images/Ex14.jpg,right,training,hard,2,,,,,
,,,,,637fcee60a8378c1c3a65898,001,,,,,2024-03-06_12h16.14.481,CRL1h,2023.2.3,Linux x86_64,59.88023952,65e67470ae2fbf2172c317b2,65e85e752eabfe91b174cc95,,,,,,,,,,,376.2414,1.5,377.7412,377.7413,378.6787,right,0,0.9353,,378.6787,379.6748,5,10,90,0,1,partial,1,images/Ex9.jpg,left,training,hard,2,,,,,
,,,,,637fcee60a8378c1c3a65898,001,,,,,2024-03-06_12h16.14.481,CRL1h,2023.2.3,Linux x86_64,59.88023952,65e67470ae2fbf2172c317b2,65e85e752eabfe91b174cc95,,,,,,,,,,,379.6756,1.3,380.9761,380.9762,381.73,left,1,0.7521,,381.73,382.7264,5,11,91,8,1,partial,1,images/Ex9.jpg,left,training,hard,2,,,,,
,,,,,637fcee60a8378c1c3a65898,001,,,,,2024-03-06_12h16.14.481,CRL1h,2023.2.3,Linux x86_64,59.88023952,65e67470ae2fbf2172c317b2,65e85e752eabfe91b174cc95,,,,,,,,,,,382.7273,0.7,383.4266,383.4267,385.948,left,0,2.5171,,385.9481,386.9477,5,12,92,6,1,partial,1,images/Ex15.jpg,right,training,hard,2,,,,,
,,,,,637fcee60a8378c1c3a65898,001,,,,,2024-03-06_12h16.14.481,CRL1h,2023.2.3,Linux x86_64,59.88023952,65e67470ae2fbf2172c317b2,65e85e752eabfe91b174cc95,,,,,,,,,,,386.9621,0.9,387.8617,387.8619,388.7172,left,1,0.8535,,388.7172,389.7125,5,13,93,9,1,partial,1,images/Ex10.jpg,left,training,hard,2,,,,,
,,,,,637fcee60a8378c1c3a65898,001,,,,,2024-03-06_12h16.14.481,CRL1h,2023.2.3,Linux x86_64,59.88023952,65e67470ae2fbf2172c317b2,65e85e752eabfe91b174cc95,,,,,,,,,,,389.7133,1.3,391.0128,391.0128,392.3299,left,0,1.3135,,392.33,393.3201,5,14,94,4,1,partial,1,images/Ex13.jpg,right,training,hard,2,,,,,
,,,,,637fcee60a8378c1c3a65898,001,,,,,2024-03-06_12h16.14.481,CRL1h,2023.2.3,Linux x86_64,59.88023952,65e67470ae2fbf2172c317b2,65e85e752eabfe91b174cc95,,,,,,,,,,,393.3207,0.8,394.114,394.1141,395.7364,right,1,1.6202,,395.7365,396.7332,5,15,95,14,1,partial,1,images/Ex15.jpg,right,training,hard,2,,,,,
,,,,,637fcee60a8378c1c3a65898,001,,,,,2024-03-06_12h16.14.481,CRL1h,2023.2.3,Linux x86_64,59.88023952,65e67470ae2fbf2172c317b2,65e85e752eabfe91b174cc95,,,,,,,,,,,396.7339,1.2,397.9357,397.9358,399.4198,right,0,1.4825,,399.4199,400.4162,6,0,96,3,1,partial,1,images/Ex12.jpg,left,training,hard,2,,,,,
,,,,,637fcee60a8378c1c3a65898,001,,,,,2024-03-06_12h16.14.481,CRL1h,2023.2.3,Linux x86_64,59.88023952,65e67470ae2fbf2172c317b2,65e85e752eabfe91b174cc95,,,,,,,,,,,400.417,0.5,400.917,400.917,401.9671,right,1,1.0444,,401.9672,402.968,6,1,97,7,1,partial,1,images/Ex16.jpg,right,training,hard,2,,,,,
,,,,,637fcee60a8378c1c3a65898,001,,,,,2024-03-06_12h16.14.481,CRL1h,2023.2.3,Linux x86_64,59.88023952,65e67470ae2fbf2172c317b2,65e85e752eabfe91b174cc95,,,,,,,,,,,402.9688,1,403.9676,403.9676,404.859,left,1,0.8895,,404.8591,405.8517,6,2,98,8,1,partial,1,images/Ex9.jpg,left,training,hard,2,,,,,
,,,,,637fcee60a8378c1c3a65898,001,,,,,2024-03-06_12h16.14.481,CRL1h,2023.2.3,Linux x86_64,59.88023952,65e67470ae2fbf2172c317b2,65e85e752eabfe91b174cc95,,,,,,,,,,,405.8524,1.3,407.154,407.154,408.7363,left,1,1.5803,,408.7364,409.7365,6,3,99,1,1,partial,1,images/Ex10.jpg,left,training,hard,2,,,,,
,,,,,637fcee60a8378c1c3a65898,001,,,,,2024-03-06_12h16.14.481,CRL1h,2023.2.3,Linux x86_64,59.88023952,65e67470ae2fbf2172c317b2,65e85e752eabfe91b174cc95,,,,,,,,,,,409.7372,0.6,410.3366,410.3366,411.9246,left,0,1.5864,,411.9247,412.9207,6,4,100,14,1,partial,1,images/Ex15.jpg,right,training,hard,2,,,,,
,,,,,637fcee60a8378c1c3a65898,001,,,,,2024-03-06_12h16.14.481,CRL1h,2023.2.3,Linux x86_64,59.88023952,65e67470ae2fbf2172c317b2,65e85e752eabfe91b174cc95,,,,,,,,,,,412.9214,1.3,414.2212,414.2213,415.6892,left,0,1.4588,,415.6894,416.6891,6,5,101,12,1,partial,1,images/Ex13.jpg,right,training,hard,2,,,,,
,,,,,637fcee60a8378c1c3a65898,001,,,,,2024-03-06_12h16.14.481,CRL1h,2023.2.3,Linux x86_64,59.88023952,65e67470ae2fbf2172c317b2,65e85e752eabfe91b174cc95,,,,,,,,,,,416.6901,1.2,417.8892,417.8893,419.3098,right,1,1.4183,,419.3099,420.3074,6,6,102,6,1,partial,1,images/Ex15.jpg,right,training,hard,2,,,,,
,,,,,637fcee60a8378c1c3a65898,001,,,,,2024-03-06_12h16.14.481,CRL1h,2023.2.3,Linux x86_64,59.88023952,65e67470ae2fbf2172c317b2,65e85e752eabfe91b174cc95,,,,,,,,,,,420.3229,0.7,421.0238,421.0239,423.3414,left,1,2.3121,,423.3415,424.3417,6,7,103,11,1,partial,1,images/Ex12.jpg,left,training,hard,2,,,,,
,,,,,637fcee60a8378c1c3a65898,001,,,,,2024-03-06_12h16.14.481,CRL1h,2023.2.3,Linux x86_64,59.88023952,65e67470ae2fbf2172c317b2,65e85e752eabfe91b174cc95,,,,,,,,,,,424.3555,0.9,425.2436,425.2436,426.4662,right,1,1.2205,,426.4662,427.4628,6,8,104,5,1,partial,1,images/Ex14.jpg,right,training,hard,2,,,,,
,,,,,637fcee60a8378c1c3a65898,001,,,,,2024-03-06_12h16.14.481,CRL1h,2023.2.3,Linux x86_64,59.88023952,65e67470ae2fbf2172c317b2,65e85e752eabfe91b174cc95,,,,,,,,,,,427.4637,1.4,428.8607,428.8607,429.8619,right,0,0.9991,,429.8619,430.8611,6,9,105,2,1,partial,1,images/Ex11.jpg,left,training,hard,2,,,,,
,,,,,637fcee60a8378c1c3a65898,001,,,,,2024-03-06_12h16.14.481,CRL1h,2023.2.3,Linux x86_64,59.88023952,65e67470ae2fbf2172c317b2,65e85e752eabfe91b174cc95,,,,,,,,,,,430.8621,0.7,431.5612,431.5613,432.9721,right,1,1.4091,,432.9722,433.9685,6,10,106,15,1,partial,1,images/Ex16.jpg,right,training,hard,2,,,,,
,,,,,637fcee60a8378c1c3a65898,001,,,,,2024-03-06_12h16.14.481,CRL1h,2023.2.3,Linux x86_64,59.88023952,65e67470ae2fbf2172c317b2,65e85e752eabfe91b174cc95,,,,,,,,,,,433.9694,1,434.9623,434.9624,436.0197,left,0,1.0554,,436.0198,437.0139,6,11,107,13,1,partial,1,images/Ex14.jpg,right,training,hard,2,,,,,
,,,,,637fcee60a8378c1c3a65898,001,,,,,2024-03-06_12h16.14.481,CRL1h,2023.2.3,Linux x86_64,59.88023952,65e67470ae2fbf2172c317b2,65e85e752eabfe91b174cc95,,,,,,,,,,,437.015,0.9,437.9139,437.914,438.9643,right,0,1.0458,,438.9644,439.9648,6,12,108,10,1,partial,1,images/Ex11.jpg,left,training,hard,2,,,,,
,,,,,637fcee60a8378c1c3a65898,001,,,,,2024-03-06_12h16.14.481,CRL1h,2023.2.3,Linux x86_64,59.88023952,65e67470ae2fbf2172c317b2,65e85e752eabfe91b174cc95,,,,,,,,,,,439.9658,1.3,441.2652,441.2654,442.7995,left,1,1.5286,,442.7996,443.8016,6,13,109,9,1,partial,1,images/Ex10.jpg,left,training,hard,2,,,,,
,,,,,637fcee60a8378c1c3a65898,001,,,,,2024-03-06_12h16.14.481,CRL1h,2023.2.3,Linux x86_64,59.88023952,65e67470ae2fbf2172c317b2,65e85e752eabfe91b174cc95,,,,,,,,,,,443.8024,0.7,444.5021,444.5021,445.74,left,0,1.2362,,445.7401,446.7337,6,14,110,4,1,partial,1,images/Ex13.jpg,right,training,hard,2,,,,,
,,,,,637fcee60a8378c1c3a65898,001,,,,,2024-03-06_12h16.14.481,CRL1h,2023.2.3,Linux x86_64,59.88023952,65e67470ae2fbf2172c317b2,65e85e752eabfe91b174cc95,,,,,,,,,,,446.735,1.5,448.2359,448.236,449.7227,left,1,1.485,,449.7227,450.7186,6,15,111,0,1,partial,1,images/Ex9.jpg,left,training,hard,2,,,,,
,,,,,637fcee60a8378c1c3a65898,001,,,,,2024-03-06_12h16.14.481,CRL1h,2023.2.3,Linux x86_64,59.88023952,65e67470ae2fbf2172c317b2,65e85e752eabfe91b174cc95,,,,,,,,,,,450.7196,0.8,451.5192,451.5192,453.2534,left,0,1.7292,,453.2535,454.2539,7,0,112,6,1,partial,1,images/Ex15.jpg,right,training,hard,2,,,,,
,,,,,637fcee60a8378c1c3a65898,001,,,,,2024-03-06_12h16.14.481,CRL1h,2023.2.3,Linux x86_64,59.88023952,65e67470ae2fbf2172c317b2,65e85e752eabfe91b174cc95,,,,,,,,,,,454.2678,1.1,455.3716,455.3716,457.1391,right,0,1.7655,,457.1392,458.1389,7,1,113,3,1,partial,1,images/Ex12.jpg,left,training,hard,2,,,,,
,,,,,637fcee60a8378c1c3a65898,001,,,,,2024-03-06_12h16.14.481,CRL1h,2023.2.3,Linux x86_64,59.88023952,65e67470ae2fbf2172c317b2,65e85e752eabfe91b174cc95,,,,,,,,,,,458.152,1.1,459.2564,459.2564,460.3639,right,1,1.1051,,460.3639,461.3559,7,2,114,5,1,partial,1,images/Ex14.jpg,right,training,hard,2,,,,,
,,,,,637fcee60a8378c1c3a65898,001,,,,,2024-03-06_12h16.14.481,CRL1h,2023.2.3,Linux x86_64,59.88023952,65e67470ae2fbf2172c317b2,65e85e752eabfe91b174cc95,,,,,,,,,,,461.3567,0.9,462.2562,462.2562,463.5904,right,1,1.3292,,463.5905,464.5921,7,3,115,14,1,partial,1,images/Ex15.jpg,right,training,hard,2,,,,,
,,,,,637fcee60a8378c1c3a65898,001,,,,,2024-03-06_12h16.14.481,CRL1h,2023.2.3,Linux x86_64,59.88023952,65e67470ae2fbf2172c317b2,65e85e752eabfe91b174cc95,,,,,,,,,,,464.5928,0.7,465.2907,465.2908,466.4617,right,0,1.1694,,466.4619,467.4586,7,4,116,8,1,partial,1,images/Ex9.jpg,left,training,hard,2,,,,,
,,,,,637fcee60a8378c1c3a65898,001,,,,,2024-03-06_12h16.14.481,CRL1h,2023.2.3,Linux x86_64,59.88023952,65e67470ae2fbf2172c317b2,65e85e752eabfe91b174cc95,,,,,,,,,,,467.4594,1.1,468.5593,468.5595,470.2091,right,1,1.648,,470.2092,471.2103,7,5,117,15,1,partial,1,images/Ex16.jpg,right,training,hard,2,,,,,
,,,,,637fcee60a8378c1c3a65898,001,,,,,2024-03-06_12h16.14.481,CRL1h,2023.2.3,Linux x86_64,59.88023952,65e67470ae2fbf2172c317b2,65e85e752eabfe91b174cc95,,,,,,,,,,,471.2112,0.7,471.9104,471.9105,472.4482,right,1,0.5361,,472.4482,473.4449,7,6,118,7,1,partial,1,images/Ex16.jpg,right,training,hard,2,,,,,
,,,,,637fcee60a8378c1c3a65898,001,,,,,2024-03-06_12h16.14.481,CRL1h,2023.2.3,Linux x86_64,59.88023952,65e67470ae2fbf2172c317b2,65e85e752eabfe91b174cc95,,,,,,,,,,,473.4456,1.2,474.6462,474.6464,475.8659,left,0,1.2168,,475.866,476.8633,7,7,119,12,1,partial,1,images/Ex13.jpg,right,training,hard,2,,,,,
,,,,,637fcee60a8378c1c3a65898,001,,,,,2024-03-06_12h16.14.481,CRL1h,2023.2.3,Linux x86_64,59.88023952,65e67470ae2fbf2172c317b2,65e85e752eabfe91b174cc95,,,,,,,,,,,476.8642,0.5,477.3557,477.3557,478.1147,right,1,0.7562,,478.1147,479.114,7,8,120,4,1,partial,1,images/Ex13.jpg,right,training,hard,2,,,,,
,,,,,637fcee60a8378c1c3a65898,001,,,,,2024-03-06_12h16.14.481,CRL1h,2023.2.3,Linux x86_64,59.88023952,65e67470ae2fbf2172c317b2,65e85e752eabfe91b174cc95,,,,,,,,,,,479.1153,0.8,479.9063,479.9064,481.3812,left,1,1.47,,481.3813,482.3808,7,9,121,2,1,partial,1,images/Ex11.jpg,left,training,hard,2,,,,,
,,,,,637fcee60a8378c1c3a65898,001,,,,,2024-03-06_12h16.14.481,CRL1h,2023.2.3,Linux x86_64,59.88023952,65e67470ae2fbf2172c317b2,65e85e752eabfe91b174cc95,,,,,,,,,,,482.3947,1.3,483.7009,483.701,485.3175,left,1,1.6127,,485.3176,486.3194,7,10,122,11,1,partial,1,images/Ex12.jpg,left,training,hard,2,,,,,
,,,,,637fcee60a8378c1c3a65898,001,,,,,2024-03-06_12h16.14.481,CRL1h,2023.2.3,Linux x86_64,59.88023952,65e67470ae2fbf2172c317b2,65e85e752eabfe91b174cc95,,,,,,,,,,,486.3334,0.5,486.8334,486.8334,487.9782,left,1,1.1429,,487.9783,488.9666,7,11,123,10,1,partial,1,images/Ex11.jpg,left,training,hard,2,,,,,
,,,,,637fcee60a8378c1c3a65898,001,,,,,2024-03-06_12h16.14.481,CRL1h,2023.2.3,Linux x86_64,59.88023952,65e67470ae2fbf2172c317b2,65e85e752eabfe91b174cc95,,,,,,,,,,,488.9673,1.1,490.067,490.067,491.7509,left,1,1.6785,,491.751,492.7517,7,12,124,0,1,partial,1,images/Ex9.jpg,left,training,hard,2,,,,,
,,,,,637fcee60a8378c1c3a65898,001,,,,,2024-03-06_12h16.14.481,CRL1h,2023.2.3,Linux x86_64,59.88023952,65e67470ae2fbf2172c317b2,65e85e752eabfe91b174cc95,,,,,,,,,,,492.7657,0.9,493.6687,493.6687,494.4073,left,1,0.7368,,494.4073,495.4023,7,13,125,9,1,partial,1,images/Ex10.jpg,left,training,hard,2,,,,,
,,,,,637fcee60a8378c1c3a65898,001,,,,,2024-03-06_12h16.14.481,CRL1h,2023.2.3,Linux x86_64,59.88023952,65e67470ae2fbf2172c317b2,65e85e752eabfe91b174cc95,,,,,,,,,,,495.4031,0.8,496.2025,496.2026,496.7373,left,1,0.5324,,496.7374,497.7376,7,14,126,1,1,partial,1,images/Ex10.jpg,left,training,hard,2,,,,,
,,,,,637fcee60a8378c1c3a65898,001,,,,,2024-03-06_12h16.14.481,CRL1h,2023.2.3,Linux x86_64,59.88023952,65e67470ae2fbf2172c317b2,65e85e752eabfe91b174cc95,,,,,,,,,,,497.7385,1,498.7367,498.7368,500.0542,right,1,1.3123,,500.0543,501.0549,7,15,127,13,1,partial,1,images/Ex14.jpg,right,training,hard,2,,,,,
,,,,,637fcee60a8378c1c3a65898,001,,,,,2024-03-06_12h16.14.481,CRL1h,2023.2.3,Linux x86_64,59.88023952,65e67470ae2fbf2172c317b2,65e85e752eabfe91b174cc95,,,,,,,,,,,501.0699,1.4,502.472,502.472,504.2227,left,0,1.7457,,504.2227,505.2229,0,0,0,12,1,partial,2,images/Ex13.jpg,right,nonreversed,hard,2,,,,,
,,,,,637fcee60a8378c1c3a65898,001,,,,,2024-03-06_12h16.14.481,CRL1h,2023.2.3,Linux x86_64,59.88023952,65e67470ae2fbf2172c317b2,65e85e752eabfe91b174cc95,,,,,,,,,,,505.2238,0.8,506.0231,506.0232,506.6907,left,0,0.6657,,506.6907,507.6903,0,1,1,1,1,partial,2,images/Ex10.jpg,right,reversed,hard,2,,,,,
,,,,,637fcee60a8378c1c3a65898,001,,,,,2024-03-06_12h16.14.481,CRL1h,2023.2.3,Linux x86_64,59.88023952,65e67470ae2fbf2172c317b2,65e85e752eabfe91b174cc95,,,,,,,,,,,507.6912,0.8,508.4909,508.491,509.2615,right,0,0.7685,,509.2616,510.258,0,2,2,7,1,partial,2,images/Ex16.jpg,left,reversed,hard,2,,,,,
,,,,,637fcee60a8378c1c3a65898,001,,,,,2024-03-06_12h16.14.481,CRL1h,2023.2.3,Linux x86_64,59.88023952,65e67470ae2fbf2172c317b2,65e85e752eabfe91b174cc95,,,,,,,,,,,510.2587,0.5,510.761,510.7612,512.4431,right,1,1.6745,,512.4433,513.4425,0,3,3,4,1,partial,2,images/Ex13.jpg,right,nonreversed,hard,2,,,,,
,,,,,637fcee60a8378c1c3a65898,001,,,,,2024-03-06_12h16.14.481,CRL1h,2023.2.3,Linux x86_64,59.88023952,65e67470ae2fbf2172c317b2,65e85e752eabfe91b174cc95,,,,,,,,,,,513.4437,1.3,514.7434,514.7435,515.96,left,1,1.2139,,515.9601,516.9612,0,4,4,6,1,partial,2,images/Ex15.jpg,left,reversed,hard,2,,,,,
,,,,,637fcee60a8378c1c3a65898,001,,,,,2024-03-06_12h16.14.481,CRL1h,2023.2.3,Linux x86_64,59.88023952,65e67470ae2fbf2172c317b2,65e85e752eabfe91b174cc95,,,,,,,,,,,516.9623,1,517.9609,517.961,519.3992,right,0,1.4364,,519.3993,520.3958,0,5,5,15,1,partial,2,images/Ex16.jpg,left,reversed,hard,2,,,,,
,,,,,637fcee60a8378c1c3a65898,001,,,,,2024-03-06_12h16.14.481,CRL1h,2023.2.3,Linux x86_64,59.88023952,65e67470ae2fbf2172c317b2,65e85e752eabfe91b174cc95,,,,,,,,,,,520.4096,0.6,521.0123,521.0124,521.8982,left,0,0.884,,521.8983,522.896,0,6,6,5,1,partial,2,images/Ex14.jpg,right,nonreversed,hard,2,,,,,
,,,,,637fcee60a8378c1c3a65898,001,,,,,2024-03-06_12h16.14.481,CRL1h,2023.2.3,Linux x86_64,59.88023952,65e67470ae2fbf2172c317b2,65e85e752eabfe91b174cc95,,,,,,,,,,,522.8967,1.4,524.2994,524.2994,524.9331,right,0,0.6282,,524.9332,525.9307,0,7,7,10,1,partial,2,images/Ex11.jpg,left,nonreversed,hard,2,,,,,
,,,,,637fcee60a8378c1c3a65898,001,,,,,2024-03-06_12h16.14.481,CRL1h,2023.2.3,Linux x86_64,59.88023952,65e67470ae2fbf2172c317b2,65e85e752eabfe91b174cc95,,,,,,,,,,,525.9315,0.8,526.731,526.7311,528.818,left,1,2.0837,,528.8181,529.8186,0,8,8,3,1,partial,2,images/Ex12.jpg,left,nonreversed,hard,2,,,,,
,,,,,637fcee60a8378c1c3a65898,001,,,,,2024-03-06_12h16.14.481,CRL1h,2023.2.3,Linux x86_64,59.88023952,65e67470ae2fbf2172c317b2,65e85e752eabfe91b174cc95,,,,,,,,,,,529.8195,1.5,531.3164,531.3165,533.2676,left,1,1.9476,,533.2677,534.2669,0,9,9,14,1,partial,2,images/Ex15.jpg,left,reversed,hard,2,,,,,
,,,,,637fcee60a8378c1c3a65898,001,,,,,2024-03-06_12h16.14.481,CRL1h,2023.2.3,Linux x86_64,59.88023952,65e67470ae2fbf2172c317b2,65e85e752eabfe91b174cc95,,,,,,,,,,,534.2678,1.5,535.7677,535.7678,537.2187,right,0,1.4476,,537.2188,538.2188,0,10,10,2,1,partial,2,images/Ex11.jpg,left,nonreversed,hard,2,,,,,
,,,,,637fcee60a8378c1c3a65898,001,,,,,2024-03-06_12h16.14.481,CRL1h,2023.2.3,Linux x86_64,59.88023952,65e67470ae2fbf2172c317b2,65e85e752eabfe91b174cc95,,,,,,,,,,,538.2197,1.3,539.5195,539.5196,540.4365,left,0,0.9145,,540.4367,541.4291,0,11,11,13,1,partial,2,images/Ex14.jpg,right,nonreversed,hard,2,,,,,
,,,,,637fcee60a8378c1c3a65898,001,,,,,2024-03-06_12h16.14.481,CRL1h,2023.2.3,Linux x86_64,59.88023952,65e67470ae2fbf2172c317b2,65e85e752eabfe91b174cc95,,,,,,,,,,,541.4302,1.2,542.622,542.6222,544.4383,left,0,1.8143,,544.4384,545.4384,0,12,12,8,1,partial,2,images/Ex9.jpg,right,reversed,hard,2,,,,,
,,,,,637fcee60a8378c1c3a65898,001,,,,,2024-03-06_12h16.14.481,CRL1h,2023.2.3,Linux x86_64,59.88023952,65e67470ae2fbf2172c317b2,65e85e752eabfe91b174cc95,,,,,,,,,,,545.4393,0.6,546.0383,546.0385,546.7056,right,1,0.6627,,546.7057,547.707,0,13,13,0,1,partial,2,images/Ex9.jpg,right,reversed,hard,2,,,,,
,,,,,637fcee60a8378c1c3a65898,001,,,,,2024-03-06_12h16.14.481,CRL1h,2023.2.3,Linux x86_64,59.88023952,65e67470ae2fbf2172c317b2,65e85e752eabfe91b174cc95,,,,,,,,,,,547.7079,1,548.7066,548.7066,549.6261,left,0,0.9131,,549.6261,550.6235,0,14,14,9,1,partial,2,images/Ex10.jpg,right,reversed,hard,2,,,,,
,,,,,637fcee60a8378c1c3a65898,001,,,,,2024-03-06_12h16.14.481,CRL1h,2023.2.3,Linux x86_64,59.88023952,65e67470ae2fbf2172c317b2,65e85e752eabfe91b174cc95,,,,,,,,,,,550.6244,1.3,551.9237,551.9238,553.3755,left,1,1.4483,,553.3755,554.3785,0,15,15,11,1,partial,2,images/Ex12.jpg,left,nonreversed,hard,2,,,,,
,,,,,637fcee60a8378c1c3a65898,001,,,,,2024-03-06_12h16.14.481,CRL1h,2023.2.3,Linux x86_64,59.88023952,65e67470ae2fbf2172c317b2,65e85e752eabfe91b174cc95,,,,,,,,,,,554.3795,1.1,555.4853,555.4855,556.2752,right,1,0.7855,,556.2755,557.2759,1,0,16,9,1,partial,2,images/Ex10.jpg,right,reversed,hard,2,,,,,
,,,,,637fcee60a8378c1c3a65898,001,,,,,2024-03-06_12h16.14.481,CRL1h,2023.2.3,Linux x86_64,59.88023952,65e67470ae2fbf2172c317b2,65e85e752eabfe91b174cc95,,,,,,,,,,,557.2767,1,558.2779,558.2779,559.4628,right,1,1.1831,,559.4628,560.4603,1,1,17,5,1,partial,2,images/Ex14.jpg,right,nonreversed,hard,2,,,,,
,,,,,637fcee60a8378c1c3a65898,001,,,,,2024-03-06_12h16.14.481,CRL1h,2023.2.3,Linux x86_64,59.88023952,65e67470ae2fbf2172c317b2,65e85e752eabfe91b174cc95,,,,,,,,,,,560.4609,0.9,561.3608,561.3609,563.0282,right,0,1.6651,,563.0283,564.0286,1,2,18,3,1,partial,2,images/Ex12.jpg,left,nonreversed,hard,2,,,,,
,,,,,637fcee60a8378c1c3a65898,001,,,,,2024-03-06_12h16.14.481,CRL1h,2023.2.3,Linux x86_64,59.88023952,65e67470ae2fbf2172c317b2,65e85e752eabfe91b174cc95,,,,,,,,,,,564.0294,0.9,564.9295,564.9297,566.183,left,0,1.2508,,566.1831,567.1798,1,3,19,0,1,partial,2,images/Ex9.jpg,right,reversed,hard,2,,,,,
,,,,,637fcee60a8378c1c3a65898,001,,,,,2024-03-06_12h16.14.481,CRL1h,2023.2.3,Linux x86_64,59.88023952,65e67470ae2fbf2172c317b2,65e85e752eabfe91b174cc95,,,,,,,,,,,567.1805,0.7,567.8809,567.8829,568.7636,right,1,0.8752,,568.7637,569.7645,1,4,20,8,1,partial,2,images/Ex9.jpg,right,reversed,hard,2,,,,,
,,,,,637fcee60a8378c1c3a65898,001,,,,,2024-03-06_12h16.14.481,CRL1h,2023.2.3,Linux x86_64,59.88023952,65e67470ae2fbf2172c317b2,65e85e752eabfe91b174cc95,,,,,,,,,,,569.7653,1.1,570.8645,570.8646,572.8195,left,0,1.9529,,572.8196,573.8157,1,5,21,12,1,partial,2,images/Ex13.jpg,right,nonreversed,hard,2,,,,,
,,,,,637fcee60a8378c1c3a65898,001,,,,,2024-03-06_12h16.14.481,CRL1h,2023.2.3,Linux x86_64,59.88023952,65e67470ae2fbf2172c317b2,65e85e752eabfe91b174cc95,,,,,,,,,,,573.8167,1.2,575.0167,575.0167,576.4916,right,0,1.4656,,576.4917,577.4841,1,6,22,2,1,partial,2,images/Ex11.jpg,left,nonreversed,hard,2,,,,,
,,,,,637fcee60a8378c1c3a65898,001,,,,,2024-03-06_12h16.14.481,CRL1h,2023.2.3,Linux x86_64,59.88023952,65e67470ae2fbf2172c317b2,65e85e752eabfe91b174cc95,,,,,,,,,,,577.4849,1.3,578.7848,578.7849,581.7526,left,1,2.9642,,581.7527,582.7522,1,7,23,7,1,partial,2,images/Ex16.jpg,left,reversed,hard,2,,,,,
,,,,,637fcee60a8378c1c3a65898,001,,,,,2024-03-06_12h16.14.481,CRL1h,2023.2.3,Linux x86_64,59.88023952,65e67470ae2fbf2172c317b2,65e85e752eabfe91b174cc95,,,,,,,,,,,582.7659,1,583.7557,583.7558,584.3369,left,1,0.5766,,584.3371,585.3377,1,8,24,15,1,partial,2,images/Ex16.jpg,left,reversed,hard,2,,,,,
,,,,,637fcee60a8378c1c3a65898,001,,,,,2024-03-06_12h16.14.481,CRL1h,2023.2.3,Linux x86_64,59.88023952,65e67470ae2fbf2172c317b2,65e85e752eabfe91b174cc95,,,,,,,,,,,585.3385,0.6,585.9368,585.9369,587.4236,left,0,1.4804,,587.4237,588.4238,1,9,25,13,1,partial,2,images/Ex14.jpg,right,nonreversed,hard,2,,,,,
,,,,,637fcee60a8378c1c3a65898,001,,,,,2024-03-06_12h16.14.481,CRL1h,2023.2.3,Linux x86_64,59.88023952,65e67470ae2fbf2172c317b2,65e85e752eabfe91b174cc95,,,,,,,,,,,588.4247,1,589.4221,589.4222,590.3564,left,1,0.9291,,590.3565,591.3488,1,10,26,10,1,partial,2,images/Ex11.jpg,left,nonreversed,hard,2,,,,,
,,,,,637fcee60a8378c1c3a65898,001,,,,,2024-03-06_12h16.14.481,CRL1h,2023.2.3,Linux x86_64,59.88023952,65e67470ae2fbf2172c317b2,65e85e752eabfe91b174cc95,,,,,,,,,,,591.3497,1.4,592.7409,592.741,594.1736,left,1,1.4295,,594.1737,595.1736,1,11,27,11,1,partial,2,images/Ex12.jpg,left,nonreversed,hard,2,,,,,
,,,,,637fcee60a8378c1c3a65898,001,,,,,2024-03-06_12h16.14.481,CRL1h,2023.2.3,Linux x86_64,59.88023952,65e67470ae2fbf2172c317b2,65e85e752eabfe91b174cc95,,,,,,,,,,,595.1743,1.3,596.4745,596.4746,597.3141,right,1,0.8374,,597.3142,598.3094,1,12,28,1,1,partial,2,images/Ex10.jpg,right,reversed,hard,2,,,,,
,,,,,637fcee60a8378c1c3a65898,001,,,,,2024-03-06_12h16.14.481,CRL1h,2023.2.3,Linux x86_64,59.88023952,65e67470ae2fbf2172c317b2,65e85e752eabfe91b174cc95,,,,,,,,,,,598.3103,0.6,598.9089,598.909,600.0303,left,1,1.1192,,600.0303,601.0271,1,13,29,14,1,partial,2,images/Ex15.jpg,left,reversed,hard,2,,,,,
,,,,,637fcee60a8378c1c3a65898,001,,,,,2024-03-06_12h16.14.481,CRL1h,2023.2.3,Linux x86_64,59.88023952,65e67470ae2fbf2172c317b2,65e85e752eabfe91b174cc95,,,,,,,,,,,601.0288,0.8,601.8263,601.8264,602.386,left,1,0.558,,602.3861,603.3769,1,14,30,6,1,partial,2,images/Ex15.jpg,left,reversed,hard,2,,,,,
,,,,,637fcee60a8378c1c3a65898,001,,,,,2024-03-06_12h16.14.481,CRL1h,2023.2.3,Linux x86_64,59.88023952,65e67470ae2fbf2172c317b2,65e85e752eabfe91b174cc95,,,,,,,,,,,603.3776,1,604.3776,604.3777,605.2608,left,0,0.8778,,605.2609,606.262,1,15,31,4,1,partial,2,images/Ex13.jpg,right,nonreversed,hard,2,,,,,
,,,,,637fcee60a8378c1c3a65898,001,,,,,2024-03-06_12h16.14.481,CRL1h,2023.2.3,Linux x86_64,59.88023952,65e67470ae2fbf2172c317b2,65e85e752eabfe91b174cc95,,,,,,,,,,,606.2631,0.5,606.7615,606.7616,608.1297,left,0,1.3635,,608.1299,609.1307,2,0,32,8,1,partial,2,images/Ex9.jpg,right,reversed,hard,2,,,,,
,,,,,637fcee60a8378c1c3a65898,001,,,,,2024-03-06_12h16.14.481,CRL1h,2023.2.3,Linux x86_64,59.88023952,65e67470ae2fbf2172c317b2,65e85e752eabfe91b174cc95,,,,,,,,,,,609.1314,1.2,610.3301,610.3302,611.3682,right,0,1.0332,,611.3683,612.3642,2,1,33,14,1,partial,2,images/Ex15.jpg,left,reversed,hard,2,,,,,
,,,,,637fcee60a8378c1c3a65898,001,,,,,2024-03-06_12h16.14.481,CRL1h,2023.2.3,Linux x86_64,59.88023952,65e67470ae2fbf2172c317b2,65e85e752eabfe91b174cc95,,,,,,,,,,,612.3653,1.2,613.5643,613.5643,614.6177,right,0,1.0475,,614.6179,615.6158,2,2,34,15,1,partial,2,images/Ex16.jpg,left,reversed,hard,2,,,,,
,,,,,637fcee60a8378c1c3a65898,001,,,,,2024-03-06_12h16.14.481,CRL1h,2023.2.3,Linux x86_64,59.88023952,65e67470ae2fbf2172c317b2,65e85e752eabfe91b174cc95,,,,,,,,,,,615.6166,0.5,616.1154,616.1154,617.2717,left,1,1.1546,,617.2718,618.2668,2,3,35,3,1,partial,2,images/Ex12.jpg,left,nonreversed,hard,2,,,,,
,,,,,637fcee60a8378c1c3a65898,001,,,,,2024-03-06_12h16.14.481,CRL1h,2023.2.3,Linux x86_64,59.88023952,65e67470ae2fbf2172c317b2,65e85e752eabfe91b174cc95,,,,,,,,,,,618.2679,1.3,619.5673,619.5674,621.4364,left,0,1.865,,621.4365,622.4348,2,4,36,5,1,partial,2,images/Ex14.jpg,right,nonreversed,hard,2,,,,,
,,,,,637fcee60a8378c1c3a65898,001,,,,,2024-03-06_12h16.14.481,CRL1h,2023.2.3,Linux x86_64,59.88023952,65e67470ae2fbf2172c317b2,65e85e752eabfe91b174cc95,,,,,,,,,,,622.4358,0.9,623.3362,623.3362,625.1418,left,0,1.8038,,625.1418,626.1355,2,5,37,0,1,partial,2,images/Ex9.jpg,right,reversed,hard,2,,,,,
,,,,,637fcee60a8378c1c3a65898,001,,,,,2024-03-06_12h16.14.481,CRL1h,2023.2.3,Linux x86_64,59.88023952,65e67470ae2fbf2172c317b2,65e85e752eabfe91b174cc95,,,,,,,,,,,626.1363,0.8,626.9386,626.9387,627.789,right,1,0.8457,,627.7891,628.7877,2,6,38,1,1,partial,2,images/Ex10.jpg,right,reversed,hard,2,,,,,
,,,,,637fcee60a8378c1c3a65898,001,,,,,2024-03-06_12h16.14.481,CRL1h,2023.2.3,Linux x86_64,59.88023952,65e67470ae2fbf2172c317b2,65e85e752eabfe91b174cc95,,,,,,,,,,,628.7885,0.9,629.6871,629.6872,631.9709,left,1,2.2788,,631.971,632.9718,2,7,39,10,1,partial,2,images/Ex11.jpg,left,nonreversed,hard,2,,,,,
,,,,,637fcee60a8378c1c3a65898,001,,,,,2024-03-06_12h16.14.481,CRL1h,2023.2.3,Linux x86_64,59.88023952,65e67470ae2fbf2172c317b2,65e85e752eabfe91b174cc95,,,,,,,,,,,632.985,1.3,634.2888,634.2891,635.8943,right,1,1.6033,,635.8944,636.8898,2,8,40,4,1,partial,2,images/Ex13.jpg,right,nonreversed,hard,2,,,,,
,,,,,637fcee60a8378c1c3a65898,001,,,,,2024-03-06_12h16.14.481,CRL1h,2023.2.3,Linux x86_64,59.88023952,65e67470ae2fbf2172c317b2,65e85e752eabfe91b174cc95,,,,,,,,,,,636.9033,0.5,637.4068,637.4069,638.7432,left,1,1.3346,,638.7433,639.7429,2,9,41,11,1,partial,2,images/Ex12.jpg,left,nonreversed,hard,2,,,,,
,,,,,637fcee60a8378c1c3a65898,001,,,,,2024-03-06_12h16.14.481,CRL1h,2023.2.3,Linux x86_64,59.88023952,65e67470ae2fbf2172c317b2,65e85e752eabfe91b174cc95,,,,,,,,,,,639.7437,0.7,640.4427,640.4427,641.2749,right,0,0.8264,,641.275,642.2754,2,10,42,7,1,partial,2,images/Ex16.jpg,left,reversed,hard,2,,,,,
,,,,,637fcee60a8378c1c3a65898,001,,,,,2024-03-06_12h16.14.481,CRL1h,2023.2.3,Linux x86_64,59.88023952,65e67470ae2fbf2172c317b2,65e85e752eabfe91b174cc95,,,,,,,,,,,642.2768,1,643.2757,643.2758,644.8964,left,1,1.6162,,644.8965,645.8935,2,11,43,6,1,partial,2,images/Ex15.jpg,left,reversed,hard,2,,,,,
,,,,,637fcee60a8378c1c3a65898,001,,,,,2024-03-06_12h16.14.481,CRL1h,2023.2.3,Linux x86_64,59.88023952,65e67470ae2fbf2172c317b2,65e85e752eabfe91b174cc95,,,,,,,,,,,645.8942,1.4,647.2939,647.2939,648.1306,left,1,0.8315,,648.1307,649.1284,2,12,44,2,1,partial,2,images/Ex11.jpg,left,nonreversed,hard,2,,,,,
,,,,,637fcee60a8378c1c3a65898,001,,,,,2024-03-06_12h16.14.481,CRL1h,2023.2.3,Linux x86_64,59.88023952,65e67470ae2fbf2172c317b2,65e85e752eabfe91b174cc95,,,,,,,,,,,649.1294,0.7,649.8288,649.8288,651.7155,right,1,1.8835,,651.7156,652.7123,2,13,45,9,1,partial,2,images/Ex10.jpg,right,reversed,hard,2,,,,,
,,,,,637fcee60a8378c1c3a65898,001,,,,,2024-03-06_12h16.14.481,CRL1h,2023.2.3,Linux x86_64,59.88023952,65e67470ae2fbf2172c317b2,65e85e752eabfe91b174cc95,,,,,,,,,,,652.7131,1.3,654.0126,654.0126,655.765,left,0,1.7504,,655.7651,656.7651,2,14,46,13,1,partial,2,images/Ex14.jpg,right,nonreversed,hard,2,,,,,
,,,,,637fcee60a8378c1c3a65898,001,,,,,2024-03-06_12h16.14.481,CRL1h,2023.2.3,Linux x86_64,59.88023952,65e67470ae2fbf2172c317b2,65e85e752eabfe91b174cc95,,,,,,,,,,,656.7662,1,657.7669,657.767,659.1843,right,1,1.4151,,659.1845,660.1817,2,15,47,12,1,partial,2,images/Ex13.jpg,right,nonreversed,hard,2,,,,,
,,,,,637fcee60a8378c1c3a65898,001,,,,,2024-03-06_12h16.14.481,CRL1h,2023.2.3,Linux x86_64,59.88023952,65e67470ae2fbf2172c317b2,65e85e752eabfe91b174cc95,,,,,,,,,,,660.1825,1,661.1825,661.1826,662.2833,right,1,1.0988,,662.2834,663.2835,3,0,48,0,1,partial,2,images/Ex9.jpg,right,reversed,hard,2,,,,,
,,,,,637fcee60a8378c1c3a65898,001,,,,,2024-03-06_12h16.14.481,CRL1h,2023.2.3,Linux x86_64,59.88023952,65e67470ae2fbf2172c317b2,65e85e752eabfe91b174cc95,,,,,,,,,,,663.2844,1.3,664.5836,664.5836,665.5348,right,1,0.9479,,665.5348,666.5364,3,1,49,1,1,partial,2,images/Ex10.jpg,right,reversed,hard,2,,,,,
,,,,,637fcee60a8378c1c3a65898,001,,,,,2024-03-06_12h16.14.481,CRL1h,2023.2.3,Linux x86_64,59.88023952,65e67470ae2fbf2172c317b2,65e85e752eabfe91b174cc95,,,,,,,,,,,666.5373,1.3,667.8386,667.8387,668.7452,left,1,0.9046,,668.7452,669.7356,3,2,50,2,1,partial,2,images/Ex11.jpg,left,nonreversed,hard,2,,,,,
,,,,,637fcee60a8378c1c3a65898,001,,,,,2024-03-06_12h16.14.481,CRL1h,2023.2.3,Linux x86_64,59.88023952,65e67470ae2fbf2172c317b2,65e85e752eabfe91b174cc95,,,,,,,,,,,669.7367,0.7,670.4362,670.4363,671.7714,left,1,1.333,,671.7715,672.7703,3,3,51,3,1,partial,2,images/Ex12.jpg,left,nonreversed,hard,2,,,,,
,,,,,637fcee60a8378c1c3a65898,001,,,,,2024-03-06_12h16.14.481,CRL1h,2023.2.3,Linux x86_64,59.88023952,65e67470ae2fbf2172c317b2,65e85e752eabfe91b174cc95,,,,,,,,,,,672.7712,0.8,673.5711,673.5713,674.6241,left,1,1.0506,,674.6241,675.6185,3,4,52,10,1,partial,2,images/Ex11.jpg,left,nonreversed,hard,2,,,,,
,,,,,637fcee60a8378c1c3a65898,001,,,,,2024-03-06_12h16.14.481,CRL1h,2023.2.3,Linux x86_64,59.88023952,65e67470ae2fbf2172c317b2,65e85e752eabfe91b174cc95,,,,,,,,,,,675.6192,1,676.6223,676.6224,677.4719,right,1,0.8448,,677.4721,678.4721,3,5,53,12,1,partial,2,images/Ex13.jpg,right,nonreversed,hard,2,,,,,
,,,,,637fcee60a8378c1c3a65898,001,,,,,2024-03-06_12h16.14.481,CRL1h,2023.2.3,Linux x86_64,59.88023952,65e67470ae2fbf2172c317b2,65e85e752eabfe91b174cc95,,,,,,,,,,,678.4729,1.4,679.8727,679.8728,681.0962,left,0,1.2213,,681.0963,682.0901,3,6,54,13,1,partial,2,images/Ex14.jpg,right,nonreversed,hard,2,,,,,
,,,,,637fcee60a8378c1c3a65898,001,,,,,2024-03-06_12h16.14.481,CRL1h,2023.2.3,Linux x86_64,59.88023952,65e67470ae2fbf2172c317b2,65e85e752eabfe91b174cc95,,,,,,,,,,,682.0907,0.7,682.7912,682.7914,683.5577,right,1,0.7645,,683.5578,684.5583,3,7,55,4,1,partial,2,images/Ex13.jpg,right,nonreversed,hard,2,,,,,
,,,,,637fcee60a8378c1c3a65898,001,,,,,2024-03-06_12h16.14.481,CRL1h,2023.2.3,Linux x86_64,59.88023952,65e67470ae2fbf2172c317b2,65e85e752eabfe91b174cc95,,,,,,,,,,,684.5593,0.9,685.4607,685.4608,686.8926,left,1,1.426,,686.8927,687.893,3,8,56,7,1,partial,2,images/Ex16.jpg,left,reversed,hard,2,,,,,
,,,,,637fcee60a8378c1c3a65898,001,,,,,2024-03-06_12h16.14.481,CRL1h,2023.2.3,Linux x86_64,59.88023952,65e67470ae2fbf2172c317b2,65e85e752eabfe91b174cc95,,,,,,,,,,,687.8939,1.1,688.9929,688.9929,689.7333,left,0,0.7387,,689.7333,690.7275,3,9,57,5,1,partial,2,images/Ex14.jpg,right,nonreversed,hard,2,,,,,
,,,,,637fcee60a8378c1c3a65898,001,,,,,2024-03-06_12h16.14.481,CRL1h,2023.2.3,Linux x86_64,59.88023952,65e67470ae2fbf2172c317b2,65e85e752eabfe91b174cc95,,,,,,,,,,,690.7285,0.9,691.6281,691.6282,692.5778,right,1,0.9459,,692.5779,693.5784,3,10,58,8,1,partial,2,images/Ex9.jpg,right,reversed,hard,2,,,,,
,,,,,637fcee60a8378c1c3a65898,001,,,,,2024-03-06_12h16.14.481,CRL1h,2023.2.3,Linux x86_64,59.88023952,65e67470ae2fbf2172c317b2,65e85e752eabfe91b174cc95,,,,,,,,,,,693.5796,1.2,694.7786,694.7786,695.6622,left,1,0.8777,,695.6623,696.6633,3,11,59,14,1,partial,2,images/Ex15.jpg,left,reversed,hard,2,,,,,
,,,,,637fcee60a8378c1c3a65898,001,,,,,2024-03-06_12h16.14.481,CRL1h,2023.2.3,Linux x86_64,59.88023952,65e67470ae2fbf2172c317b2,65e85e752eabfe91b174cc95,,,,,,,,,,,696.6642,1.3,697.9628,697.9629,698.7912,left,1,0.8269,,698.7912,699.7805,3,12,60,15,1,partial,2,images/Ex16.jpg,left,reversed,hard,2,,,,,
,,,,,637fcee60a8378c1c3a65898,001,,,,,2024-03-06_12h16.14.481,CRL1h,2023.2.3,Linux x86_64,59.88023952,65e67470ae2fbf2172c317b2,65e85e752eabfe91b174cc95,,,,,,,,,,,699.7813,1.4,701.1807,701.1808,702.0198,left,1,0.8371,,702.0202,703.0149,3,13,61,6,1,partial,2,images/Ex15.jpg,left,reversed,hard,2,,,,,
,,,,,637fcee60a8378c1c3a65898,001,,,,,2024-03-06_12h16.14.481,CRL1h,2023.2.3,Linux x86_64,59.88023952,65e67470ae2fbf2172c317b2,65e85e752eabfe91b174cc95,,,,,,,,,,,703.0157,0.9,703.9158,703.9158,706.1347,right,0,2.2169,,706.1347,707.1352,3,14,62,11,1,partial,2,images/Ex12.jpg,left,nonreversed,hard,2,,,,,
,,,,,637fcee60a8378c1c3a65898,001,,,,,2024-03-06_12h16.14.481,CRL1h,2023.2.3,Linux x86_64,59.88023952,65e67470ae2fbf2172c317b2,65e85e752eabfe91b174cc95,,,,,,,,,,,707.1489,1,708.1504,708.1506,709.2508,right,1,1.0974,,709.2509,710.2509,3,15,63,9,1,partial,2,images/Ex10.jpg,right,reversed,hard,2,,,,,
,,,,,637fcee60a8378c1c3a65898,001,,,,,2024-03-06_12h16.14.481,CRL1h,2023.2.3,Linux x86_64,59.88023952,65e67470ae2fbf2172c317b2,65e85e752eabfe91b174cc95,,,,,,710.2529,715.4205,space,5.1549,,715.446,1.2,716.6371,716.6372,717.4207,left,0,0.7794,,717.4208,718.4211,0,0,0,12,1,total,1,images/Ex5.jpg,right,training,hard,2,,,,,
,,,,,637fcee60a8378c1c3a65898,001,,,,,2024-03-06_12h16.14.481,CRL1h,2023.2.3,Linux x86_64,59.88023952,65e67470ae2fbf2172c317b2,65e85e752eabfe91b174cc95,,,,,,,,,,,718.4218,0.7,719.1214,719.1215,720.5076,left,0,1.3802,,720.5076,721.5057,0,1,1,13,1,total,1,images/Ex6.jpg,right,training,hard,2,,,,,
,,,,,637fcee60a8378c1c3a65898,001,,,,,2024-03-06_12h16.14.481,CRL1h,2023.2.3,Linux x86_64,59.88023952,65e67470ae2fbf2172c317b2,65e85e752eabfe91b174cc95,,,,,,,,,,,721.5214,0.9,722.4223,722.4224,724.2403,left,0,1.8122,,724.2404,725.2406,0,2,2,14,1,total,1,images/Ex7.jpg,right,training,hard,2,,,,,
,,,,,637fcee60a8378c1c3a65898,001,,,,,2024-03-06_12h16.14.481,CRL1h,2023.2.3,Linux x86_64,59.88023952,65e67470ae2fbf2172c317b2,65e85e752eabfe91b174cc95,,,,,,,,,,,725.2545,1.5,726.7576,726.7577,728.077,left,0,1.3173,,728.077,729.0758,0,3,3,7,1,total,1,images/Ex8.jpg,right,training,hard,2,,,,,
,,,,,637fcee60a8378c1c3a65898,001,,,,,2024-03-06_12h16.14.481,CRL1h,2023.2.3,Linux x86_64,59.88023952,65e67470ae2fbf2172c317b2,65e85e752eabfe91b174cc95,,,,,,,,,,,729.0768,0.5,729.5755,729.5757,730.6255,left,0,1.0465,,730.6255,731.6261,0,4,4,6,1,total,1,images/Ex7.jpg,right,training,hard,2,,,,,
,,,,,637fcee60a8378c1c3a65898,001,,,,,2024-03-06_12h16.14.481,CRL1h,2023.2.3,Linux x86_64,59.88023952,65e67470ae2fbf2172c317b2,65e85e752eabfe91b174cc95,,,,,,,,,,,731.6268,1.2,732.8268,732.827,733.7292,left,0,0.898,,733.7293,734.7269,0,5,5,15,1,total,1,images/Ex8.jpg,right,training,hard,2,,,,,
,,,,,637fcee60a8378c1c3a65898,001,,,,,2024-03-06_12h16.14.481,CRL1h,2023.2.3,Linux x86_64,59.88023952,65e67470ae2fbf2172c317b2,65e85e752eabfe91b174cc95,,,,,,,,,,,734.7278,1.3,736.0277,736.0277,737.0822,left,1,1.0498,,737.0824,738.0782,0,6,6,0,1,total,1,images/Ex1.jpg,left,training,hard,2,,,,,
,,,,,637fcee60a8378c1c3a65898,001,,,,,2024-03-06_12h16.14.481,CRL1h,2023.2.3,Linux x86_64,59.88023952,65e67470ae2fbf2172c317b2,65e85e752eabfe91b174cc95,,,,,,,,,,,738.0789,1.4,739.4787,739.4788,740.8628,right,1,1.3805,,740.8629,741.8632,0,7,7,4,1,total,1,images/Ex5.jpg,right,training,hard,2,,,,,
,,,,,637fcee60a8378c1c3a65898,001,,,,,2024-03-06_12h16.14.481,CRL1h,2023.2.3,Linux x86_64,59.88023952,65e67470ae2fbf2172c317b2,65e85e752eabfe91b174cc95,,,,,,,,,,,741.864,1.2,743.0638,743.0639,744.6307,right,0,1.5633,,744.6309,745.6329,0,8,8,2,1,total,1,images/Ex3.jpg,left,training,hard,2,,,,,
,,,,,637fcee60a8378c1c3a65898,001,,,,,2024-03-06_12h16.14.481,CRL1h,2023.2.3,Linux x86_64,59.88023952,65e67470ae2fbf2172c317b2,65e85e752eabfe91b174cc95,,,,,,,,,,,745.6472,1.5,747.1487,747.1487,748.3157,right,1,1.1636,,748.3158,749.3178,0,9,9,5,1,total,1,images/Ex6.jpg,right,training,hard,2,,,,,
,,,,,637fcee60a8378c1c3a65898,001,,,,,2024-03-06_12h16.14.481,CRL1h,2023.2.3,Linux x86_64,59.88023952,65e67470ae2fbf2172c317b2,65e85e752eabfe91b174cc95,,,,,,,,,,,749.3327,0.6,749.9351,749.9352,751.3388,left,1,1.4019,,751.3388,752.3369,0,10,10,1,1,total,1,images/Ex2.jpg,left,training,hard,2,,,,,
,,,,,637fcee60a8378c1c3a65898,001,,,,,2024-03-06_12h16.14.481,CRL1h,2023.2.3,Linux x86_64,59.88023952,65e67470ae2fbf2172c317b2,65e85e752eabfe91b174cc95,,,,,,,,,,,752.34,0.7,753.034,753.0342,755.2695,left,1,2.232,,755.2696,756.2686,0,11,11,8,1,total,1,images/Ex1.jpg,left,training,hard,2,,,,,
,,,,,637fcee60a8378c1c3a65898,001,,,,,2024-03-06_12h16.14.481,CRL1h,2023.2.3,Linux x86_64,59.88023952,65e67470ae2fbf2172c317b2,65e85e752eabfe91b174cc95,,,,,,,,,,,756.2818,0.8,757.0713,757.0713,758.1916,right,0,1.1177,,758.1917,759.1863,0,12,12,9,1,total,1,images/Ex2.jpg,left,training,hard,2,,,,,
,,,,,637fcee60a8378c1c3a65898,001,,,,,2024-03-06_12h16.14.481,CRL1h,2023.2.3,Linux x86_64,59.88023952,65e67470ae2fbf2172c317b2,65e85e752eabfe91b174cc95,,,,,,,,,,,759.1869,1.4,760.5868,760.5869,761.8718,left,1,1.2831,,761.8718,762.8708,0,13,13,3,1,total,1,images/Ex4.jpg,left,training,hard,2,,,,,
,,,,,637fcee60a8378c1c3a65898,001,,,,,2024-03-06_12h16.14.481,CRL1h,2023.2.3,Linux x86_64,59.88023952,65e67470ae2fbf2172c317b2,65e85e752eabfe91b174cc95,,,,,,,,,,,762.8727,1.1,763.9745,763.9746,764.5883,left,1,0.6086,,764.5885,765.589,0,14,14,11,1,total,1,images/Ex4.jpg,left,training,hard,2,,,,,
,,,,,637fcee60a8378c1c3a65898,001,,,,,2024-03-06_12h16.14.481,CRL1h,2023.2.3,Linux x86_64,59.88023952,65e67470ae2fbf2172c317b2,65e85e752eabfe91b174cc95,,,,,,,,,,,765.5899,0.7,766.2891,766.2892,768.1901,right,0,1.8967,,768.1902,769.1902,0,15,15,10,1,total,1,images/Ex3.jpg,left,training,hard,2,,,,,
,,,,,637fcee60a8378c1c3a65898,001,,,,,2024-03-06_12h16.14.481,CRL1h,2023.2.3,Linux x86_64,59.88023952,65e67470ae2fbf2172c317b2,65e85e752eabfe91b174cc95,,,,,,,,,,,769.1909,0.9,770.0905,770.0905,771.1413,right,1,1.0491,,771.1414,772.1415,1,0,16,13,1,total,1,images/Ex6.jpg,right,training,hard,2,,,,,
,,,,,637fcee60a8378c1c3a65898,001,,,,,2024-03-06_12h16.14.481,CRL1h,2023.2.3,Linux x86_64,59.88023952,65e67470ae2fbf2172c317b2,65e85e752eabfe91b174cc95,,,,,,,,,,,772.1428,0.7,772.8416,772.8417,773.8176,left,1,0.9736,,773.8177,774.8098,1,1,17,0,1,total,1,images/Ex1.jpg,left,training,hard,2,,,,,
,,,,,637fcee60a8378c1c3a65898,001,,,,,2024-03-06_12h16.14.481,CRL1h,2023.2.3,Linux x86_64,59.88023952,65e67470ae2fbf2172c317b2,65e85e752eabfe91b174cc95,,,,,,,,,,,774.8108,0.7,775.5092,775.5093,776.1266,left,1,0.6132,,776.1266,777.1276,1,2,18,8,1,total,1,images/Ex1.jpg,left,training,hard,2,,,,,
,,,,,637fcee60a8378c1c3a65898,001,,,,,2024-03-06_12h16.14.481,CRL1h,2023.2.3,Linux x86_64,59.88023952,65e67470ae2fbf2172c317b2,65e85e752eabfe91b174cc95,,,,,,,,,,,777.1283,1.2,778.3275,778.3275,779.7294,left,1,1.4,,779.7294,780.7281,1,3,19,11,1,total,1,images/Ex4.jpg,left,training,hard,2,,,,,
,,,,,637fcee60a8378c1c3a65898,001,,,,,2024-03-06_12h16.14.481,CRL1h,2023.2.3,Linux x86_64,59.88023952,65e67470ae2fbf2172c317b2,65e85e752eabfe91b174cc95,,,,,,,,,,,780.729,1.1,781.8295,781.8296,783.2457,left,1,1.4105,,783.2457,784.2459,1,4,20,9,1,total,1,images/Ex2.jpg,left,training,hard,2,,,,,
,,,,,637fcee60a8378c1c3a65898,001,,,,,2024-03-06_12h16.14.481,CRL1h,2023.2.3,Linux x86_64,59.88023952,65e67470ae2fbf2172c317b2,65e85e752eabfe91b174cc95,,,,,,,,,,,784.2467,0.9,785.1471,785.1471,786.2492,right,1,1.1004,,786.2493,787.2478,1,5,21,6,1,total,1,images/Ex7.jpg,right,training,hard,2,,,,,
,,,,,637fcee60a8378c1c3a65898,001,,,,,2024-03-06_12h16.14.481,CRL1h,2023.2.3,Linux x86_64,59.88023952,65e67470ae2fbf2172c317b2,65e85e752eabfe91b174cc95,,,,,,,,,,,787.2488,1.2,788.4476,788.4476,789.9884,right,1,1.5375,,789.9885,790.9815,1,6,22,15,1,total,1,images/Ex8.jpg,right,training,hard,2,,,,,
,,,,,637fcee60a8378c1c3a65898,001,,,,,2024-03-06_12h16.14.481,CRL1h,2023.2.3,Linux x86_64,59.88023952,65e67470ae2fbf2172c317b2,65e85e752eabfe91b174cc95,,,,,,,,,,,790.9823,1.3,792.2753,792.2754,793.2729,right,1,0.9959,,793.273,794.2671,1,7,23,4,1,total,1,images/Ex5.jpg,right,training,hard,2,,,,,
,,,,,637fcee60a8378c1c3a65898,001,,,,,2024-03-06_12h16.14.481,CRL1h,2023.2.3,Linux x86_64,59.88023952,65e67470ae2fbf2172c317b2,65e85e752eabfe91b174cc95,,,,,,,,,,,794.2681,1,795.2672,795.2675,796.1378,right,1,0.8682,,796.1378,797.1343,1,8,24,5,1,total,1,images/Ex6.jpg,right,training,hard,2,,,,,
,,,,,637fcee60a8378c1c3a65898,001,,,,,2024-03-06_12h16.14.481,CRL1h,2023.2.3,Linux x86_64,59.88023952,65e67470ae2fbf2172c317b2,65e85e752eabfe91b174cc95,,,,,,,,,,,797.1354,1.3,798.4365,798.4366,799.5853,right,1,1.1457,,799.5854,800.5862,1,9,25,14,1,total,1,images/Ex7.jpg,right,training,hard,2,,,,,
,,,,,637fcee60a8378c1c3a65898,001,,,,,2024-03-06_12h16.14.481,CRL1h,2023.2.3,Linux x86_64,59.88023952,65e67470ae2fbf2172c317b2,65e85e752eabfe91b174cc95,,,,,,,,,,,800.587,0.6,801.1866,801.1866,801.9529,left,1,0.7613,,801.9531,802.9534,1,10,26,1,1,total,1,images/Ex2.jpg,left,training,hard,2,,,,,
,,,,,637fcee60a8378c1c3a65898,001,,,,,2024-03-06_12h16.14.481,CRL1h,2023.2.3,Linux x86_64,59.88023952,65e67470ae2fbf2172c317b2,65e85e752eabfe91b174cc95,,,,,,,,,,,802.9544,0.7,803.6534,803.6535,805.1256,left,1,1.4705,,805.1256,806.1232,1,11,27,10,1,total,1,images/Ex3.jpg,left,training,hard,2,,,,,
,,,,,637fcee60a8378c1c3a65898,001,,,,,2024-03-06_12h16.14.481,CRL1h,2023.2.3,Linux x86_64,59.88023952,65e67470ae2fbf2172c317b2,65e85e752eabfe91b174cc95,,,,,,,,,,,806.1239,1.3,807.4238,807.424,808.1386,right,1,0.708,,808.1386,809.1386,1,12,28,12,1,total,1,images/Ex5.jpg,right,training,hard,2,,,,,
,,,,,637fcee60a8378c1c3a65898,001,,,,,2024-03-06_12h16.14.481,CRL1h,2023.2.3,Linux x86_64,59.88023952,65e67470ae2fbf2172c317b2,65e85e752eabfe91b174cc95,,,,,,,,,,,809.1393,1,810.1393,810.1393,811.8411,right,1,1.6996,,811.8412,812.8402,1,13,29,7,1,total,1,images/Ex8.jpg,right,training,hard,2,,,,,
,,,,,637fcee60a8378c1c3a65898,001,,,,,2024-03-06_12h16.14.481,CRL1h,2023.2.3,Linux x86_64,59.88023952,65e67470ae2fbf2172c317b2,65e85e752eabfe91b174cc95,,,,,,,,,,,812.8409,0.7,813.5413,813.5414,814.4816,left,1,0.9385,,814.4817,815.4752,1,14,30,3,1,total,1,images/Ex4.jpg,left,training,hard,2,,,,,
,,,,,637fcee60a8378c1c3a65898,001,,,,,2024-03-06_12h16.14.481,CRL1h,2023.2.3,Linux x86_64,59.88023952,65e67470ae2fbf2172c317b2,65e85e752eabfe91b174cc95,,,,,,,,,,,815.4762,1,816.4761,816.4761,817.5488,left,1,1.0709,,817.5488,818.5427,1,15,31,2,1,total,1,images/Ex3.jpg,left,training,hard,2,,,,,
,,,,,637fcee60a8378c1c3a65898,001,,,,,2024-03-06_12h16.14.481,CRL1h,2023.2.3,Linux x86_64,59.88023952,65e67470ae2fbf2172c317b2,65e85e752eabfe91b174cc95,,,,,,,,,,,818.5436,0.6,819.1424,819.1424,821.0147,left,1,1.8705,,821.0147,822.0107,2,0,32,0,1,total,1,images/Ex1.jpg,left,training,hard,2,,,,,
,,,,,637fcee60a8378c1c3a65898,001,,,,,2024-03-06_12h16.14.481,CRL1h,2023.2.3,Linux x86_64,59.88023952,65e67470ae2fbf2172c317b2,65e85e752eabfe91b174cc95,,,,,,,,,,,822.0246,1.4,823.4274,823.4276,824.2196,left,1,0.7895,,824.2197,825.2121,2,1,33,3,1,total,1,images/Ex4.jpg,left,training,hard,2,,,,,
,,,,,637fcee60a8378c1c3a65898,001,,,,,2024-03-06_12h16.14.481,CRL1h,2023.2.3,Linux x86_64,59.88023952,65e67470ae2fbf2172c317b2,65e85e752eabfe91b174cc95,,,,,,,,,,,825.2128,1.2,826.4117,826.4117,827.0624,left,1,0.6471,,827.0625,828.0658,2,2,34,11,1,total,1,images/Ex4.jpg,left,training,hard,2,,,,,
,,,,,637fcee60a8378c1c3a65898,001,,,,,2024-03-06_12h16.14.481,CRL1h,2023.2.3,Linux x86_64,59.88023952,65e67470ae2fbf2172c317b2,65e85e752eabfe91b174cc95,,,,,,,,,,,828.0666,1.4,829.4659,829.4659,830.2658,right,1,0.7977,,830.2661,831.2541,2,3,35,13,1,total,1,images/Ex6.jpg,right,training,hard,2,,,,,
,,,,,637fcee60a8378c1c3a65898,001,,,,,2024-03-06_12h16.14.481,CRL1h,2023.2.3,Linux x86_64,59.88023952,65e67470ae2fbf2172c317b2,65e85e752eabfe91b174cc95,,,,,,,,,,,831.255,1.1,832.3487,832.3488,833.1547,left,1,0.8042,,833.1548,834.1484,2,4,36,2,1,total,1,images/Ex3.jpg,left,training,hard,2,,,,,
,,,,,637fcee60a8378c1c3a65898,001,,,,,2024-03-06_12h16.14.481,CRL1h,2023.2.3,Linux x86_64,59.88023952,65e67470ae2fbf2172c317b2,65e85e752eabfe91b174cc95,,,,,,,,,,,834.1496,1.4,835.5487,835.5489,836.4689,right,1,0.9183,,836.4689,837.4684,2,5,37,14,1,total,1,images/Ex7.jpg,right,training,hard,2,,,,,
,,,,,637fcee60a8378c1c3a65898,001,,,,,2024-03-06_12h16.14.481,CRL1h,2023.2.3,Linux x86_64,59.88023952,65e67470ae2fbf2172c317b2,65e85e752eabfe91b174cc95,,,,,,,,,,,837.4691,0.8,838.2671,838.2672,840.7004,right,1,2.4315,,840.7005,841.7021,2,6,38,15,1,total,1,images/Ex8.jpg,right,training,hard,2,,,,,
,,,,,637fcee60a8378c1c3a65898,001,,,,,2024-03-06_12h16.14.481,CRL1h,2023.2.3,Linux x86_64,59.88023952,65e67470ae2fbf2172c317b2,65e85e752eabfe91b174cc95,,,,,,,,,,,841.7028,1.3,843.0023,843.0023,843.5404,right,1,0.5367,,843.5405,844.5357,2,7,39,7,1,total,1,images/Ex8.jpg,right,training,hard,2,,,,,
,,,,,637fcee60a8378c1c3a65898,001,,,,,2024-03-06_12h16.14.481,CRL1h,2023.2.3,Linux x86_64,59.88023952,65e67470ae2fbf2172c317b2,65e85e752eabfe91b174cc95,,,,,,,,,,,844.5364,0.6,845.1361,845.1362,845.8538,right,0,0.7118,,845.8538,846.8559,2,8,40,9,1,total,1,images/Ex2.jpg,left,training,hard,2,,,,,
,,,,,637fcee60a8378c1c3a65898,001,,,,,2024-03-06_12h16.14.481,CRL1h,2023.2.3,Linux x86_64,59.88023952,65e67470ae2fbf2172c317b2,65e85e752eabfe91b174cc95,,,,,,,,,,,846.8567,1.5,848.3584,848.3585,849.7053,left,1,1.3446,,849.7054,850.7045,2,9,41,8,1,total,1,images/Ex1.jpg,left,training,hard,2,,,,,
,,,,,637fcee60a8378c1c3a65898,001,,,,,2024-03-06_12h16.14.481,CRL1h,2023.2.3,Linux x86_64,59.88023952,65e67470ae2fbf2172c317b2,65e85e752eabfe91b174cc95,,,,,,,,,,,850.7054,0.5,851.2053,851.2054,852.1631,right,1,0.956,,852.1632,853.1563,2,10,42,5,1,total,1,images/Ex6.jpg,right,training,hard,2,,,,,
,,,,,637fcee60a8378c1c3a65898,001,,,,,2024-03-06_12h16.14.481,CRL1h,2023.2.3,Linux x86_64,59.88023952,65e67470ae2fbf2172c317b2,65e85e752eabfe91b174cc95,,,,,,,,,,,853.1573,1.3,854.4561,854.4562,855.2274,right,1,0.7691,,855.2275,856.2235,2,11,43,4,1,total,1,images/Ex5.jpg,right,training,hard,2,,,,,
,,,,,637fcee60a8378c1c3a65898,001,,,,,2024-03-06_12h16.14.481,CRL1h,2023.2.3,Linux x86_64,59.88023952,65e67470ae2fbf2172c317b2,65e85e752eabfe91b174cc95,,,,,,,,,,,856.2244,0.9,857.1244,857.1245,858.2074,right,1,1.0792,,858.2075,859.2079,2,12,44,6,1,total,1,images/Ex7.jpg,right,training,hard,2,,,,,
,,,,,637fcee60a8378c1c3a65898,001,,,,,2024-03-06_12h16.14.481,CRL1h,2023.2.3,Linux x86_64,59.88023952,65e67470ae2fbf2172c317b2,65e85e752eabfe91b174cc95,,,,,,,,,,,859.2088,0.7,859.9154,859.9154,860.9091,right,0,0.9891,,860.9092,861.9087,2,13,45,1,1,total,1,images/Ex2.jpg,left,training,hard,2,,,,,
,,,,,637fcee60a8378c1c3a65898,001,,,,,2024-03-06_12h16.14.481,CRL1h,2023.2.3,Linux x86_64,59.88023952,65e67470ae2fbf2172c317b2,65e85e752eabfe91b174cc95,,,,,,,,,,,861.9096,1,862.9091,862.9092,863.7596,right,1,0.8486,,863.7597,864.7617,2,14,46,12,1,total,1,images/Ex5.jpg,right,training,hard,2,,,,,
,,,,,637fcee60a8378c1c3a65898,001,,,,,2024-03-06_12h16.14.481,CRL1h,2023.2.3,Linux x86_64,59.88023952,65e67470ae2fbf2172c317b2,65e85e752eabfe91b174cc95,,,,,,,,,,,864.7627,1.2,865.9607,865.9607,867.3118,left,1,1.3449,,867.3119,868.3114,2,15,47,10,1,total,1,images/Ex3.jpg,left,training,hard,2,,,,,
,,,,,637fcee60a8378c1c3a65898,001,,,,,2024-03-06_12h16.14.481,CRL1h,2023.2.3,Linux x86_64,59.88023952,65e67470ae2fbf2172c317b2,65e85e752eabfe91b174cc95,,,,,,,,,,,868.3126,0.9,869.2137,869.2138,869.9329,left,1,0.7171,,869.9331,870.9303,3,0,48,3,1,total,1,images/Ex4.jpg,left,training,hard,2,,,,,
,,,,,637fcee60a8378c1c3a65898,001,,,,,2024-03-06_12h16.14.481,CRL1h,2023.2.3,Linux x86_64,59.88023952,65e67470ae2fbf2172c317b2,65e85e752eabfe91b174cc95,,,,,,,,,,,870.9312,1,871.9297,871.9297,872.8634,left,1,0.9319,,872.8635,873.8567,3,1,49,1,1,total,1,images/Ex2.jpg,left,training,hard,2,,,,,
,,,,,637fcee60a8378c1c3a65898,001,,,,,2024-03-06_12h16.14.481,CRL1h,2023.2.3,Linux x86_64,59.88023952,65e67470ae2fbf2172c317b2,65e85e752eabfe91b174cc95,,,,,,,,,,,873.8576,1.1,874.9483,874.9486,876.2313,right,1,1.2774,,876.2314,877.2322,3,2,50,15,1,total,1,images/Ex8.jpg,right,training,hard,2,,,,,
,,,,,637fcee60a8378c1c3a65898,001,,,,,2024-03-06_12h16.14.481,CRL1h,2023.2.3,Linux x86_64,59.88023952,65e67470ae2fbf2172c317b2,65e85e752eabfe91b174cc95,,,,,,,,,,,877.2331,1.3,878.5345,878.5345,879.4588,left,1,0.9213,,879.459,880.4581,3,3,51,8,1,total,1,images/Ex1.jpg,left,training,hard,2,,,,,
,,,,,637fcee60a8378c1c3a65898,001,,,,,2024-03-06_12h16.14.481,CRL1h,2023.2.3,Linux x86_64,59.88023952,65e67470ae2fbf2172c317b2,65e85e752eabfe91b174cc95,,,,,,,,,,,880.4588,0.8,881.25,881.2501,881.8371,left,1,0.5854,,881.8372,882.8337,3,4,52,0,1,total,1,images/Ex1.jpg,left,training,hard,2,,,,,
,,,,,637fcee60a8378c1c3a65898,001,,,,,2024-03-06_12h16.14.481,CRL1h,2023.2.3,Linux x86_64,59.88023952,65e67470ae2fbf2172c317b2,65e85e752eabfe91b174cc95,,,,,,,,,,,882.8344,0.9,883.7357,883.7357,884.9907,left,1,1.2529,,884.9907,885.9847,3,5,53,2,1,total,1,images/Ex3.jpg,left,training,hard,2,,,,,
,,,,,637fcee60a8378c1c3a65898,001,,,,,2024-03-06_12h16.14.481,CRL1h,2023.2.3,Linux x86_64,59.88023952,65e67470ae2fbf2172c317b2,65e85e752eabfe91b174cc95,,,,,,,,,,,885.9855,1.1,887.0853,887.0853,887.9278,right,1,0.8407,,887.9278,888.9194,3,6,54,5,1,total,1,images/Ex6.jpg,right,training,hard,2,,,,,
,,,,,637fcee60a8378c1c3a65898,001,,,,,2024-03-06_12h16.14.481,CRL1h,2023.2.3,Linux x86_64,59.88023952,65e67470ae2fbf2172c317b2,65e85e752eabfe91b174cc95,,,,,,,,,,,888.9204,1.5,890.4199,890.4199,892.5381,left,1,2.1144,,892.5382,893.5378,3,7,55,10,1,total,1,images/Ex3.jpg,left,training,hard,2,,,,,
,,,,,637fcee60a8378c1c3a65898,001,,,,,2024-03-06_12h16.14.481,CRL1h,2023.2.3,Linux x86_64,59.88023952,65e67470ae2fbf2172c317b2,65e85e752eabfe91b174cc95,,,,,,,,,,,893.5408,0.7,894.2382,894.2383,894.9555,left,1,0.7124,,894.9556,895.9561,3,8,56,11,1,total,1,images/Ex4.jpg,left,training,hard,2,,,,,
,,,,,637fcee60a8378c1c3a65898,001,,,,,2024-03-06_12h16.14.481,CRL1h,2023.2.3,Linux x86_64,59.88023952,65e67470ae2fbf2172c317b2,65e85e752eabfe91b174cc95,,,,,,,,,,,895.9568,0.9,896.8558,896.8558,898.0139,right,1,1.1541,,898.0139,899.0066,3,9,57,6,1,total,1,images/Ex7.jpg,right,training,hard,2,,,,,
,,,,,637fcee60a8378c1c3a65898,001,,,,,2024-03-06_12h16.14.481,CRL1h,2023.2.3,Linux x86_64,59.88023952,65e67470ae2fbf2172c317b2,65e85e752eabfe91b174cc95,,,,,,,,,,,899.0073,0.9,899.907,899.9071,901.1576,left,1,1.2453,,901.1577,902.158,3,10,58,9,1,total,1,images/Ex2.jpg,left,training,hard,2,,,,,
,,,,,637fcee60a8378c1c3a65898,001,,,,,2024-03-06_12h16.14.481,CRL1h,2023.2.3,Linux x86_64,59.88023952,65e67470ae2fbf2172c317b2,65e85e752eabfe91b174cc95,,,,,,,,,,,902.1722,1.2,903.375,903.3752,904.2345,right,1,0.8569,,904.2346,905.2254,3,11,59,12,1,total,1,images/Ex5.jpg,right,training,hard,2,,,,,
,,,,,637fcee60a8378c1c3a65898,001,,,,,2024-03-06_12h16.14.481,CRL1h,2023.2.3,Linux x86_64,59.88023952,65e67470ae2fbf2172c317b2,65e85e752eabfe91b174cc95,,,,,,,,,,,905.2262,1.1,906.3257,906.3258,907.2428,right,1,0.914,,907.2429,908.2436,3,12,60,14,1,total,1,images/Ex7.jpg,right,training,hard,2,,,,,
,,,,,637fcee60a8378c1c3a65898,001,,,,,2024-03-06_12h16.14.481,CRL1h,2023.2.3,Linux x86_64,59.88023952,65e67470ae2fbf2172c317b2,65e85e752eabfe91b174cc95,,,,,,,,,,,908.2449,1.1,909.3445,909.3446,910.0827,right,1,0.7364,,910.0827,911.0781,3,13,61,4,1,total,1,images/Ex5.jpg,right,training,hard,2,,,,,
,,,,,637fcee60a8378c1c3a65898,001,,,,,2024-03-06_12h16.14.481,CRL1h,2023.2.3,Linux x86_64,59.88023952,65e67470ae2fbf2172c317b2,65e85e752eabfe91b174cc95,,,,,,,,,,,911.0791,0.7,911.7783,911.7784,912.7954,right,1,1.0106,,912.7954,913.7954,3,14,62,7,1,total,1,images/Ex8.jpg,right,training,hard,2,,,,,
,,,,,637fcee60a8378c1c3a65898,001,,,,,2024-03-06_12h16.14.481,CRL1h,2023.2.3,Linux x86_64,59.88023952,65e67470ae2fbf2172c317b2,65e85e752eabfe91b174cc95,,,,,,,,,,,913.7967,0.7,914.4986,914.4987,915.3156,right,1,0.8143,,915.3157,916.3134,3,15,63,13,1,total,1,images/Ex6.jpg,right,training,hard,2,,,,,
,,,,,637fcee60a8378c1c3a65898,001,,,,,2024-03-06_12h16.14.481,CRL1h,2023.2.3,Linux x86_64,59.88023952,65e67470ae2fbf2172c317b2,65e85e752eabfe91b174cc95,,,,,,,,,,,916.3144,0.5,916.8158,916.8159,917.6175,left,1,0.7997,,917.6175,918.6142,4,0,64,8,1,total,1,images/Ex1.jpg,left,training,hard,2,,,,,
,,,,,637fcee60a8378c1c3a65898,001,,,,,2024-03-06_12h16.14.481,CRL1h,2023.2.3,Linux x86_64,59.88023952,65e67470ae2fbf2172c317b2,65e85e752eabfe91b174cc95,,,,,,,,,,,918.6153,1.2,919.8148,919.8149,920.8493,left,1,1.0312,,920.8494,921.8486,4,1,65,2,1,total,1,images/Ex3.jpg,left,training,hard,2,,,,,
,,,,,637fcee60a8378c1c3a65898,001,,,,,2024-03-06_12h16.14.481,CRL1h,2023.2.3,Linux x86_64,59.88023952,65e67470ae2fbf2172c317b2,65e85e752eabfe91b174cc95,,,,,,,,,,,921.8498,1.3,923.1531,923.1532,924.0881,right,1,0.933,,924.0881,925.0829,4,2,66,7,1,total,1,images/Ex8.jpg,right,training,hard,2,,,,,
,,,,,637fcee60a8378c1c3a65898,001,,,,,2024-03-06_12h16.14.481,CRL1h,2023.2.3,Linux x86_64,59.88023952,65e67470ae2fbf2172c317b2,65e85e752eabfe91b174cc95,,,,,,,,,,,925.0838,0.6,925.6835,925.6835,926.417,right,1,0.7265,,926.4171,927.4175,4,3,67,14,1,total,1,images/Ex7.jpg,right,training,hard,2,,,,,
,,,,,637fcee60a8378c1c3a65898,001,,,,,2024-03-06_12h16.14.481,CRL1h,2023.2.3,Linux x86_64,59.88023952,65e67470ae2fbf2172c317b2,65e85e752eabfe91b174cc95,,,,,,,,,,,927.4184,1.3,928.7178,928.7179,929.4515,right,1,0.7288,,929.4516,930.454,4,4,68,13,1,total,1,images/Ex6.jpg,right,training,hard,2,,,,,
,,,,,637fcee60a8378c1c3a65898,001,,,,,2024-03-06_12h16.14.481,CRL1h,2023.2.3,Linux x86_64,59.88023952,65e67470ae2fbf2172c317b2,65e85e752eabfe91b174cc95,,,,,,,,,,,930.4549,1.1,931.5519,931.5519,932.453,left,1,0.8967,,932.4531,933.446,4,5,69,1,1,total,1,images/Ex2.jpg,left,training,hard,2,,,,,
,,,,,637fcee60a8378c1c3a65898,001,,,,,2024-03-06_12h16.14.481,CRL1h,2023.2.3,Linux x86_64,59.88023952,65e67470ae2fbf2172c317b2,65e85e752eabfe91b174cc95,,,,,,,,,,,933.4474,1.3,934.7365,934.7366,935.4968,left,1,0.7581,,935.4969,936.4929,4,6,70,11,1,total,1,images/Ex4.jpg,left,training,hard,2,,,,,
,,,,,637fcee60a8378c1c3a65898,001,,,,,2024-03-06_12h16.14.481,CRL1h,2023.2.3,Linux x86_64,59.88023952,65e67470ae2fbf2172c317b2,65e85e752eabfe91b174cc95,,,,,,,,,,,936.4937,1.2,937.6899,937.6899,939.1731,left,1,1.4811,,939.1731,940.1719,4,7,71,10,1,total,1,images/Ex3.jpg,left,training,hard,2,,,,,
,,,,,637fcee60a8378c1c3a65898,001,,,,,2024-03-06_12h16.14.481,CRL1h,2023.2.3,Linux x86_64,59.88023952,65e67470ae2fbf2172c317b2,65e85e752eabfe91b174cc95,,,,,,,,,,,940.1725,1.4,941.5727,941.5728,942.3077,left,1,0.7331,,942.3081,943.3065,4,8,72,9,1,total,1,images/Ex2.jpg,left,training,hard,2,,,,,
,,,,,637fcee60a8378c1c3a65898,001,,,,,2024-03-06_12h16.14.481,CRL1h,2023.2.3,Linux x86_64,59.88023952,65e67470ae2fbf2172c317b2,65e85e752eabfe91b174cc95,,,,,,,,,,,943.3072,1.4,944.7073,944.7073,945.4767,right,1,0.7666,,945.4768,946.4744,4,9,73,6,1,total,1,images/Ex7.jpg,right,training,hard,2,,,,,
,,,,,637fcee60a8378c1c3a65898,001,,,,,2024-03-06_12h16.14.481,CRL1h,2023.2.3,Linux x86_64,59.88023952,65e67470ae2fbf2172c317b2,65e85e752eabfe91b174cc95,,,,,,,,,,,946.4753,0.7,947.1749,947.175,947.8766,left,1,0.699,,947.8767,948.8757,4,10,74,3,1,total,1,images/Ex4.jpg,left,training,hard,2,,,,,
,,,,,637fcee60a8378c1c3a65898,001,,,,,2024-03-06_12h16.14.481,CRL1h,2023.2.3,Linux x86_64,59.88023952,65e67470ae2fbf2172c317b2,65e85e752eabfe91b174cc95,,,,,,,,,,,948.8766,1.1,949.9757,949.9758,951.0769,right,1,1.0987,,951.0771,952.077,4,11,75,4,1,total,1,images/Ex5.jpg,right,training,hard,2,,,,,
,,,,,637fcee60a8378c1c3a65898,001,,,,,2024-03-06_12h16.14.481,CRL1h,2023.2.3,Linux x86_64,59.88023952,65e67470ae2fbf2172c317b2,65e85e752eabfe91b174cc95,,,,,,,,,,,952.0779,1.1,953.177,953.1774,955.4783,left,0,2.2962,,955.4784,956.4791,4,12,76,15,1,total,1,images/Ex8.jpg,right,training,hard,2,,,,,
,,,,,637fcee60a8378c1c3a65898,001,,,,,2024-03-06_12h16.14.481,CRL1h,2023.2.3,Linux x86_64,59.88023952,65e67470ae2fbf2172c317b2,65e85e752eabfe91b174cc95,,,,,,,,,,,956.4924,0.8,957.2957,957.2957,958.2146,left,1,0.9173,,958.2147,959.2131,4,13,77,0,1,total,1,images/Ex1.jpg,left,training,hard,2,,,,,
,,,,,637fcee60a8378c1c3a65898,001,,,,,2024-03-06_12h16.14.481,CRL1h,2023.2.3,Linux x86_64,59.88023952,65e67470ae2fbf2172c317b2,65e85e752eabfe91b174cc95,,,,,,,,,,,959.2139,1.4,960.6162,960.6163,961.3312,right,1,0.713,,961.3312,962.3304,4,14,78,5,1,total,1,images/Ex6.jpg,right,training,hard,2,,,,,
,,,,,637fcee60a8378c1c3a65898,001,,,,,2024-03-06_12h16.14.481,CRL1h,2023.2.3,Linux x86_64,59.88023952,65e67470ae2fbf2172c317b2,65e85e752eabfe91b174cc95,,,,,,,,,,,962.3312,1.3,963.6319,963.6321,965.2326,right,1,1.598,,965.2327,966.2345,4,15,79,12,1,total,1,images/Ex5.jpg,right,training,hard,2,,,,,
,,,,,637fcee60a8378c1c3a65898,001,,,,,2024-03-06_12h16.14.481,CRL1h,2023.2.3,Linux x86_64,59.88023952,65e67470ae2fbf2172c317b2,65e85e752eabfe91b174cc95,,,,,,,,,,,966.2354,1.3,967.5327,967.5327,968.8163,left,1,1.278,,968.8164,969.8169,5,0,80,10,1,total,1,images/Ex3.jpg,left,training,hard,2,,,,,
,,,,,637fcee60a8378c1c3a65898,001,,,,,2024-03-06_12h16.14.481,CRL1h,2023.2.3,Linux x86_64,59.88023952,65e67470ae2fbf2172c317b2,65e85e752eabfe91b174cc95,,,,,,,,,,,969.8182,1,970.8178,970.8178,971.6339,right,1,0.8144,,971.6339,972.6347,5,1,81,13,1,total,1,images/Ex6.jpg,right,training,hard,2,,,,,
,,,,,637fcee60a8378c1c3a65898,001,,,,,2024-03-06_12h16.14.481,CRL1h,2023.2.3,Linux x86_64,59.88023952,65e67470ae2fbf2172c317b2,65e85e752eabfe91b174cc95,,,,,,,,,,,972.6355,1.1,973.7352,973.7353,974.8684,right,1,1.1309,,974.8685,975.8711,5,2,82,14,1,total,1,images/Ex7.jpg,right,training,hard,2,,,,,
,,,,,637fcee60a8378c1c3a65898,001,,,,,2024-03-06_12h16.14.481,CRL1h,2023.2.3,Linux x86_64,59.88023952,65e67470ae2fbf2172c317b2,65e85e752eabfe91b174cc95,,,,,,,,,,,975.8718,0.7,976.5698,976.5699,977.9618,left,1,1.3903,,977.9622,978.9538,5,3,83,2,1,total,1,images/Ex3.jpg,left,training,hard,2,,,,,
,,,,,637fcee60a8378c1c3a65898,001,,,,,2024-03-06_12h16.14.481,CRL1h,2023.2.3,Linux x86_64,59.88023952,65e67470ae2fbf2172c317b2,65e85e752eabfe91b174cc95,,,,,,,,,,,978.9548,0.7,979.6542,979.6542,982.0884,left,1,2.428,,982.0885,983.0892,5,4,84,11,1,total,1,images/Ex4.jpg,left,training,hard,2,,,,,
,,,,,637fcee60a8378c1c3a65898,001,,,,,2024-03-06_12h16.14.481,CRL1h,2023.2.3,Linux x86_64,59.88023952,65e67470ae2fbf2172c317b2,65e85e752eabfe91b174cc95,,,,,,,,,,,983.1027,1.1,984.206,984.2061,984.9918,left,1,0.7793,,984.9918,985.9913,5,5,85,9,1,total,1,images/Ex2.jpg,left,training,hard,2,,,,,
,,,,,637fcee60a8378c1c3a65898,001,,,,,2024-03-06_12h16.14.481,CRL1h,2023.2.3,Linux x86_64,59.88023952,65e67470ae2fbf2172c317b2,65e85e752eabfe91b174cc95,,,,,,,,,,,985.9923,1.2,987.1905,987.1907,989.2767,right,1,2.0842,,989.2767,990.2793,5,6,86,7,1,total,1,images/Ex8.jpg,right,training,hard,2,,,,,
,,,,,637fcee60a8378c1c3a65898,001,,,,,2024-03-06_12h16.14.481,CRL1h,2023.2.3,Linux x86_64,59.88023952,65e67470ae2fbf2172c317b2,65e85e752eabfe91b174cc95,,,,,,,,,,,990.2802,1.2,991.476,991.4762,992.2265,left,1,0.7463,,992.2266,993.2265,5,7,87,0,1,total,1,images/Ex1.jpg,left,training,hard,2,,,,,
,,,,,637fcee60a8378c1c3a65898,001,,,,,2024-03-06_12h16.14.481,CRL1h,2023.2.3,Linux x86_64,59.88023952,65e67470ae2fbf2172c317b2,65e85e752eabfe91b174cc95,,,,,,,,,,,993.2275,0.9,994.1275,994.1276,995.4316,right,1,1.3006,,995.4317,996.4277,5,8,88,12,1,total,1,images/Ex5.jpg,right,training,hard,2,,,,,
,,,,,637fcee60a8378c1c3a65898,001,,,,,2024-03-06_12h16.14.481,CRL1h,2023.2.3,Linux x86_64,59.88023952,65e67470ae2fbf2172c317b2,65e85e752eabfe91b174cc95,,,,,,,,,,,996.4284,1.3,997.7284,997.7286,998.4139,left,1,0.6812,,998.414,999.4118,5,9,89,3,1,total,1,images/Ex4.jpg,left,training,hard,2,,,,,
,,,,,637fcee60a8378c1c3a65898,001,,,,,2024-03-06_12h16.14.481,CRL1h,2023.2.3,Linux x86_64,59.88023952,65e67470ae2fbf2172c317b2,65e85e752eabfe91b174cc95,,,,,,,,,,,999.4125,1.2,1000.6122,1000.6123,1001.3494,right,1,0.7348,,1001.3494,1002.3464,5,10,90,5,1,total,1,images/Ex6.jpg,right,training,hard,2,,,,,
,,,,,637fcee60a8378c1c3a65898,001,,,,,2024-03-06_12h16.14.481,CRL1h,2023.2.3,Linux x86_64,59.88023952,65e67470ae2fbf2172c317b2,65e85e752eabfe91b174cc95,,,,,,,,,,,1002.3471,1.2,1003.5467,1003.5467,1004.9644,right,1,1.4145,,1004.9645,1005.9641,5,11,91,15,1,total,1,images/Ex8.jpg,right,training,hard,2,,,,,
,,,,,637fcee60a8378c1c3a65898,001,,,,,2024-03-06_12h16.14.481,CRL1h,2023.2.3,Linux x86_64,59.88023952,65e67470ae2fbf2172c317b2,65e85e752eabfe91b174cc95,,,,,,,,,,,1005.9649,1.4,1007.3655,1007.3656,1008.6656,right,1,1.2947,,1008.6657,1009.6655,5,12,92,4,1,total,1,images/Ex5.jpg,right,training,hard,2,,,,,
,,,,,637fcee60a8378c1c3a65898,001,,,,,2024-03-06_12h16.14.481,CRL1h,2023.2.3,Linux x86_64,59.88023952,65e67470ae2fbf2172c317b2,65e85e752eabfe91b174cc95,,,,,,,,,,,1009.6665,1.1,1010.7659,1010.766,1012.0041,left,1,1.234,,1012.0042,1013.0001,5,13,93,1,1,total,1,images/Ex2.jpg,left,training,hard,2,,,,,
,,,,,637fcee60a8378c1c3a65898,001,,,,,2024-03-06_12h16.14.481,CRL1h,2023.2.3,Linux x86_64,59.88023952,65e67470ae2fbf2172c317b2,65e85e752eabfe91b174cc95,,,,,,,,,,,1013.0009,1.3,1014.3006,1014.3006,1015.1685,right,1,0.8622,,1015.1685,1016.1686,5,14,94,6,1,total,1,images/Ex7.jpg,right,training,hard,2,,,,,
,,,,,637fcee60a8378c1c3a65898,001,,,,,2024-03-06_12h16.14.481,CRL1h,2023.2.3,Linux x86_64,59.88023952,65e67470ae2fbf2172c317b2,65e85e752eabfe91b174cc95,,,,,,,,,,,1016.1697,0.9,1017.068,1017.0681,1018.2881,left,1,1.2152,,1018.2882,1019.2867,5,15,95,8,1,total,1,images/Ex1.jpg,left,training,hard,2,,,,,
,,,,,637fcee60a8378c1c3a65898,001,,,,,2024-03-06_12h16.14.481,CRL1h,2023.2.3,Linux x86_64,59.88023952,65e67470ae2fbf2172c317b2,65e85e752eabfe91b174cc95,,,,,,,,,,,1019.2875,0.7,1019.9862,1019.9863,1020.4865,left,1,0.4988,,1020.4865,1021.4874,6,0,96,0,1,total,1,images/Ex1.jpg,left,training,hard,2,,,,,
,,,,,637fcee60a8378c1c3a65898,001,,,,,2024-03-06_12h16.14.481,CRL1h,2023.2.3,Linux x86_64,59.88023952,65e67470ae2fbf2172c317b2,65e85e752eabfe91b174cc95,,,,,,,,,,,1021.4884,0.6,1022.087,1022.0871,1022.8538,left,1,0.761,,1022.8538,1023.854,6,1,97,11,1,total,1,images/Ex4.jpg,left,training,hard,2,,,,,
,,,,,637fcee60a8378c1c3a65898,001,,,,,2024-03-06_12h16.14.481,CRL1h,2023.2.3,Linux x86_64,59.88023952,65e67470ae2fbf2172c317b2,65e85e752eabfe91b174cc95,,,,,,,,,,,1023.8554,1.1,1024.955,1024.9551,1026.0107,right,1,1.0538,,1026.0108,1027.0055,6,2,98,5,1,total,1,images/Ex6.jpg,right,training,hard,2,,,,,
,,,,,637fcee60a8378c1c3a65898,001,,,,,2024-03-06_12h16.14.481,CRL1h,2023.2.3,Linux x86_64,59.88023952,65e67470ae2fbf2172c317b2,65e85e752eabfe91b174cc95,,,,,,,,,,,1027.0069,1.4,1028.4061,1028.4062,1029.4563,right,1,1.0459,,1029.4564,1030.4585,6,3,99,14,1,total,1,images/Ex7.jpg,right,training,hard,2,,,,,
,,,,,637fcee60a8378c1c3a65898,001,,,,,2024-03-06_12h16.14.481,CRL1h,2023.2.3,Linux x86_64,59.88023952,65e67470ae2fbf2172c317b2,65e85e752eabfe91b174cc95,,,,,,,,,,,1030.4594,0.6,1031.0567,1031.0568,1031.729,left,1,0.6702,,1031.729,1032.7238,6,4,100,1,1,total,1,images/Ex2.jpg,left,training,hard,2,,,,,
,,,,,637fcee60a8378c1c3a65898,001,,,,,2024-03-06_12h16.14.481,CRL1h,2023.2.3,Linux x86_64,59.88023952,65e67470ae2fbf2172c317b2,65e85e752eabfe91b174cc95,,,,,,,,,,,1032.7245,1.3,1034.0246,1034.0246,1035.3437,right,1,1.3148,,1035.3438,1036.3427,6,5,101,15,1,total,1,images/Ex8.jpg,right,training,hard,2,,,,,
,,,,,637fcee60a8378c1c3a65898,001,,,,,2024-03-06_12h16.14.481,CRL1h,2023.2.3,Linux x86_64,59.88023952,65e67470ae2fbf2172c317b2,65e85e752eabfe91b174cc95,,,,,,,,,,,1036.3437,1.5,1037.8443,1037.8443,1038.8434,left,1,0.9947,,1038.8434,1039.8442,6,6,102,8,1,total,1,images/Ex1.jpg,left,training,hard,2,,,,,
,,,,,637fcee60a8378c1c3a65898,001,,,,,2024-03-06_12h16.14.481,CRL1h,2023.2.3,Linux x86_64,59.88023952,65e67470ae2fbf2172c317b2,65e85e752eabfe91b174cc95,,,,,,,,,,,1039.8451,0.6,1040.4443,1040.4444,1043.1171,left,1,2.6709,,1043.1172,1044.1124,6,7,103,10,1,total,1,images/Ex3.jpg,left,training,hard,2,,,,,
,,,,,637fcee60a8378c1c3a65898,001,,,,,2024-03-06_12h16.14.481,CRL1h,2023.2.3,Linux x86_64,59.88023952,65e67470ae2fbf2172c317b2,65e85e752eabfe91b174cc95,,,,,,,,,,,1044.1271,1.4,1045.5303,1045.5304,1046.5483,right,1,1.0101,,1046.5484,1047.5471,6,8,104,13,1,total,1,images/Ex6.jpg,right,training,hard,2,,,,,
,,,,,637fcee60a8378c1c3a65898,001,,,,,2024-03-06_12h16.14.481,CRL1h,2023.2.3,Linux x86_64,59.88023952,65e67470ae2fbf2172c317b2,65e85e752eabfe91b174cc95,,,,,,,,,,,1047.5479,1.5,1049.0471,1049.0472,1049.7859,left,1,0.7364,,1049.786,1050.7861,6,9,105,9,1,total,1,images/Ex2.jpg,left,training,hard,2,,,,,
,,,,,637fcee60a8378c1c3a65898,001,,,,,2024-03-06_12h16.14.481,CRL1h,2023.2.3,Linux x86_64,59.88023952,65e67470ae2fbf2172c317b2,65e85e752eabfe91b174cc95,,,,,,,,,,,1050.787,1.1,1051.882,1051.882,1054.3847,left,1,2.5005,,1054.3848,1055.3828,6,10,106,2,1,total,1,images/Ex3.jpg,left,training,hard,2,,,,,
,,,,,637fcee60a8378c1c3a65898,001,,,,,2024-03-06_12h16.14.481,CRL1h,2023.2.3,Linux x86_64,59.88023952,65e67470ae2fbf2172c317b2,65e85e752eabfe91b174cc95,,,,,,,,,,,1055.3975,0.7,1056.1,1056.1001,1056.9929,right,1,0.8908,,1056.993,1057.9839,6,11,107,7,1,total,1,images/Ex8.jpg,right,training,hard,2,,,,,
,,,,,637fcee60a8378c1c3a65898,001,,,,,2024-03-06_12h16.14.481,CRL1h,2023.2.3,Linux x86_64,59.88023952,65e67470ae2fbf2172c317b2,65e85e752eabfe91b174cc95,,,,,,,,,,,1057.9845,1,1058.9844,1058.9844,1059.7527,right,1,0.7666,,1059.7527,1060.7517,6,12,108,6,1,total,1,images/Ex7.jpg,right,training,hard,2,,,,,
,,,,,637fcee60a8378c1c3a65898,001,,,,,2024-03-06_12h16.14.481,CRL1h,2023.2.3,Linux x86_64,59.88023952,65e67470ae2fbf2172c317b2,65e85e752eabfe91b174cc95,,,,,,,,,,,1060.7526,1.4,1062.1579,1062.1579,1063.083,right,1,0.9219,,1063.0831,1064.0882,6,13,109,4,1,total,1,images/Ex5.jpg,right,training,hard,2,,,,,
,,,,,637fcee60a8378c1c3a65898,001,,,,,2024-03-06_12h16.14.481,CRL1h,2023.2.3,Linux x86_64,59.88023952,65e67470ae2fbf2172c317b2,65e85e752eabfe91b174cc95,,,,,,,,,,,1064.0892,1,1065.0863,1065.0863,1065.7761,left,1,0.688,,1065.7762,1066.7705,6,14,110,3,1,total,1,images/Ex4.jpg,left,training,hard,2,,,,,
,,,,,637fcee60a8378c1c3a65898,001,,,,,2024-03-06_12h16.14.481,CRL1h,2023.2.3,Linux x86_64,59.88023952,65e67470ae2fbf2172c317b2,65e85e752eabfe91b174cc95,,,,,,,,,,,1066.7713,0.7,1067.4719,1067.4719,1069.3318,right,1,1.8581,,1069.3319,1070.3215,6,15,111,12,1,total,1,images/Ex5.jpg,right,training,hard,2,,,,,
,,,,,637fcee60a8378c1c3a65898,001,,,,,2024-03-06_12h16.14.481,CRL1h,2023.2.3,Linux x86_64,59.88023952,65e67470ae2fbf2172c317b2,65e85e752eabfe91b174cc95,,,,,,,,,,,1070.3222,1,1071.3221,1071.3222,1073.1075,right,1,1.7837,,1073.1075,1074.1068,7,0,112,5,1,total,1,images/Ex6.jpg,right,training,hard,2,,,,,
,,,,,637fcee60a8378c1c3a65898,001,,,,,2024-03-06_12h16.14.481,CRL1h,2023.2.3,Linux x86_64,59.88023952,65e67470ae2fbf2172c317b2,65e85e752eabfe91b174cc95,,,,,,,,,,,1074.1078,0.8,1074.9084,1074.9084,1076.4098,right,1,1.4957,,1076.4103,1077.4078,7,1,113,7,1,total,1,images/Ex8.jpg,right,training,hard,2,,,,,
,,,,,637fcee60a8378c1c3a65898,001,,,,,2024-03-06_12h16.14.481,CRL1h,2023.2.3,Linux x86_64,59.88023952,65e67470ae2fbf2172c317b2,65e85e752eabfe91b174cc95,,,,,,,,,,,1077.4085,0.7,1078.0979,1078.098,1078.7756,left,1,0.6738,,1078.7758,1079.7792,7,2,114,9,1,total,1,images/Ex2.jpg,left,training,hard,2,,,,,
,,,,,637fcee60a8378c1c3a65898,001,,,,,2024-03-06_12h16.14.481,CRL1h,2023.2.3,Linux x86_64,59.88023952,65e67470ae2fbf2172c317b2,65e85e752eabfe91b174cc95,,,,,,,,,,,1079.7802,1.2,1080.9756,1080.9757,1084.261,right,0,3.2805,,1084.2611,1085.261,7,3,115,11,1,total,1,images/Ex4.jpg,left,training,hard,2,,,,,
,,,,,637fcee60a8378c1c3a65898,001,,,,,2024-03-06_12h16.14.481,CRL1h,2023.2.3,Linux x86_64,59.88023952,65e67470ae2fbf2172c317b2,65e85e752eabfe91b174cc95,,,,,,,,,,,1085.2753,1.3,1086.5782,1086.5782,1087.3647,right,1,0.782,,1087.3648,1088.3624,7,4,116,12,1,total,1,images/Ex5.jpg,right,training,hard,2,,,,,
,,,,,637fcee60a8378c1c3a65898,001,,,,,2024-03-06_12h16.14.481,CRL1h,2023.2.3,Linux x86_64,59.88023952,65e67470ae2fbf2172c317b2,65e85e752eabfe91b174cc95,,,,,,,,,,,1088.3631,1,1089.3648,1089.3648,1089.9124,left,1,0.5456,,1089.9125,1090.9134,7,5,117,3,1,total,1,images/Ex4.jpg,left,training,hard,2,,,,,
,,,,,637fcee60a8378c1c3a65898,001,,,,,2024-03-06_12h16.14.481,CRL1h,2023.2.3,Linux x86_64,59.88023952,65e67470ae2fbf2172c317b2,65e85e752eabfe91b174cc95,,,,,,,,,,,1090.9143,0.9,1091.8135,1091.8136,1092.9474,right,0,1.1298,,1092.9474,1093.9504,7,6,118,2,1,total,1,images/Ex3.jpg,left,training,hard,2,,,,,
,,,,,637fcee60a8378c1c3a65898,001,,,,,2024-03-06_12h16.14.481,CRL1h,2023.2.3,Linux x86_64,59.88023952,65e67470ae2fbf2172c317b2,65e85e752eabfe91b174cc95,,,,,,,,,,,1093.9512,0.8,1094.7494,1094.7494,1095.4158,left,1,0.6648,,1095.4159,1096.4152,7,7,119,0,1,total,1,images/Ex1.jpg,left,training,hard,2,,,,,
,,,,,637fcee60a8378c1c3a65898,001,,,,,2024-03-06_12h16.14.481,CRL1h,2023.2.3,Linux x86_64,59.88023952,65e67470ae2fbf2172c317b2,65e85e752eabfe91b174cc95,,,,,,,,,,,1096.4158,0.6,1097.0158,1097.0158,1097.8194,right,1,0.8008,,1097.8195,1098.8157,7,8,120,13,1,total,1,images/Ex6.jpg,right,training,hard,2,,,,,
,,,,,637fcee60a8378c1c3a65898,001,,,,,2024-03-06_12h16.14.481,CRL1h,2023.2.3,Linux x86_64,59.88023952,65e67470ae2fbf2172c317b2,65e85e752eabfe91b174cc95,,,,,,,,,,,1098.8165,1.3,1100.1163,1100.1163,1101.5673,left,1,1.4464,,1101.5673,1102.5553,7,9,121,8,1,total,1,images/Ex1.jpg,left,training,hard,2,,,,,
,,,,,637fcee60a8378c1c3a65898,001,,,,,2024-03-06_12h16.14.481,CRL1h,2023.2.3,Linux x86_64,59.88023952,65e67470ae2fbf2172c317b2,65e85e752eabfe91b174cc95,,,,,,,,,,,1102.5562,1.1,1103.6512,1103.6513,1104.6713,left,1,1.0171,,1104.6713,1105.6693,7,10,122,10,1,total,1,images/Ex3.jpg,left,training,hard,2,,,,,
,,,,,637fcee60a8378c1c3a65898,001,,,,,2024-03-06_12h16.14.481,CRL1h,2023.2.3,Linux x86_64,59.88023952,65e67470ae2fbf2172c317b2,65e85e752eabfe91b174cc95,,,,,,,,,,,1105.6701,0.9,1106.5693,1106.5694,1107.3146,right,1,0.7356,,1107.3147,1108.3037,7,11,123,4,1,total,1,images/Ex5.jpg,right,training,hard,2,,,,,
,,,,,637fcee60a8378c1c3a65898,001,,,,,2024-03-06_12h16.14.481,CRL1h,2023.2.3,Linux x86_64,59.88023952,65e67470ae2fbf2172c317b2,65e85e752eabfe91b174cc95,,,,,,,,,,,1108.3045,1.4,1109.7034,1109.7035,1111.3388,right,1,1.6336,,1111.3389,1112.3385,7,12,124,15,1,total,1,images/Ex8.jpg,right,training,hard,2,,,,,
,,,,,637fcee60a8378c1c3a65898,001,,,,,2024-03-06_12h16.14.481,CRL1h,2023.2.3,Linux x86_64,59.88023952,65e67470ae2fbf2172c317b2,65e85e752eabfe91b174cc95,,,,,,,,,,,1112.3393,0.8,1113.1409,1113.141,1113.8885,left,1,0.7454,,1113.8887,1114.8885,7,13,125,1,1,total,1,images/Ex2.jpg,left,training,hard,2,,,,,
,,,,,637fcee60a8378c1c3a65898,001,,,,,2024-03-06_12h16.14.481,CRL1h,2023.2.3,Linux x86_64,59.88023952,65e67470ae2fbf2172c317b2,65e85e752eabfe91b174cc95,,,,,,,,,,,1114.8893,1.5,1116.3892,1116.3892,1117.2742,right,1,0.8833,,1117.2743,1118.2732,7,14,126,14,1,total,1,images/Ex7.jpg,right,training,hard,2,,,,,
,,,,,637fcee60a8378c1c3a65898,001,,,,,2024-03-06_12h16.14.481,CRL1h,2023.2.3,Linux x86_64,59.88023952,65e67470ae2fbf2172c317b2,65e85e752eabfe91b174cc95,,,,,,,,,,,1118.2739,1,1119.274,1119.274,1120.6074,right,1,1.3293,,1120.6075,1121.6082,7,15,127,6,1,total,1,images/Ex7.jpg,right,training,hard,2,,,,,
,,,,,637fcee60a8378c1c3a65898,001,,,,,2024-03-06_12h16.14.481,CRL1h,2023.2.3,Linux x86_64,59.88023952,65e67470ae2fbf2172c317b2,65e85e752eabfe91b174cc95,,,,,,,,,,,1121.6246,0.7,1122.3256,1122.3256,1124.5426,left,0,2.2127,,1124.5427,1125.543,0,0,0,9,1,total,2,images/Ex2.jpg,right,reversed,hard,2,,,,,
,,,,,637fcee60a8378c1c3a65898,001,,,,,2024-03-06_12h16.14.481,CRL1h,2023.2.3,Linux x86_64,59.88023952,65e67470ae2fbf2172c317b2,65e85e752eabfe91b174cc95,,,,,,,,,,,1125.5574,0.8,1126.3598,1126.3599,1129.3112,left,0,2.9442,,1129.3112,1130.3118,0,1,1,2,1,total,2,images/Ex3.jpg,right,reversed,hard,2,,,,,
,,,,,637fcee60a8378c1c3a65898,001,,,,,2024-03-06_12h16.14.481,CRL1h,2023.2.3,Linux x86_64,59.88023952,65e67470ae2fbf2172c317b2,65e85e752eabfe91b174cc95,,,,,,,,,,,1130.3283,0.6,1130.9293,1130.9295,1131.7618,right,0,0.8259,,1131.7619,1132.7558,0,2,2,4,1,total,2,images/Ex5.jpg,left,reversed,hard,2,,,,,
,,,,,637fcee60a8378c1c3a65898,001,,,,,2024-03-06_12h16.14.481,CRL1h,2023.2.3,Linux x86_64,59.88023952,65e67470ae2fbf2172c317b2,65e85e752eabfe91b174cc95,,,,,,,,,,,1132.7569,0.7,1133.4457,1133.4457,1134.4505,right,0,1.0031,,1134.4505,1135.4464,0,3,3,5,1,total,2,images/Ex6.jpg,left,reversed,hard,2,,,,,
,,,,,637fcee60a8378c1c3a65898,001,,,,,2024-03-06_12h16.14.481,CRL1h,2023.2.3,Linux x86_64,59.88023952,65e67470ae2fbf2172c317b2,65e85e752eabfe91b174cc95,,,,,,,,,,,1135.4471,0.9,1136.3469,1136.3469,1138.2661,right,0,1.9162,,1138.2662,1139.2649,0,4,4,12,1,total,2,images/Ex5.jpg,left,reversed,hard,2,,,,,
,,,,,637fcee60a8378c1c3a65898,001,,,,,2024-03-06_12h16.14.481,CRL1h,2023.2.3,Linux x86_64,59.88023952,65e67470ae2fbf2172c317b2,65e85e752eabfe91b174cc95,,,,,,,,,,,1139.2793,0.5,1139.7825,1139.7837,1141.5672,right,0,1.7804,,1141.5672,1142.5663,0,5,5,6,1,total,2,images/Ex7.jpg,left,reversed,hard,2,,,,,
,,,,,637fcee60a8378c1c3a65898,001,,,,,2024-03-06_12h16.14.481,CRL1h,2023.2.3,Linux x86_64,59.88023952,65e67470ae2fbf2172c317b2,65e85e752eabfe91b174cc95,,,,,,,,,,,1142.5671,1.1,1143.6666,1143.6666,1144.4502,right,0,0.7819,,1144.4503,1145.4505,0,6,6,14,1,total,2,images/Ex7.jpg,left,reversed,hard,2,,,,,
,,,,,637fcee60a8378c1c3a65898,001,,,,,2024-03-06_12h16.14.481,CRL1h,2023.2.3,Linux x86_64,59.88023952,65e67470ae2fbf2172c317b2,65e85e752eabfe91b174cc95,,,,,,,,,,,1145.4513,1.3,1146.7508,1146.751,1147.7203,left,0,0.9676,,1147.7203,1148.7189,0,7,7,8,1,total,2,images/Ex1.jpg,right,reversed,hard,2,,,,,
,,,,,637fcee60a8378c1c3a65898,001,,,,,2024-03-06_12h16.14.481,CRL1h,2023.2.3,Linux x86_64,59.88023952,65e67470ae2fbf2172c317b2,65e85e752eabfe91b174cc95,,,,,,,,,,,1148.7199,0.8,1149.5191,1149.5191,1151.4694,left,1,1.9454,,1151.4695,1152.4698,0,8,8,15,1,total,2,images/Ex8.jpg,left,reversed,hard,2,,,,,
,,,,,637fcee60a8378c1c3a65898,001,,,,,2024-03-06_12h16.14.481,CRL1h,2023.2.3,Linux x86_64,59.88023952,65e67470ae2fbf2172c317b2,65e85e752eabfe91b174cc95,,,,,,,,,,,1152.4705,0.8,1153.27,1153.2701,1154.2211,right,1,0.9488,,1154.2212,1155.221,0,9,9,1,1,total,2,images/Ex2.jpg,right,reversed,hard,2,,,,,
