infCons.started,infCons.stopped,resp_consent.keys,resp_consent.rt,resp_consent.duration,participant,session,Age?,Gender?,Nationality?,Highest Educational Degree?,date,expName,psychopyVersion,OS,frameRate,STUDY_ID,SESSION_ID,instructions.started,instructions.stopped,resp_instructions.keys,resp_instructions.rt,resp_instructions.duration,nextTask.started,nextTask.stopped,ready_task.keys,ready_task.rt,ready_task.duration,fixation.started,ITI,fixation.stopped,stim.started,stim.stopped,response.keys,response.corr,response.rt,response.duration,feedback.started,feedback.stopped,trials.thisRepN,trials.thisTrialN,trials.thisN,trials.thisIndex,trials.ran,task,phase,Exemplars,r_correct,condition,difficulty,set,end.started,end.stopped,resp_end.keys,resp_end.rt,resp_end.duration
0.0003,7.9369,space,7.8985,,63ef938aea545fb9bd19a591,001,52,Male,English,GCSE,2024-03-06_12h17.00.227,CRL1h,2023.2.3,Win32,60.24096386,65e67470ae2fbf2172c317b2,65e85e60ffc2e4a29daac6e5,,,,,,,,,,,,,,,,,,,,,,,,,,,,,,,,,,,,,,
,,,,,63ef938aea545fb9bd19a591,001,52,Male,English,GCSE,2024-03-06_12h17.00.227,CRL1h,2023.2.3,Win32,60.24096386,65e67470ae2fbf2172c317b2,65e85e60ffc2e4a29daac6e5,7.9372,38.396,space,30.4386,,,,,,,,,,,,,,,,,,,,,,,,,,,,,,,,,,
,,,,,63ef938aea545fb9bd19a591,001,52,Male,English,GCSE,2024-03-06_12h17.00.227,CRL1h,2023.2.3,Win32,60.24096386,65e67470ae2fbf2172c317b2,65e85e60ffc2e4a29daac6e5,,,,,,38.422,42.9635,space,4.5238,,42.977,1.5,44.4771,44.4773,56.7244,right,0,12.2344,,56.7329,57.7239,0,0,0,10,1,total,1,images/Ex3.jpg,left,training,hard,2,,,,,
,,,,,63ef938aea545fb9bd19a591,001,52,Male,English,GCSE,2024-03-06_12h17.00.227,CRL1h,2023.2.3,Win32,60.24096386,65e67470ae2fbf2172c317b2,65e85e60ffc2e4a29daac6e5,,,,,,,,,,,57.725,0.9,58.6245,58.6246,61.0436,right,0,2.4135,,61.0437,62.0437,0,1,1,8,1,total,1,images/Ex1.jpg,left,training,hard,2,,,,,
,,,,,63ef938aea545fb9bd19a591,001,52,Male,English,GCSE,2024-03-06_12h17.00.227,CRL1h,2023.2.3,Win32,60.24096386,65e67470ae2fbf2172c317b2,65e85e60ffc2e4a29daac6e5,,,,,,,,,,,62.0447,0.8,62.8443,62.8445,65.0965,right,1,2.2465,,65.0966,66.0966,0,2,2,6,1,total,1,images/Ex7.jpg,right,training,hard,2,,,,,
,,,,,63ef938aea545fb9bd19a591,001,52,Male,English,GCSE,2024-03-06_12h17.00.227,CRL1h,2023.2.3,Win32,60.24096386,65e67470ae2fbf2172c317b2,65e85e60ffc2e4a29daac6e5,,,,,,,,,,,66.0973,0.8,66.8974,66.8974,68.0838,left,0,1.1848,,68.0839,69.0823,0,3,3,15,1,total,1,images/Ex8.jpg,right,training,hard,2,,,,,
,,,,,63ef938aea545fb9bd19a591,001,52,Male,English,GCSE,2024-03-06_12h17.00.227,CRL1h,2023.2.3,Win32,60.24096386,65e67470ae2fbf2172c317b2,65e85e60ffc2e4a29daac6e5,,,,,,,,,,,69.0829,0.7,69.7784,69.7784,71.036,right,0,1.256,,71.036,72.0349,0,4,4,11,1,total,1,images/Ex4.jpg,left,training,hard,2,,,,,
,,,,,63ef938aea545fb9bd19a591,001,52,Male,English,GCSE,2024-03-06_12h17.00.227,CRL1h,2023.2.3,Win32,60.24096386,65e67470ae2fbf2172c317b2,65e85e60ffc2e4a29daac6e5,,,,,,,,,,,72.0356,0.5,72.535,72.5351,73.8534,right,1,1.3141,,73.8534,74.8536,0,5,5,14,1,total,1,images/Ex7.jpg,right,training,hard,2,,,,,
,,,,,63ef938aea545fb9bd19a591,001,52,Male,English,GCSE,2024-03-06_12h17.00.227,CRL1h,2023.2.3,Win32,60.24096386,65e67470ae2fbf2172c317b2,65e85e60ffc2e4a29daac6e5,,,,,,,,,,,74.8624,1.4,76.2582,76.2583,77.4727,right,0,1.2089,,77.4727,78.473,0,6,6,9,1,total,1,images/Ex2.jpg,left,training,hard,2,,,,,
,,,,,63ef938aea545fb9bd19a591,001,52,Male,English,GCSE,2024-03-06_12h17.00.227,CRL1h,2023.2.3,Win32,60.24096386,65e67470ae2fbf2172c317b2,65e85e60ffc2e4a29daac6e5,,,,,,,,,,,78.4736,1,79.4736,79.4737,81.3419,left,0,1.8642,,81.3421,82.3423,0,7,7,13,1,total,1,images/Ex6.jpg,right,training,hard,2,,,,,
,,,,,63ef938aea545fb9bd19a591,001,52,Male,English,GCSE,2024-03-06_12h17.00.227,CRL1h,2023.2.3,Win32,60.24096386,65e67470ae2fbf2172c317b2,65e85e60ffc2e4a29daac6e5,,,,,,,,,,,82.343,1.1,83.4432,83.4433,84.9246,right,0,1.4794,,84.9246,85.9283,0,8,8,3,1,total,1,images/Ex4.jpg,left,training,hard,2,,,,,
,,,,,63ef938aea545fb9bd19a591,001,52,Male,English,GCSE,2024-03-06_12h17.00.227,CRL1h,2023.2.3,Win32,60.24096386,65e67470ae2fbf2172c317b2,65e85e60ffc2e4a29daac6e5,,,,,,,,,,,85.9291,1,86.9291,86.9291,88.114,right,0,1.1796,,88.1141,89.114,0,9,9,0,1,total,1,images/Ex1.jpg,left,training,hard,2,,,,,
,,,,,63ef938aea545fb9bd19a591,001,52,Male,English,GCSE,2024-03-06_12h17.00.227,CRL1h,2023.2.3,Win32,60.24096386,65e67470ae2fbf2172c317b2,65e85e60ffc2e4a29daac6e5,,,,,,,,,,,89.1148,1.5,90.6154,90.6154,91.8832,right,0,1.2633,,91.8833,92.8836,0,10,10,1,1,total,1,images/Ex2.jpg,left,training,hard,2,,,,,
,,,,,63ef938aea545fb9bd19a591,001,52,Male,English,GCSE,2024-03-06_12h17.00.227,CRL1h,2023.2.3,Win32,60.24096386,65e67470ae2fbf2172c317b2,65e85e60ffc2e4a29daac6e5,,,,,,,,,,,92.8926,0.5,93.388,93.3881,93.935,left,0,0.5418,,93.9351,94.9351,0,11,11,5,1,total,1,images/Ex6.jpg,right,training,hard,2,,,,,
,,,,,63ef938aea545fb9bd19a591,001,52,Male,English,GCSE,2024-03-06_12h17.00.227,CRL1h,2023.2.3,Win32,60.24096386,65e67470ae2fbf2172c317b2,65e85e60ffc2e4a29daac6e5,,,,,,,,,,,94.9358,0.8,95.7359,95.736,97.1501,right,1,1.4128,,97.1502,98.1542,0,12,12,7,1,total,1,images/Ex8.jpg,right,training,hard,2,,,,,
,,,,,63ef938aea545fb9bd19a591,001,52,Male,English,GCSE,2024-03-06_12h17.00.227,CRL1h,2023.2.3,Win32,60.24096386,65e67470ae2fbf2172c317b2,65e85e60ffc2e4a29daac6e5,,,,,,,,,,,98.1551,1.1,99.2551,99.2552,100.1063,right,1,0.8458,,100.1064,101.1063,0,13,13,4,1,total,1,images/Ex5.jpg,right,training,hard,2,,,,,
,,,,,63ef938aea545fb9bd19a591,001,52,Male,English,GCSE,2024-03-06_12h17.00.227,CRL1h,2023.2.3,Win32,60.24096386,65e67470ae2fbf2172c317b2,65e85e60ffc2e4a29daac6e5,,,,,,,,,,,101.107,1,102.1072,102.1073,103.6423,left,1,1.5298,,103.6424,104.6424,0,14,14,2,1,total,1,images/Ex3.jpg,left,training,hard,2,,,,,
,,,,,63ef938aea545fb9bd19a591,001,52,Male,English,GCSE,2024-03-06_12h17.00.227,CRL1h,2023.2.3,Win32,60.24096386,65e67470ae2fbf2172c317b2,65e85e60ffc2e4a29daac6e5,,,,,,,,,,,104.643,0.7,105.3429,105.3429,106.7617,right,1,1.4144,,106.7617,107.7737,0,15,15,12,1,total,1,images/Ex5.jpg,right,training,hard,2,,,,,
,,,,,63ef938aea545fb9bd19a591,001,52,Male,English,GCSE,2024-03-06_12h17.00.227,CRL1h,2023.2.3,Win32,60.24096386,65e67470ae2fbf2172c317b2,65e85e60ffc2e4a29daac6e5,,,,,,,,,,,107.7745,0.9,108.6788,108.6789,109.4132,left,1,0.7289,,109.4133,110.4257,1,0,16,3,1,total,1,images/Ex4.jpg,left,training,hard,2,,,,,
,,,,,63ef938aea545fb9bd19a591,001,52,Male,English,GCSE,2024-03-06_12h17.00.227,CRL1h,2023.2.3,Win32,60.24096386,65e67470ae2fbf2172c317b2,65e85e60ffc2e4a29daac6e5,,,,,,,,,,,110.4262,1.5,111.9193,111.9194,113.4495,left,0,1.5251,,113.4495,114.4497,1,1,17,7,1,total,1,images/Ex8.jpg,right,training,hard,2,,,,,
,,,,,63ef938aea545fb9bd19a591,001,52,Male,English,GCSE,2024-03-06_12h17.00.227,CRL1h,2023.2.3,Win32,60.24096386,65e67470ae2fbf2172c317b2,65e85e60ffc2e4a29daac6e5,,,,,,,,,,,114.4503,0.6,115.0502,115.0503,116.2686,right,0,1.2142,,116.2686,117.2642,1,2,18,0,1,total,1,images/Ex1.jpg,left,training,hard,2,,,,,
,,,,,63ef938aea545fb9bd19a591,001,52,Male,English,GCSE,2024-03-06_12h17.00.227,CRL1h,2023.2.3,Win32,60.24096386,65e67470ae2fbf2172c317b2,65e85e60ffc2e4a29daac6e5,,,,,,,,,,,117.2648,0.5,117.7689,117.769,118.8706,right,1,1.0961,,118.8707,119.8829,1,3,19,12,1,total,1,images/Ex5.jpg,right,training,hard,2,,,,,
,,,,,63ef938aea545fb9bd19a591,001,52,Male,English,GCSE,2024-03-06_12h17.00.227,CRL1h,2023.2.3,Win32,60.24096386,65e67470ae2fbf2172c317b2,65e85e60ffc2e4a29daac6e5,,,,,,,,,,,119.8834,1.1,120.9837,120.9837,122.2897,left,1,1.3033,,122.2898,123.2897,1,4,20,2,1,total,1,images/Ex3.jpg,left,training,hard,2,,,,,
,,,,,63ef938aea545fb9bd19a591,001,52,Male,English,GCSE,2024-03-06_12h17.00.227,CRL1h,2023.2.3,Win32,60.24096386,65e67470ae2fbf2172c317b2,65e85e60ffc2e4a29daac6e5,,,,,,,,,,,123.2905,1.3,124.5908,124.5909,125.7257,left,0,1.1261,,125.7258,126.7256,1,5,21,6,1,total,1,images/Ex7.jpg,right,training,hard,2,,,,,
,,,,,63ef938aea545fb9bd19a591,001,52,Male,English,GCSE,2024-03-06_12h17.00.227,CRL1h,2023.2.3,Win32,60.24096386,65e67470ae2fbf2172c317b2,65e85e60ffc2e4a29daac6e5,,,,,,,,,,,126.7263,1.2,127.9265,127.9267,129.4448,right,1,1.5147,,129.4448,130.4453,1,6,22,13,1,total,1,images/Ex6.jpg,right,training,hard,2,,,,,
,,,,,63ef938aea545fb9bd19a591,001,52,Male,English,GCSE,2024-03-06_12h17.00.227,CRL1h,2023.2.3,Win32,60.24096386,65e67470ae2fbf2172c317b2,65e85e60ffc2e4a29daac6e5,,,,,,,,,,,130.4458,0.7,131.1456,131.1457,131.93,right,1,0.7752,,131.9301,132.9304,1,7,23,5,1,total,1,images/Ex6.jpg,right,training,hard,2,,,,,
,,,,,63ef938aea545fb9bd19a591,001,52,Male,English,GCSE,2024-03-06_12h17.00.227,CRL1h,2023.2.3,Win32,60.24096386,65e67470ae2fbf2172c317b2,65e85e60ffc2e4a29daac6e5,,,,,,,,,,,132.931,0.9,133.8309,133.831,135.3493,left,1,1.5159,,135.3494,136.3497,1,8,24,9,1,total,1,images/Ex2.jpg,left,training,hard,2,,,,,
,,,,,63ef938aea545fb9bd19a591,001,52,Male,English,GCSE,2024-03-06_12h17.00.227,CRL1h,2023.2.3,Win32,60.24096386,65e67470ae2fbf2172c317b2,65e85e60ffc2e4a29daac6e5,,,,,,,,,,,136.3502,0.7,137.0501,137.0501,138.4684,left,1,1.4093,,138.4684,139.4685,1,9,25,1,1,total,1,images/Ex2.jpg,left,training,hard,2,,,,,
,,,,,63ef938aea545fb9bd19a591,001,52,Male,English,GCSE,2024-03-06_12h17.00.227,CRL1h,2023.2.3,Win32,60.24096386,65e67470ae2fbf2172c317b2,65e85e60ffc2e4a29daac6e5,,,,,,,,,,,139.4691,0.7,140.1691,140.1691,141.5207,left,0,1.3421,,141.5208,142.5209,1,10,26,4,1,total,1,images/Ex5.jpg,right,training,hard,2,,,,,
,,,,,63ef938aea545fb9bd19a591,001,52,Male,English,GCSE,2024-03-06_12h17.00.227,CRL1h,2023.2.3,Win32,60.24096386,65e67470ae2fbf2172c317b2,65e85e60ffc2e4a29daac6e5,,,,,,,,,,,142.5214,0.6,143.1212,143.1212,146.4242,right,0,3.295,,146.4243,147.4246,1,11,27,10,1,total,1,images/Ex3.jpg,left,training,hard,2,,,,,
,,,,,63ef938aea545fb9bd19a591,001,52,Male,English,GCSE,2024-03-06_12h17.00.227,CRL1h,2023.2.3,Win32,60.24096386,65e67470ae2fbf2172c317b2,65e85e60ffc2e4a29daac6e5,,,,,,,,,,,147.4337,1.5,148.9256,148.9257,150.0602,left,1,1.131,,150.0603,151.0606,1,12,28,11,1,total,1,images/Ex4.jpg,left,training,hard,2,,,,,
,,,,,63ef938aea545fb9bd19a591,001,52,Male,English,GCSE,2024-03-06_12h17.00.227,CRL1h,2023.2.3,Win32,60.24096386,65e67470ae2fbf2172c317b2,65e85e60ffc2e4a29daac6e5,,,,,,,,,,,151.0696,1.2,152.2615,152.2616,153.1795,left,0,0.9149,,153.1796,154.1796,1,13,29,15,1,total,1,images/Ex8.jpg,right,training,hard,2,,,,,
,,,,,63ef938aea545fb9bd19a591,001,52,Male,English,GCSE,2024-03-06_12h17.00.227,CRL1h,2023.2.3,Win32,60.24096386,65e67470ae2fbf2172c317b2,65e85e60ffc2e4a29daac6e5,,,,,,,,,,,154.1802,1.3,155.4805,155.4806,156.2483,left,0,0.7583,,156.2484,157.2486,1,14,30,14,1,total,1,images/Ex7.jpg,right,training,hard,2,,,,,
,,,,,63ef938aea545fb9bd19a591,001,52,Male,English,GCSE,2024-03-06_12h17.00.227,CRL1h,2023.2.3,Win32,60.24096386,65e67470ae2fbf2172c317b2,65e85e60ffc2e4a29daac6e5,,,,,,,,,,,157.249,1.5,158.7496,158.7497,159.685,right,0,0.9311,,159.685,160.6848,1,15,31,8,1,total,1,images/Ex1.jpg,left,training,hard,2,,,,,
,,,,,63ef938aea545fb9bd19a591,001,52,Male,English,GCSE,2024-03-06_12h17.00.227,CRL1h,2023.2.3,Win32,60.24096386,65e67470ae2fbf2172c317b2,65e85e60ffc2e4a29daac6e5,,,,,,,,,,,160.6855,0.6,161.2851,161.2851,162.2196,right,1,0.9308,,162.2197,163.2198,2,0,32,15,1,total,1,images/Ex8.jpg,right,training,hard,2,,,,,
,,,,,63ef938aea545fb9bd19a591,001,52,Male,English,GCSE,2024-03-06_12h17.00.227,CRL1h,2023.2.3,Win32,60.24096386,65e67470ae2fbf2172c317b2,65e85e60ffc2e4a29daac6e5,,,,,,,,,,,163.2205,0.5,163.7202,163.7202,164.4548,right,1,0.7295,,164.4548,165.455,2,1,33,7,1,total,1,images/Ex8.jpg,right,training,hard,2,,,,,
,,,,,63ef938aea545fb9bd19a591,001,52,Male,English,GCSE,2024-03-06_12h17.00.227,CRL1h,2023.2.3,Win32,60.24096386,65e67470ae2fbf2172c317b2,65e85e60ffc2e4a29daac6e5,,,,,,,,,,,165.4558,1,166.4555,166.4556,168.2573,right,1,1.7974,,168.2575,169.2577,2,2,34,6,1,total,1,images/Ex7.jpg,right,training,hard,2,,,,,
,,,,,63ef938aea545fb9bd19a591,001,52,Male,English,GCSE,2024-03-06_12h17.00.227,CRL1h,2023.2.3,Win32,60.24096386,65e67470ae2fbf2172c317b2,65e85e60ffc2e4a29daac6e5,,,,,,,,,,,169.2664,0.8,170.0583,170.0583,171.26,left,0,1.1975,,171.2601,172.2604,2,3,35,12,1,total,1,images/Ex5.jpg,right,training,hard,2,,,,,
,,,,,63ef938aea545fb9bd19a591,001,52,Male,English,GCSE,2024-03-06_12h17.00.227,CRL1h,2023.2.3,Win32,60.24096386,65e67470ae2fbf2172c317b2,65e85e60ffc2e4a29daac6e5,,,,,,,,,,,172.2609,1.4,173.6611,173.6611,175.5628,right,1,1.8965,,175.563,176.5632,2,4,36,14,1,total,1,images/Ex7.jpg,right,training,hard,2,,,,,
,,,,,63ef938aea545fb9bd19a591,001,52,Male,English,GCSE,2024-03-06_12h17.00.227,CRL1h,2023.2.3,Win32,60.24096386,65e67470ae2fbf2172c317b2,65e85e60ffc2e4a29daac6e5,,,,,,,,,,,176.5638,0.7,177.2637,177.2638,178.9173,right,0,1.6519,,178.9173,179.9157,2,5,37,0,1,total,1,images/Ex1.jpg,left,training,hard,2,,,,,
,,,,,63ef938aea545fb9bd19a591,001,52,Male,English,GCSE,2024-03-06_12h17.00.227,CRL1h,2023.2.3,Win32,60.24096386,65e67470ae2fbf2172c317b2,65e85e60ffc2e4a29daac6e5,,,,,,,,,,,179.9164,0.5,180.416,180.4161,180.9837,left,1,0.5629,,180.9838,181.9839,2,6,38,8,1,total,1,images/Ex1.jpg,left,training,hard,2,,,,,
,,,,,63ef938aea545fb9bd19a591,001,52,Male,English,GCSE,2024-03-06_12h17.00.227,CRL1h,2023.2.3,Win32,60.24096386,65e67470ae2fbf2172c317b2,65e85e60ffc2e4a29daac6e5,,,,,,,,,,,181.9847,0.8,182.7848,182.7848,184.2198,right,0,1.4296,,184.2198,185.2197,2,7,39,9,1,total,1,images/Ex2.jpg,left,training,hard,2,,,,,
,,,,,63ef938aea545fb9bd19a591,001,52,Male,English,GCSE,2024-03-06_12h17.00.227,CRL1h,2023.2.3,Win32,60.24096386,65e67470ae2fbf2172c317b2,65e85e60ffc2e4a29daac6e5,,,,,,,,,,,185.2286,0.6,185.8203,185.8203,187.1221,left,1,1.2963,,187.1221,188.1219,2,8,40,2,1,total,1,images/Ex3.jpg,left,training,hard,2,,,,,
,,,,,63ef938aea545fb9bd19a591,001,52,Male,English,GCSE,2024-03-06_12h17.00.227,CRL1h,2023.2.3,Win32,60.24096386,65e67470ae2fbf2172c317b2,65e85e60ffc2e4a29daac6e5,,,,,,,,,,,188.1226,0.5,188.6224,188.6224,189.1899,left,1,0.5629,,189.19,190.1901,2,9,41,10,1,total,1,images/Ex3.jpg,left,training,hard,2,,,,,
,,,,,63ef938aea545fb9bd19a591,001,52,Male,English,GCSE,2024-03-06_12h17.00.227,CRL1h,2023.2.3,Win32,60.24096386,65e67470ae2fbf2172c317b2,65e85e60ffc2e4a29daac6e5,,,,,,,,,,,190.1909,0.5,190.6907,190.6907,191.654,left,0,0.9615,,191.6541,192.642,2,10,42,5,1,total,1,images/Ex6.jpg,right,training,hard,2,,,,,
,,,,,63ef938aea545fb9bd19a591,001,52,Male,English,GCSE,2024-03-06_12h17.00.227,CRL1h,2023.2.3,Win32,60.24096386,65e67470ae2fbf2172c317b2,65e85e60ffc2e4a29daac6e5,,,,,,,,,,,192.6429,0.9,193.5427,193.5427,194.7613,right,0,1.2129,,194.7614,195.7613,2,11,43,3,1,total,1,images/Ex4.jpg,left,training,hard,2,,,,,
,,,,,63ef938aea545fb9bd19a591,001,52,Male,English,GCSE,2024-03-06_12h17.00.227,CRL1h,2023.2.3,Win32,60.24096386,65e67470ae2fbf2172c317b2,65e85e60ffc2e4a29daac6e5,,,,,,,,,,,195.7619,0.5,196.2615,196.2615,197.7404,right,0,1.4775,,197.7405,198.7299,2,12,44,1,1,total,1,images/Ex2.jpg,left,training,hard,2,,,,,
,,,,,63ef938aea545fb9bd19a591,001,52,Male,English,GCSE,2024-03-06_12h17.00.227,CRL1h,2023.2.3,Win32,60.24096386,65e67470ae2fbf2172c317b2,65e85e60ffc2e4a29daac6e5,,,,,,,,,,,198.7305,1.4,200.131,200.131,201.1325,right,0,0.996,,201.1326,202.1324,2,13,45,11,1,total,1,images/Ex4.jpg,left,training,hard,2,,,,,
,,,,,63ef938aea545fb9bd19a591,001,52,Male,English,GCSE,2024-03-06_12h17.00.227,CRL1h,2023.2.3,Win32,60.24096386,65e67470ae2fbf2172c317b2,65e85e60ffc2e4a29daac6e5,,,,,,,,,,,202.1331,0.7,202.833,202.833,203.8131,right,1,0.9785,,203.8132,204.8074,2,14,46,4,1,total,1,images/Ex5.jpg,right,training,hard,2,,,,,
,,,,,63ef938aea545fb9bd19a591,001,52,Male,English,GCSE,2024-03-06_12h17.00.227,CRL1h,2023.2.3,Win32,60.24096386,65e67470ae2fbf2172c317b2,65e85e60ffc2e4a29daac6e5,,,,,,,,,,,204.808,1.1,205.902,205.902,207.1372,right,1,1.2292,,207.1372,208.137,2,15,47,13,1,total,1,images/Ex6.jpg,right,training,hard,2,,,,,
,,,,,63ef938aea545fb9bd19a591,001,52,Male,English,GCSE,2024-03-06_12h17.00.227,CRL1h,2023.2.3,Win32,60.24096386,65e67470ae2fbf2172c317b2,65e85e60ffc2e4a29daac6e5,,,,,,,,,,,208.1376,0.6,208.7375,208.7376,209.2779,left,1,0.5391,,209.278,210.2719,3,0,48,10,1,total,1,images/Ex3.jpg,left,training,hard,2,,,,,
,,,,,63ef938aea545fb9bd19a591,001,52,Male,English,GCSE,2024-03-06_12h17.00.227,CRL1h,2023.2.3,Win32,60.24096386,65e67470ae2fbf2172c317b2,65e85e60ffc2e4a29daac6e5,,,,,,,,,,,210.2726,1.4,211.673,211.673,212.7037,right,1,1.0292,,212.7038,213.7079,3,1,49,14,1,total,1,images/Ex7.jpg,right,training,hard,2,,,,,
,,,,,63ef938aea545fb9bd19a591,001,52,Male,English,GCSE,2024-03-06_12h17.00.227,CRL1h,2023.2.3,Win32,60.24096386,65e67470ae2fbf2172c317b2,65e85e60ffc2e4a29daac6e5,,,,,,,,,,,213.7086,0.5,214.2083,214.2083,215.1594,left,0,0.9467,,215.1595,216.1597,3,2,50,15,1,total,1,images/Ex8.jpg,right,training,hard,2,,,,,
,,,,,63ef938aea545fb9bd19a591,001,52,Male,English,GCSE,2024-03-06_12h17.00.227,CRL1h,2023.2.3,Win32,60.24096386,65e67470ae2fbf2172c317b2,65e85e60ffc2e4a29daac6e5,,,,,,,,,,,216.1603,1.4,217.5607,217.5608,218.6183,right,0,1.0561,,218.6184,219.6123,3,3,51,11,1,total,1,images/Ex4.jpg,left,training,hard,2,,,,,
,,,,,63ef938aea545fb9bd19a591,001,52,Male,English,GCSE,2024-03-06_12h17.00.227,CRL1h,2023.2.3,Win32,60.24096386,65e67470ae2fbf2172c317b2,65e85e60ffc2e4a29daac6e5,,,,,,,,,,,219.613,1.4,221.0133,221.0134,222.8486,right,1,1.8315,,222.8487,223.8488,3,4,52,6,1,total,1,images/Ex7.jpg,right,training,hard,2,,,,,
,,,,,63ef938aea545fb9bd19a591,001,52,Male,English,GCSE,2024-03-06_12h17.00.227,CRL1h,2023.2.3,Win32,60.24096386,65e67470ae2fbf2172c317b2,65e85e60ffc2e4a29daac6e5,,,,,,,,,,,223.8574,0.6,224.4492,224.4493,225.5798,left,0,1.1291,,225.5798,226.5802,3,5,53,13,1,total,1,images/Ex6.jpg,right,training,hard,2,,,,,
,,,,,63ef938aea545fb9bd19a591,001,52,Male,English,GCSE,2024-03-06_12h17.00.227,CRL1h,2023.2.3,Win32,60.24096386,65e67470ae2fbf2172c317b2,65e85e60ffc2e4a29daac6e5,,,,,,,,,,,226.5805,0.9,227.485,227.4852,228.3028,left,0,0.8126,,228.3028,229.3029,3,6,54,7,1,total,1,images/Ex8.jpg,right,training,hard,2,,,,,
,,,,,63ef938aea545fb9bd19a591,001,52,Male,English,GCSE,2024-03-06_12h17.00.227,CRL1h,2023.2.3,Win32,60.24096386,65e67470ae2fbf2172c317b2,65e85e60ffc2e4a29daac6e5,,,,,,,,,,,229.3036,1.4,230.7172,230.7172,231.4885,left,1,0.7685,,231.4886,232.4886,3,7,55,2,1,total,1,images/Ex3.jpg,left,training,hard,2,,,,,
,,,,,63ef938aea545fb9bd19a591,001,52,Male,English,GCSE,2024-03-06_12h17.00.227,CRL1h,2023.2.3,Win32,60.24096386,65e67470ae2fbf2172c317b2,65e85e60ffc2e4a29daac6e5,,,,,,,,,,,232.4892,1.2,233.6895,233.6896,234.1403,left,1,0.4459,,234.1403,235.1406,3,8,56,9,1,total,1,images/Ex2.jpg,left,training,hard,2,,,,,
,,,,,63ef938aea545fb9bd19a591,001,52,Male,English,GCSE,2024-03-06_12h17.00.227,CRL1h,2023.2.3,Win32,60.24096386,65e67470ae2fbf2172c317b2,65e85e60ffc2e4a29daac6e5,,,,,,,,,,,235.1413,1.2,236.3415,236.3416,237.6559,left,1,1.313,,237.656,238.66,3,9,57,0,1,total,1,images/Ex1.jpg,left,training,hard,2,,,,,
,,,,,63ef938aea545fb9bd19a591,001,52,Male,English,GCSE,2024-03-06_12h17.00.227,CRL1h,2023.2.3,Win32,60.24096386,65e67470ae2fbf2172c317b2,65e85e60ffc2e4a29daac6e5,,,,,,,,,,,238.6606,1.5,240.1485,240.1486,240.8412,right,0,0.691,,240.8412,241.8289,3,10,58,3,1,total,1,images/Ex4.jpg,left,training,hard,2,,,,,
,,,,,63ef938aea545fb9bd19a591,001,52,Male,English,GCSE,2024-03-06_12h17.00.227,CRL1h,2023.2.3,Win32,60.24096386,65e67470ae2fbf2172c317b2,65e85e60ffc2e4a29daac6e5,,,,,,,,,,,241.8295,0.6,242.4294,242.4295,243.3806,left,1,0.9458,,243.3808,244.3928,3,11,59,1,1,total,1,images/Ex2.jpg,left,training,hard,2,,,,,
,,,,,63ef938aea545fb9bd19a591,001,52,Male,English,GCSE,2024-03-06_12h17.00.227,CRL1h,2023.2.3,Win32,60.24096386,65e67470ae2fbf2172c317b2,65e85e60ffc2e4a29daac6e5,,,,,,,,,,,244.3932,0.8,245.1883,245.1883,245.8492,left,0,0.6567,,245.8493,246.8494,3,12,60,5,1,total,1,images/Ex6.jpg,right,training,hard,2,,,,,
,,,,,63ef938aea545fb9bd19a591,001,52,Male,English,GCSE,2024-03-06_12h17.00.227,CRL1h,2023.2.3,Win32,60.24096386,65e67470ae2fbf2172c317b2,65e85e60ffc2e4a29daac6e5,,,,,,,,,,,246.85,1.5,248.3505,248.3506,249.4198,left,1,1.0676,,249.42,250.4189,3,13,61,8,1,total,1,images/Ex1.jpg,left,training,hard,2,,,,,
,,,,,63ef938aea545fb9bd19a591,001,52,Male,English,GCSE,2024-03-06_12h17.00.227,CRL1h,2023.2.3,Win32,60.24096386,65e67470ae2fbf2172c317b2,65e85e60ffc2e4a29daac6e5,,,,,,,,,,,250.4195,0.8,251.2194,251.2195,252.467,left,0,1.2459,,252.467,253.4547,3,14,62,12,1,total,1,images/Ex5.jpg,right,training,hard,2,,,,,
,,,,,63ef938aea545fb9bd19a591,001,52,Male,English,GCSE,2024-03-06_12h17.00.227,CRL1h,2023.2.3,Win32,60.24096386,65e67470ae2fbf2172c317b2,65e85e60ffc2e4a29daac6e5,,,,,,,,,,,253.4633,1.2,254.6555,254.6555,255.3578,left,0,0.7013,,255.3578,256.3566,3,15,63,4,1,total,1,images/Ex5.jpg,right,training,hard,2,,,,,
,,,,,63ef938aea545fb9bd19a591,001,52,Male,English,GCSE,2024-03-06_12h17.00.227,CRL1h,2023.2.3,Win32,60.24096386,65e67470ae2fbf2172c317b2,65e85e60ffc2e4a29daac6e5,,,,,,,,,,,256.3575,0.5,256.857,256.8571,257.3375,right,1,0.4792,,257.3375,258.3414,4,0,64,12,1,total,1,images/Ex5.jpg,right,training,hard,2,,,,,
,,,,,63ef938aea545fb9bd19a591,001,52,Male,English,GCSE,2024-03-06_12h17.00.227,CRL1h,2023.2.3,Win32,60.24096386,65e67470ae2fbf2172c317b2,65e85e60ffc2e4a29daac6e5,,,,,,,,,,,258.3421,1.3,259.6553,259.6554,260.306,left,1,0.6496,,260.3061,261.2937,4,1,65,9,1,total,1,images/Ex2.jpg,left,training,hard,2,,,,,
,,,,,63ef938aea545fb9bd19a591,001,52,Male,English,GCSE,2024-03-06_12h17.00.227,CRL1h,2023.2.3,Win32,60.24096386,65e67470ae2fbf2172c317b2,65e85e60ffc2e4a29daac6e5,,,,,,,,,,,261.2943,0.6,261.8942,261.8942,262.5283,left,1,0.6287,,262.5285,263.5287,4,2,66,8,1,total,1,images/Ex1.jpg,left,training,hard,2,,,,,
,,,,,63ef938aea545fb9bd19a591,001,52,Male,English,GCSE,2024-03-06_12h17.00.227,CRL1h,2023.2.3,Win32,60.24096386,65e67470ae2fbf2172c317b2,65e85e60ffc2e4a29daac6e5,,,,,,,,,,,263.5292,1.2,264.7295,264.7296,265.777,right,1,1.0459,,265.777,266.7648,4,3,67,14,1,total,1,images/Ex7.jpg,right,training,hard,2,,,,,
,,,,,63ef938aea545fb9bd19a591,001,52,Male,English,GCSE,2024-03-06_12h17.00.227,CRL1h,2023.2.3,Win32,60.24096386,65e67470ae2fbf2172c317b2,65e85e60ffc2e4a29daac6e5,,,,,,,,,,,266.7654,0.6,267.365,267.365,268.2111,left,0,0.8449,,268.2111,269.1997,4,4,68,4,1,total,1,images/Ex5.jpg,right,training,hard,2,,,,,
,,,,,63ef938aea545fb9bd19a591,001,52,Male,English,GCSE,2024-03-06_12h17.00.227,CRL1h,2023.2.3,Win32,60.24096386,65e67470ae2fbf2172c317b2,65e85e60ffc2e4a29daac6e5,,,,,,,,,,,269.2002,0.8,270.0003,270.0003,270.7349,left,1,0.7291,,270.7349,271.7352,4,5,69,2,1,total,1,images/Ex3.jpg,left,training,hard,2,,,,,
,,,,,63ef938aea545fb9bd19a591,001,52,Male,English,GCSE,2024-03-06_12h17.00.227,CRL1h,2023.2.3,Win32,60.24096386,65e67470ae2fbf2172c317b2,65e85e60ffc2e4a29daac6e5,,,,,,,,,,,271.7359,1.4,273.1359,273.136,274.2373,right,1,1.0967,,274.2374,275.2375,4,6,70,5,1,total,1,images/Ex6.jpg,right,training,hard,2,,,,,
,,,,,63ef938aea545fb9bd19a591,001,52,Male,English,GCSE,2024-03-06_12h17.00.227,CRL1h,2023.2.3,Win32,60.24096386,65e67470ae2fbf2172c317b2,65e85e60ffc2e4a29daac6e5,,,,,,,,,,,275.2382,0.6,275.838,275.8382,276.8394,left,0,0.9959,,276.8394,277.8396,4,7,71,15,1,total,1,images/Ex8.jpg,right,training,hard,2,,,,,
,,,,,63ef938aea545fb9bd19a591,001,52,Male,English,GCSE,2024-03-06_12h17.00.227,CRL1h,2023.2.3,Win32,60.24096386,65e67470ae2fbf2172c317b2,65e85e60ffc2e4a29daac6e5,,,,,,,,,,,277.8402,1,278.8403,278.8404,279.6416,left,1,0.7964,,279.6417,280.6416,4,8,72,0,1,total,1,images/Ex1.jpg,left,training,hard,2,,,,,
,,,,,63ef938aea545fb9bd19a591,001,52,Male,English,GCSE,2024-03-06_12h17.00.227,CRL1h,2023.2.3,Win32,60.24096386,65e67470ae2fbf2172c317b2,65e85e60ffc2e4a29daac6e5,,,,,,,,,,,280.6423,0.9,281.5422,281.5422,282.5271,left,1,0.9805,,282.5271,283.5226,4,9,73,3,1,total,1,images/Ex4.jpg,left,training,hard,2,,,,,
,,,,,63ef938aea545fb9bd19a591,001,52,Male,English,GCSE,2024-03-06_12h17.00.227,CRL1h,2023.2.3,Win32,60.24096386,65e67470ae2fbf2172c317b2,65e85e60ffc2e4a29daac6e5,,,,,,,,,,,283.5232,0.5,284.011,284.011,284.6119,left,1,0.5961,,284.6119,285.6121,4,10,74,11,1,total,1,images/Ex4.jpg,left,training,hard,2,,,,,
,,,,,63ef938aea545fb9bd19a591,001,52,Male,English,GCSE,2024-03-06_12h17.00.227,CRL1h,2023.2.3,Win32,60.24096386,65e67470ae2fbf2172c317b2,65e85e60ffc2e4a29daac6e5,,,,,,,,,,,285.6127,0.9,286.5127,286.5127,287.0599,left,0,0.5457,,287.0599,288.064,4,11,75,13,1,total,1,images/Ex6.jpg,right,training,hard,2,,,,,
,,,,,63ef938aea545fb9bd19a591,001,52,Male,English,GCSE,2024-03-06_12h17.00.227,CRL1h,2023.2.3,Win32,60.24096386,65e67470ae2fbf2172c317b2,65e85e60ffc2e4a29daac6e5,,,,,,,,,,,288.0647,1.2,289.2649,289.265,290.212,left,0,0.9457,,290.2121,291.2002,4,12,76,7,1,total,1,images/Ex8.jpg,right,training,hard,2,,,,,
,,,,,63ef938aea545fb9bd19a591,001,52,Male,English,GCSE,2024-03-06_12h17.00.227,CRL1h,2023.2.3,Win32,60.24096386,65e67470ae2fbf2172c317b2,65e85e60ffc2e4a29daac6e5,,,,,,,,,,,291.201,1.5,292.7006,292.7007,293.4855,left,1,0.7791,,293.4855,294.4854,4,13,77,10,1,total,1,images/Ex3.jpg,left,training,hard,2,,,,,
,,,,,63ef938aea545fb9bd19a591,001,52,Male,English,GCSE,2024-03-06_12h17.00.227,CRL1h,2023.2.3,Win32,60.24096386,65e67470ae2fbf2172c317b2,65e85e60ffc2e4a29daac6e5,,,,,,,,,,,294.4861,1.3,295.7864,295.7864,296.422,left,1,0.6341,,296.4221,297.4208,4,14,78,1,1,total,1,images/Ex2.jpg,left,training,hard,2,,,,,
,,,,,63ef938aea545fb9bd19a591,001,52,Male,English,GCSE,2024-03-06_12h17.00.227,CRL1h,2023.2.3,Win32,60.24096386,65e67470ae2fbf2172c317b2,65e85e60ffc2e4a29daac6e5,,,,,,,,,,,297.4214,0.6,298.0214,298.0214,299.0058,right,1,0.9813,,299.0059,300.0061,4,15,79,6,1,total,1,images/Ex7.jpg,right,training,hard,2,,,,,
,,,,,63ef938aea545fb9bd19a591,001,52,Male,English,GCSE,2024-03-06_12h17.00.227,CRL1h,2023.2.3,Win32,60.24096386,65e67470ae2fbf2172c317b2,65e85e60ffc2e4a29daac6e5,,,,,,,,,,,300.0068,1,301.0069,301.007,302.0045,left,0,0.9957,,302.0045,303.0084,5,0,80,15,1,total,1,images/Ex8.jpg,right,training,hard,2,,,,,
,,,,,63ef938aea545fb9bd19a591,001,52,Male,English,GCSE,2024-03-06_12h17.00.227,CRL1h,2023.2.3,Win32,60.24096386,65e67470ae2fbf2172c317b2,65e85e60ffc2e4a29daac6e5,,,,,,,,,,,303.009,0.8,303.8089,303.809,305.1108,left,0,1.2962,,305.1108,306.1108,5,1,81,14,1,total,1,images/Ex7.jpg,right,training,hard,2,,,,,
,,,,,63ef938aea545fb9bd19a591,001,52,Male,English,GCSE,2024-03-06_12h17.00.227,CRL1h,2023.2.3,Win32,60.24096386,65e67470ae2fbf2172c317b2,65e85e60ffc2e4a29daac6e5,,,,,,,,,,,306.1114,1,307.1115,307.1115,307.7627,left,1,0.6463,,307.7629,308.7627,5,2,82,10,1,total,1,images/Ex3.jpg,left,training,hard,2,,,,,
,,,,,63ef938aea545fb9bd19a591,001,52,Male,English,GCSE,2024-03-06_12h17.00.227,CRL1h,2023.2.3,Win32,60.24096386,65e67470ae2fbf2172c317b2,65e85e60ffc2e4a29daac6e5,,,,,,,,,,,308.7634,0.7,309.4633,309.4633,310.3375,left,0,0.8723,,310.3375,311.3315,5,3,83,6,1,total,1,images/Ex7.jpg,right,training,hard,2,,,,,
,,,,,63ef938aea545fb9bd19a591,001,52,Male,English,GCSE,2024-03-06_12h17.00.227,CRL1h,2023.2.3,Win32,60.24096386,65e67470ae2fbf2172c317b2,65e85e60ffc2e4a29daac6e5,,,,,,,,,,,311.3321,1.3,312.6323,312.6324,313.2002,left,1,0.5623,,313.2002,314.2001,5,4,84,2,1,total,1,images/Ex3.jpg,left,training,hard,2,,,,,
,,,,,63ef938aea545fb9bd19a591,001,52,Male,English,GCSE,2024-03-06_12h17.00.227,CRL1h,2023.2.3,Win32,60.24096386,65e67470ae2fbf2172c317b2,65e85e60ffc2e4a29daac6e5,,,,,,,,,,,314.2008,1.2,315.4012,315.4012,316.1128,left,1,0.7101,,316.1128,317.1154,5,5,85,1,1,total,1,images/Ex2.jpg,left,training,hard,2,,,,,
,,,,,63ef938aea545fb9bd19a591,001,52,Male,English,GCSE,2024-03-06_12h17.00.227,CRL1h,2023.2.3,Win32,60.24096386,65e67470ae2fbf2172c317b2,65e85e60ffc2e4a29daac6e5,,,,,,,,,,,317.1158,1.3,318.4201,318.4201,319.0879,left,1,0.6648,,319.0879,320.0879,5,6,86,0,1,total,1,images/Ex1.jpg,left,training,hard,2,,,,,
,,,,,63ef938aea545fb9bd19a591,001,52,Male,English,GCSE,2024-03-06_12h17.00.227,CRL1h,2023.2.3,Win32,60.24096386,65e67470ae2fbf2172c317b2,65e85e60ffc2e4a29daac6e5,,,,,,,,,,,320.0886,1.4,321.4889,321.489,322.0901,right,1,0.5959,,322.0902,323.0902,5,7,87,4,1,total,1,images/Ex5.jpg,right,training,hard,2,,,,,
,,,,,63ef938aea545fb9bd19a591,001,52,Male,English,GCSE,2024-03-06_12h17.00.227,CRL1h,2023.2.3,Win32,60.24096386,65e67470ae2fbf2172c317b2,65e85e60ffc2e4a29daac6e5,,,,,,,,,,,323.0908,0.7,323.7907,323.7907,324.8757,right,0,1.0796,,324.8758,325.8874,5,8,88,8,1,total,1,images/Ex1.jpg,left,training,hard,2,,,,,
,,,,,63ef938aea545fb9bd19a591,001,52,Male,English,GCSE,2024-03-06_12h17.00.227,CRL1h,2023.2.3,Win32,60.24096386,65e67470ae2fbf2172c317b2,65e85e60ffc2e4a29daac6e5,,,,,,,,,,,325.8879,1.3,327.1766,327.1766,328.2951,right,1,1.115,,328.2952,329.295,5,9,89,5,1,total,1,images/Ex6.jpg,right,training,hard,2,,,,,
,,,,,63ef938aea545fb9bd19a591,001,52,Male,English,GCSE,2024-03-06_12h17.00.227,CRL1h,2023.2.3,Win32,60.24096386,65e67470ae2fbf2172c317b2,65e85e60ffc2e4a29daac6e5,,,,,,,,,,,329.2956,1.4,330.6959,330.696,331.464,right,0,0.7657,,331.4642,332.4638,5,10,90,11,1,total,1,images/Ex4.jpg,left,training,hard,2,,,,,
,,,,,63ef938aea545fb9bd19a591,001,52,Male,English,GCSE,2024-03-06_12h17.00.227,CRL1h,2023.2.3,Win32,60.24096386,65e67470ae2fbf2172c317b2,65e85e60ffc2e4a29daac6e5,,,,,,,,,,,332.4645,0.9,333.3769,333.3769,334.4329,left,0,1.0506,,334.4329,335.4328,5,11,91,7,1,total,1,images/Ex8.jpg,right,training,hard,2,,,,,
,,,,,63ef938aea545fb9bd19a591,001,52,Male,English,GCSE,2024-03-06_12h17.00.227,CRL1h,2023.2.3,Win32,60.24096386,65e67470ae2fbf2172c317b2,65e85e60ffc2e4a29daac6e5,,,,,,,,,,,335.4334,0.6,336.0333,336.0333,336.7343,left,1,0.6986,,336.7344,337.7348,5,12,92,9,1,total,1,images/Ex2.jpg,left,training,hard,2,,,,,
,,,,,63ef938aea545fb9bd19a591,001,52,Male,English,GCSE,2024-03-06_12h17.00.227,CRL1h,2023.2.3,Win32,60.24096386,65e67470ae2fbf2172c317b2,65e85e60ffc2e4a29daac6e5,,,,,,,,,,,337.7354,1.1,338.8354,338.8355,339.7701,left,0,0.9295,,339.7702,340.7704,5,13,93,12,1,total,1,images/Ex5.jpg,right,training,hard,2,,,,,
,,,,,63ef938aea545fb9bd19a591,001,52,Male,English,GCSE,2024-03-06_12h17.00.227,CRL1h,2023.2.3,Win32,60.24096386,65e67470ae2fbf2172c317b2,65e85e60ffc2e4a29daac6e5,,,,,,,,,,,340.771,0.8,341.5709,341.571,342.2052,left,0,0.629,,342.2053,343.2053,5,14,94,13,1,total,1,images/Ex6.jpg,right,training,hard,2,,,,,
,,,,,63ef938aea545fb9bd19a591,001,52,Male,English,GCSE,2024-03-06_12h17.00.227,CRL1h,2023.2.3,Win32,60.24096386,65e67470ae2fbf2172c317b2,65e85e60ffc2e4a29daac6e5,,,,,,,,,,,343.2059,1.5,344.7065,344.7066,345.396,right,0,0.688,,345.396,346.3915,5,15,95,3,1,total,1,images/Ex4.jpg,left,training,hard,2,,,,,
,,,,,63ef938aea545fb9bd19a591,001,52,Male,English,GCSE,2024-03-06_12h17.00.227,CRL1h,2023.2.3,Win32,60.24096386,65e67470ae2fbf2172c317b2,65e85e60ffc2e4a29daac6e5,,,,,,,,,,,346.3922,1.2,347.5919,347.592,348.3265,left,1,0.7301,,348.3266,349.3266,6,0,96,0,1,total,1,images/Ex1.jpg,left,training,hard,2,,,,,
,,,,,63ef938aea545fb9bd19a591,001,52,Male,English,GCSE,2024-03-06_12h17.00.227,CRL1h,2023.2.3,Win32,60.24096386,65e67470ae2fbf2172c317b2,65e85e60ffc2e4a29daac6e5,,,,,,,,,,,349.3272,1.3,350.6226,350.6226,351.6756,left,0,1.0514,,351.6756,352.6791,6,1,97,12,1,total,1,images/Ex5.jpg,right,training,hard,2,,,,,
,,,,,63ef938aea545fb9bd19a591,001,52,Male,English,GCSE,2024-03-06_12h17.00.227,CRL1h,2023.2.3,Win32,60.24096386,65e67470ae2fbf2172c317b2,65e85e60ffc2e4a29daac6e5,,,,,,,,,,,352.6798,1.4,354.0802,354.0802,355.3168,left,1,1.2351,,355.3168,356.3152,6,2,98,3,1,total,1,images/Ex4.jpg,left,training,hard,2,,,,,
,,,,,63ef938aea545fb9bd19a591,001,52,Male,English,GCSE,2024-03-06_12h17.00.227,CRL1h,2023.2.3,Win32,60.24096386,65e67470ae2fbf2172c317b2,65e85e60ffc2e4a29daac6e5,,,,,,,,,,,356.3159,1.3,357.6162,357.6163,358.5303,right,1,0.9125,,358.5303,359.5218,6,3,99,14,1,total,1,images/Ex7.jpg,right,training,hard,2,,,,,
,,,,,63ef938aea545fb9bd19a591,001,52,Male,English,GCSE,2024-03-06_12h17.00.227,CRL1h,2023.2.3,Win32,60.24096386,65e67470ae2fbf2172c317b2,65e85e60ffc2e4a29daac6e5,,,,,,,,,,,359.5223,1.1,360.6184,360.6185,361.3366,left,1,0.7121,,361.3366,362.3363,6,4,100,9,1,total,1,images/Ex2.jpg,left,training,hard,2,,,,,
,,,,,63ef938aea545fb9bd19a591,001,52,Male,English,GCSE,2024-03-06_12h17.00.227,CRL1h,2023.2.3,Win32,60.24096386,65e67470ae2fbf2172c317b2,65e85e60ffc2e4a29daac6e5,,,,,,,,,,,362.3369,1.3,363.6253,363.6254,364.5222,right,1,0.8926,,364.5223,365.5222,6,5,101,6,1,total,1,images/Ex7.jpg,right,training,hard,2,,,,,
,,,,,63ef938aea545fb9bd19a591,001,52,Male,English,GCSE,2024-03-06_12h17.00.227,CRL1h,2023.2.3,Win32,60.24096386,65e67470ae2fbf2172c317b2,65e85e60ffc2e4a29daac6e5,,,,,,,,,,,365.5227,0.6,366.1226,366.1226,366.7236,left,1,0.598,,366.7237,367.7237,6,6,102,1,1,total,1,images/Ex2.jpg,left,training,hard,2,,,,,
,,,,,63ef938aea545fb9bd19a591,001,52,Male,English,GCSE,2024-03-06_12h17.00.227,CRL1h,2023.2.3,Win32,60.24096386,65e67470ae2fbf2172c317b2,65e85e60ffc2e4a29daac6e5,,,,,,,,,,,367.7246,1.4,369.1249,369.125,369.772,left,1,0.6458,,369.772,370.7761,6,7,103,10,1,total,1,images/Ex3.jpg,left,training,hard,2,,,,,
,,,,,63ef938aea545fb9bd19a591,001,52,Male,English,GCSE,2024-03-06_12h17.00.227,CRL1h,2023.2.3,Win32,60.24096386,65e67470ae2fbf2172c317b2,65e85e60ffc2e4a29daac6e5,,,,,,,,,,,370.7768,1.2,371.9666,371.9666,373.0912,left,0,1.1233,,373.0912,374.0952,6,8,104,4,1,total,1,images/Ex5.jpg,right,training,hard,2,,,,,
,,,,,63ef938aea545fb9bd19a591,001,52,Male,English,GCSE,2024-03-06_12h17.00.227,CRL1h,2023.2.3,Win32,60.24096386,65e67470ae2fbf2172c317b2,65e85e60ffc2e4a29daac6e5,,,,,,,,,,,374.0957,0.7,374.7957,374.7958,376.5438,left,0,1.7466,,376.5438,377.5478,6,9,105,13,1,total,1,images/Ex6.jpg,right,training,hard,2,,,,,
,,,,,63ef938aea545fb9bd19a591,001,52,Male,English,GCSE,2024-03-06_12h17.00.227,CRL1h,2023.2.3,Win32,60.24096386,65e67470ae2fbf2172c317b2,65e85e60ffc2e4a29daac6e5,,,,,,,,,,,377.5485,0.9,378.4485,378.4486,379.3166,right,1,0.8629,,379.3166,380.3167,6,10,106,5,1,total,1,images/Ex6.jpg,right,training,hard,2,,,,,
,,,,,63ef938aea545fb9bd19a591,001,52,Male,English,GCSE,2024-03-06_12h17.00.227,CRL1h,2023.2.3,Win32,60.24096386,65e67470ae2fbf2172c317b2,65e85e60ffc2e4a29daac6e5,,,,,,,,,,,380.3173,0.7,381.0172,381.0173,381.781,left,1,0.762,,381.7811,382.7852,6,11,107,2,1,total,1,images/Ex3.jpg,left,training,hard,2,,,,,
,,,,,63ef938aea545fb9bd19a591,001,52,Male,English,GCSE,2024-03-06_12h17.00.227,CRL1h,2023.2.3,Win32,60.24096386,65e67470ae2fbf2172c317b2,65e85e60ffc2e4a29daac6e5,,,,,,,,,,,382.7857,0.7,383.4857,383.4858,385.1045,left,1,1.6131,,385.1046,386.0998,6,12,108,11,1,total,1,images/Ex4.jpg,left,training,hard,2,,,,,
,,,,,63ef938aea545fb9bd19a591,001,52,Male,English,GCSE,2024-03-06_12h17.00.227,CRL1h,2023.2.3,Win32,60.24096386,65e67470ae2fbf2172c317b2,65e85e60ffc2e4a29daac6e5,,,,,,,,,,,386.1099,0.9,387.005,387.0051,388.0065,right,1,0.9961,,388.0067,389.0189,6,13,109,7,1,total,1,images/Ex8.jpg,right,training,hard,2,,,,,
,,,,,63ef938aea545fb9bd19a591,001,52,Male,English,GCSE,2024-03-06_12h17.00.227,CRL1h,2023.2.3,Win32,60.24096386,65e67470ae2fbf2172c317b2,65e85e60ffc2e4a29daac6e5,,,,,,,,,,,389.0194,1,390.0196,390.0196,390.704,left,1,0.683,,390.704,391.6918,6,14,110,8,1,total,1,images/Ex1.jpg,left,training,hard,2,,,,,
,,,,,63ef938aea545fb9bd19a591,001,52,Male,English,GCSE,2024-03-06_12h17.00.227,CRL1h,2023.2.3,Win32,60.24096386,65e67470ae2fbf2172c317b2,65e85e60ffc2e4a29daac6e5,,,,,,,,,,,391.6925,1.2,392.8926,392.8927,393.8942,left,0,0.9961,,393.8942,394.8943,6,15,111,15,1,total,1,images/Ex8.jpg,right,training,hard,2,,,,,
,,,,,63ef938aea545fb9bd19a591,001,52,Male,English,GCSE,2024-03-06_12h17.00.227,CRL1h,2023.2.3,Win32,60.24096386,65e67470ae2fbf2172c317b2,65e85e60ffc2e4a29daac6e5,,,,,,,,,,,394.8951,0.8,395.6948,395.6949,396.4126,right,1,0.7129,,396.4127,397.4128,7,0,112,7,1,total,1,images/Ex8.jpg,right,training,hard,2,,,,,
,,,,,63ef938aea545fb9bd19a591,001,52,Male,English,GCSE,2024-03-06_12h17.00.227,CRL1h,2023.2.3,Win32,60.24096386,65e67470ae2fbf2172c317b2,65e85e60ffc2e4a29daac6e5,,,,,,,,,,,397.4134,0.7,398.1139,398.114,399.1275,left,1,1.0121,,399.1276,400.1315,7,1,113,3,1,total,1,images/Ex4.jpg,left,training,hard,2,,,,,
,,,,,63ef938aea545fb9bd19a591,001,52,Male,English,GCSE,2024-03-06_12h17.00.227,CRL1h,2023.2.3,Win32,60.24096386,65e67470ae2fbf2172c317b2,65e85e60ffc2e4a29daac6e5,,,,,,,,,,,400.1322,0.9,401.0323,401.0323,401.7334,left,1,0.696,,401.7334,402.7334,7,2,114,0,1,total,1,images/Ex1.jpg,left,training,hard,2,,,,,
,,,,,63ef938aea545fb9bd19a591,001,52,Male,English,GCSE,2024-03-06_12h17.00.227,CRL1h,2023.2.3,Win32,60.24096386,65e67470ae2fbf2172c317b2,65e85e60ffc2e4a29daac6e5,,,,,,,,,,,402.7342,1.2,403.9349,403.935,405.0039,right,1,1.0673,,405.0039,406.0026,7,3,115,13,1,total,1,images/Ex6.jpg,right,training,hard,2,,,,,
,,,,,63ef938aea545fb9bd19a591,001,52,Male,English,GCSE,2024-03-06_12h17.00.227,CRL1h,2023.2.3,Win32,60.24096386,65e67470ae2fbf2172c317b2,65e85e60ffc2e4a29daac6e5,,,,,,,,,,,406.0033,1.2,407.2034,407.2035,408.2884,left,0,1.0791,,408.2885,409.2884,7,4,116,12,1,total,1,images/Ex5.jpg,right,training,hard,2,,,,,
,,,,,63ef938aea545fb9bd19a591,001,52,Male,English,GCSE,2024-03-06_12h17.00.227,CRL1h,2023.2.3,Win32,60.24096386,65e67470ae2fbf2172c317b2,65e85e60ffc2e4a29daac6e5,,,,,,,,,,,409.289,1.5,410.7906,410.7907,411.4958,left,1,0.7035,,411.4958,412.4907,7,5,117,8,1,total,1,images/Ex1.jpg,left,training,hard,2,,,,,
,,,,,63ef938aea545fb9bd19a591,001,52,Male,English,GCSE,2024-03-06_12h17.00.227,CRL1h,2023.2.3,Win32,60.24096386,65e67470ae2fbf2172c317b2,65e85e60ffc2e4a29daac6e5,,,,,,,,,,,412.4911,1.3,413.7918,413.7919,414.243,left,1,0.4479,,414.2432,415.2429,7,6,118,9,1,total,1,images/Ex2.jpg,left,training,hard,2,,,,,
,,,,,63ef938aea545fb9bd19a591,001,52,Male,English,GCSE,2024-03-06_12h17.00.227,CRL1h,2023.2.3,Win32,60.24096386,65e67470ae2fbf2172c317b2,65e85e60ffc2e4a29daac6e5,,,,,,,,,,,415.2435,0.8,416.0435,416.0435,416.6945,left,1,0.6462,,416.6947,417.6903,7,7,119,2,1,total,1,images/Ex3.jpg,left,training,hard,2,,,,,
,,,,,63ef938aea545fb9bd19a591,001,52,Male,English,GCSE,2024-03-06_12h17.00.227,CRL1h,2023.2.3,Win32,60.24096386,65e67470ae2fbf2172c317b2,65e85e60ffc2e4a29daac6e5,,,,,,,,,,,417.6908,0.9,418.5787,418.5788,419.2131,left,1,0.6295,,419.2132,420.2135,7,8,120,10,1,total,1,images/Ex3.jpg,left,training,hard,2,,,,,
,,,,,63ef938aea545fb9bd19a591,001,52,Male,English,GCSE,2024-03-06_12h17.00.227,CRL1h,2023.2.3,Win32,60.24096386,65e67470ae2fbf2172c317b2,65e85e60ffc2e4a29daac6e5,,,,,,,,,,,420.2144,0.7,420.9138,420.9139,421.4377,left,1,0.5217,,421.4377,422.4316,7,9,121,1,1,total,1,images/Ex2.jpg,left,training,hard,2,,,,,
,,,,,63ef938aea545fb9bd19a591,001,52,Male,English,GCSE,2024-03-06_12h17.00.227,CRL1h,2023.2.3,Win32,60.24096386,65e67470ae2fbf2172c317b2,65e85e60ffc2e4a29daac6e5,,,,,,,,,,,422.4325,0.6,423.032,423.0321,424.0833,left,0,1.0475,,424.0834,425.0836,7,10,122,15,1,total,1,images/Ex8.jpg,right,training,hard,2,,,,,
,,,,,63ef938aea545fb9bd19a591,001,52,Male,English,GCSE,2024-03-06_12h17.00.227,CRL1h,2023.2.3,Win32,60.24096386,65e67470ae2fbf2172c317b2,65e85e60ffc2e4a29daac6e5,,,,,,,,,,,425.0844,0.5,425.584,425.5841,426.4697,right,1,0.8839,,426.4697,427.4687,7,11,123,5,1,total,1,images/Ex6.jpg,right,training,hard,2,,,,,
,,,,,63ef938aea545fb9bd19a591,001,52,Male,English,GCSE,2024-03-06_12h17.00.227,CRL1h,2023.2.3,Win32,60.24096386,65e67470ae2fbf2172c317b2,65e85e60ffc2e4a29daac6e5,,,,,,,,,,,427.4693,1,428.4695,428.4696,429.9384,left,0,1.4651,,429.9384,430.9383,7,12,124,4,1,total,1,images/Ex5.jpg,right,training,hard,2,,,,,
,,,,,63ef938aea545fb9bd19a591,001,52,Male,English,GCSE,2024-03-06_12h17.00.227,CRL1h,2023.2.3,Win32,60.24096386,65e67470ae2fbf2172c317b2,65e85e60ffc2e4a29daac6e5,,,,,,,,,,,430.9389,1.2,432.1389,432.1389,433.3255,right,1,1.1851,,433.3255,434.3241,7,13,125,14,1,total,1,images/Ex7.jpg,right,training,hard,2,,,,,
,,,,,63ef938aea545fb9bd19a591,001,52,Male,English,GCSE,2024-03-06_12h17.00.227,CRL1h,2023.2.3,Win32,60.24096386,65e67470ae2fbf2172c317b2,65e85e60ffc2e4a29daac6e5,,,,,,,,,,,434.3247,1.3,435.6248,435.6249,436.4221,right,1,0.7963,,436.4222,437.4263,7,14,126,6,1,total,1,images/Ex7.jpg,right,training,hard,2,,,,,
,,,,,63ef938aea545fb9bd19a591,001,52,Male,English,GCSE,2024-03-06_12h17.00.227,CRL1h,2023.2.3,Win32,60.24096386,65e67470ae2fbf2172c317b2,65e85e60ffc2e4a29daac6e5,,,,,,,,,,,437.4269,0.6,438.0267,438.0268,438.9744,left,1,0.9461,,438.9744,439.9783,7,15,127,11,1,total,1,images/Ex4.jpg,left,training,hard,2,,,,,
,,,,,63ef938aea545fb9bd19a591,001,52,Male,English,GCSE,2024-03-06_12h17.00.227,CRL1h,2023.2.3,Win32,60.24096386,65e67470ae2fbf2172c317b2,65e85e60ffc2e4a29daac6e5,,,,,,,,,,,439.9883,1.1,441.079,441.0791,441.6302,left,0,0.5457,,441.6302,442.6301,0,0,0,8,1,total,2,images/Ex1.jpg,right,reversed,hard,2,,,,,
,,,,,63ef938aea545fb9bd19a591,001,52,Male,English,GCSE,2024-03-06_12h17.00.227,CRL1h,2023.2.3,Win32,60.24096386,65e67470ae2fbf2172c317b2,65e85e60ffc2e4a29daac6e5,,,,,,,,,,,442.6308,0.6,443.237,443.237,444.2824,right,0,1.04,,444.2824,445.2822,0,1,1,15,1,total,2,images/Ex8.jpg,left,reversed,hard,2,,,,,
,,,,,63ef938aea545fb9bd19a591,001,52,Male,English,GCSE,2024-03-06_12h17.00.227,CRL1h,2023.2.3,Win32,60.24096386,65e67470ae2fbf2172c317b2,65e85e60ffc2e4a29daac6e5,,,,,,,,,,,445.2828,0.6,445.8829,445.883,446.5503,left,0,0.6624,,446.5504,447.5506,0,2,2,1,1,total,2,images/Ex2.jpg,right,reversed,hard,2,,,,,
,,,,,63ef938aea545fb9bd19a591,001,52,Male,English,GCSE,2024-03-06_12h17.00.227,CRL1h,2023.2.3,Win32,60.24096386,65e67470ae2fbf2172c317b2,65e85e60ffc2e4a29daac6e5,,,,,,,,,,,447.5512,0.7,448.2627,448.2629,450.0547,right,0,1.7904,,450.0548,451.0531,0,3,3,4,1,total,2,images/Ex5.jpg,left,reversed,hard,2,,,,,
,,,,,63ef938aea545fb9bd19a591,001,52,Male,English,GCSE,2024-03-06_12h17.00.227,CRL1h,2023.2.3,Win32,60.24096386,65e67470ae2fbf2172c317b2,65e85e60ffc2e4a29daac6e5,,,,,,,,,,,451.0538,0.7,451.7537,451.7538,452.5345,left,0,0.7785,,452.5345,453.5384,0,4,4,2,1,total,2,images/Ex3.jpg,right,reversed,hard,2,,,,,
,,,,,63ef938aea545fb9bd19a591,001,52,Male,English,GCSE,2024-03-06_12h17.00.227,CRL1h,2023.2.3,Win32,60.24096386,65e67470ae2fbf2172c317b2,65e85e60ffc2e4a29daac6e5,,,,,,,,,,,453.5391,1.2,454.7393,454.7393,455.8124,right,0,1.0712,,455.8124,456.8031,0,5,5,13,1,total,2,images/Ex6.jpg,left,reversed,hard,2,,,,,
,,,,,63ef938aea545fb9bd19a591,001,52,Male,English,GCSE,2024-03-06_12h17.00.227,CRL1h,2023.2.3,Win32,60.24096386,65e67470ae2fbf2172c317b2,65e85e60ffc2e4a29daac6e5,,,,,,,,,,,456.8035,1.2,457.9917,457.9917,459.1935,right,1,1.1963,,459.1936,460.1933,0,6,6,10,1,total,2,images/Ex3.jpg,right,reversed,hard,2,,,,,
,,,,,63ef938aea545fb9bd19a591,001,52,Male,English,GCSE,2024-03-06_12h17.00.227,CRL1h,2023.2.3,Win32,60.24096386,65e67470ae2fbf2172c317b2,65e85e60ffc2e4a29daac6e5,,,,,,,,,,,460.2028,0.8,460.9942,460.9943,462.0287,left,1,1.0291,,462.0288,463.0295,0,7,7,14,1,total,2,images/Ex7.jpg,left,reversed,hard,2,,,,,
,,,,,63ef938aea545fb9bd19a591,001,52,Male,English,GCSE,2024-03-06_12h17.00.227,CRL1h,2023.2.3,Win32,60.24096386,65e67470ae2fbf2172c317b2,65e85e60ffc2e4a29daac6e5,,,,,,,,,,,463.03,1.4,464.4299,464.43,465.5275,left,1,1.096,,465.5275,466.5316,0,8,8,12,1,total,2,images/Ex5.jpg,left,reversed,hard,2,,,,,
,,,,,63ef938aea545fb9bd19a591,001,52,Male,English,GCSE,2024-03-06_12h17.00.227,CRL1h,2023.2.3,Win32,60.24096386,65e67470ae2fbf2172c317b2,65e85e60ffc2e4a29daac6e5,,,,,,,,,,,466.5322,1,467.5325,467.5325,468.6634,right,1,1.1293,,468.6635,469.6673,0,9,9,3,1,total,2,images/Ex4.jpg,right,reversed,hard,2,,,,,
,,,,,63ef938aea545fb9bd19a591,001,52,Male,English,GCSE,2024-03-06_12h17.00.227,CRL1h,2023.2.3,Win32,60.24096386,65e67470ae2fbf2172c317b2,65e85e60ffc2e4a29daac6e5,,,,,,,,,,,469.6679,1.5,471.1683,471.1683,472.4994,right,0,1.3295,,472.4994,473.5034,0,10,10,7,1,total,2,images/Ex8.jpg,left,reversed,hard,2,,,,,
,,,,,63ef938aea545fb9bd19a591,001,52,Male,English,GCSE,2024-03-06_12h17.00.227,CRL1h,2023.2.3,Win32,60.24096386,65e67470ae2fbf2172c317b2,65e85e60ffc2e4a29daac6e5,,,,,,,,,,,473.5041,1.3,474.8046,474.8047,475.8905,right,0,1.0844,,475.8906,476.8893,0,11,11,5,1,total,2,images/Ex6.jpg,left,reversed,hard,2,,,,,
,,,,,63ef938aea545fb9bd19a591,001,52,Male,English,GCSE,2024-03-06_12h17.00.227,CRL1h,2023.2.3,Win32,60.24096386,65e67470ae2fbf2172c317b2,65e85e60ffc2e4a29daac6e5,,,,,,,,,,,476.8898,0.9,477.7899,477.7902,478.7707,right,1,0.9791,,478.7708,479.7706,0,12,12,9,1,total,2,images/Ex2.jpg,right,reversed,hard,2,,,,,
,,,,,63ef938aea545fb9bd19a591,001,52,Male,English,GCSE,2024-03-06_12h17.00.227,CRL1h,2023.2.3,Win32,60.24096386,65e67470ae2fbf2172c317b2,65e85e60ffc2e4a29daac6e5,,,,,,,,,,,479.7711,0.6,480.3588,480.3588,481.6229,left,1,1.2625,,481.6229,482.6271,0,13,13,6,1,total,2,images/Ex7.jpg,left,reversed,hard,2,,,,,
,,,,,63ef938aea545fb9bd19a591,001,52,Male,English,GCSE,2024-03-06_12h17.00.227,CRL1h,2023.2.3,Win32,60.24096386,65e67470ae2fbf2172c317b2,65e85e60ffc2e4a29daac6e5,,,,,,,,,,,482.6277,0.7,483.323,483.3231,484.2455,right,1,0.9175,,484.2456,485.2456,0,14,14,11,1,total,2,images/Ex4.jpg,right,reversed,hard,2,,,,,
,,,,,63ef938aea545fb9bd19a591,001,52,Male,English,GCSE,2024-03-06_12h17.00.227,CRL1h,2023.2.3,Win32,60.24096386,65e67470ae2fbf2172c317b2,65e85e60ffc2e4a29daac6e5,,,,,,,,,,,485.2463,0.8,486.0462,486.0462,487.1938,right,1,1.146,,487.1939,488.1944,0,15,15,0,1,total,2,images/Ex1.jpg,right,reversed,hard,2,,,,,
,,,,,63ef938aea545fb9bd19a591,001,52,Male,English,GCSE,2024-03-06_12h17.00.227,CRL1h,2023.2.3,Win32,60.24096386,65e67470ae2fbf2172c317b2,65e85e60ffc2e4a29daac6e5,,,,,,,,,,,488.2038,1.4,489.5988,489.5989,490.1834,right,1,0.5797,,490.1835,491.1834,1,0,16,1,1,total,2,images/Ex2.jpg,right,reversed,hard,2,,,,,
,,,,,63ef938aea545fb9bd19a591,001,52,Male,English,GCSE,2024-03-06_12h17.00.227,CRL1h,2023.2.3,Win32,60.24096386,65e67470ae2fbf2172c317b2,65e85e60ffc2e4a29daac6e5,,,,,,,,,,,491.184,0.7,491.88,491.88,493.1859,right,0,1.3006,,493.186,494.1985,1,1,17,7,1,total,2,images/Ex8.jpg,left,reversed,hard,2,,,,,
,,,,,63ef938aea545fb9bd19a591,001,52,Male,English,GCSE,2024-03-06_12h17.00.227,CRL1h,2023.2.3,Win32,60.24096386,65e67470ae2fbf2172c317b2,65e85e60ffc2e4a29daac6e5,,,,,,,,,,,494.2083,0.7,494.9028,494.9029,495.7003,right,1,0.7961,,495.7004,496.7008,1,2,18,3,1,total,2,images/Ex4.jpg,right,reversed,hard,2,,,,,
,,,,,63ef938aea545fb9bd19a591,001,52,Male,English,GCSE,2024-03-06_12h17.00.227,CRL1h,2023.2.3,Win32,60.24096386,65e67470ae2fbf2172c317b2,65e85e60ffc2e4a29daac6e5,,,,,,,,,,,496.7012,0.8,497.5051,497.5052,498.419,left,1,0.9124,,498.419,499.423,1,3,19,12,1,total,2,images/Ex5.jpg,left,reversed,hard,2,,,,,
,,,,,63ef938aea545fb9bd19a591,001,52,Male,English,GCSE,2024-03-06_12h17.00.227,CRL1h,2023.2.3,Win32,60.24096386,65e67470ae2fbf2172c317b2,65e85e60ffc2e4a29daac6e5,,,,,,,,,,,499.4235,0.6,500.0356,500.0356,500.9412,right,0,0.9008,,500.9413,501.9414,1,4,20,5,1,total,2,images/Ex6.jpg,left,reversed,hard,2,,,,,
,,,,,63ef938aea545fb9bd19a591,001,52,Male,English,GCSE,2024-03-06_12h17.00.227,CRL1h,2023.2.3,Win32,60.24096386,65e67470ae2fbf2172c317b2,65e85e60ffc2e4a29daac6e5,,,,,,,,,,,501.9421,1,502.9423,502.9423,503.873,right,1,0.9291,,503.873,504.8771,1,5,21,8,1,total,2,images/Ex1.jpg,right,reversed,hard,2,,,,,
,,,,,63ef938aea545fb9bd19a591,001,52,Male,English,GCSE,2024-03-06_12h17.00.227,CRL1h,2023.2.3,Win32,60.24096386,65e67470ae2fbf2172c317b2,65e85e60ffc2e4a29daac6e5,,,,,,,,,,,504.8776,0.7,505.5776,505.5777,506.1285,right,1,0.546,,506.1286,507.1287,1,6,22,0,1,total,2,images/Ex1.jpg,right,reversed,hard,2,,,,,
,,,,,63ef938aea545fb9bd19a591,001,52,Male,English,GCSE,2024-03-06_12h17.00.227,CRL1h,2023.2.3,Win32,60.24096386,65e67470ae2fbf2172c317b2,65e85e60ffc2e4a29daac6e5,,,,,,,,,,,507.1294,0.7,507.8293,507.8293,508.7935,right,0,0.9626,,508.7935,509.7812,1,7,23,14,1,total,2,images/Ex7.jpg,left,reversed,hard,2,,,,,
,,,,,63ef938aea545fb9bd19a591,001,52,Male,English,GCSE,2024-03-06_12h17.00.227,CRL1h,2023.2.3,Win32,60.24096386,65e67470ae2fbf2172c317b2,65e85e60ffc2e4a29daac6e5,,,,,,,,,,,509.7817,0.8,510.5813,510.5814,511.5457,right,1,0.9629,,511.5457,512.5495,1,8,24,2,1,total,2,images/Ex3.jpg,right,reversed,hard,2,,,,,
,,,,,63ef938aea545fb9bd19a591,001,52,Male,English,GCSE,2024-03-06_12h17.00.227,CRL1h,2023.2.3,Win32,60.24096386,65e67470ae2fbf2172c317b2,65e85e60ffc2e4a29daac6e5,,,,,,,,,,,512.5501,0.9,513.4378,513.4378,513.9141,right,1,0.4753,,513.9142,514.9141,1,9,25,10,1,total,2,images/Ex3.jpg,right,reversed,hard,2,,,,,
,,,,,63ef938aea545fb9bd19a591,001,52,Male,English,GCSE,2024-03-06_12h17.00.227,CRL1h,2023.2.3,Win32,60.24096386,65e67470ae2fbf2172c317b2,65e85e60ffc2e4a29daac6e5,,,,,,,,,,,514.9146,0.6,515.5183,515.5184,516.1527,left,1,0.6294,,516.1527,517.153,1,10,26,6,1,total,2,images/Ex7.jpg,left,reversed,hard,2,,,,,
,,,,,63ef938aea545fb9bd19a591,001,52,Male,English,GCSE,2024-03-06_12h17.00.227,CRL1h,2023.2.3,Win32,60.24096386,65e67470ae2fbf2172c317b2,65e85e60ffc2e4a29daac6e5,,,,,,,,,,,517.1536,1.4,518.5417,518.5417,519.0886,right,1,0.5415,,519.0887,520.0889,1,11,27,9,1,total,2,images/Ex2.jpg,right,reversed,hard,2,,,,,
,,,,,63ef938aea545fb9bd19a591,001,52,Male,English,GCSE,2024-03-06_12h17.00.227,CRL1h,2023.2.3,Win32,60.24096386,65e67470ae2fbf2172c317b2,65e85e60ffc2e4a29daac6e5,,,,,,,,,,,520.0895,0.9,520.9893,520.9893,521.8866,left,1,0.8957,,521.8866,522.8863,1,12,28,13,1,total,2,images/Ex6.jpg,left,reversed,hard,2,,,,,
,,,,,63ef938aea545fb9bd19a591,001,52,Male,English,GCSE,2024-03-06_12h17.00.227,CRL1h,2023.2.3,Win32,60.24096386,65e67470ae2fbf2172c317b2,65e85e60ffc2e4a29daac6e5,,,,,,,,,,,522.8869,1.4,524.2751,524.2751,525.2597,right,0,0.9794,,525.2598,526.2598,1,13,29,15,1,total,2,images/Ex8.jpg,left,reversed,hard,2,,,,,
,,,,,63ef938aea545fb9bd19a591,001,52,Male,English,GCSE,2024-03-06_12h17.00.227,CRL1h,2023.2.3,Win32,60.24096386,65e67470ae2fbf2172c317b2,65e85e60ffc2e4a29daac6e5,,,,,,,,,,,526.2605,1.4,527.6564,527.6565,528.6751,right,1,1.0174,,528.6751,529.6791,1,14,30,11,1,total,2,images/Ex4.jpg,right,reversed,hard,2,,,,,
,,,,,63ef938aea545fb9bd19a591,001,52,Male,English,GCSE,2024-03-06_12h17.00.227,CRL1h,2023.2.3,Win32,60.24096386,65e67470ae2fbf2172c317b2,65e85e60ffc2e4a29daac6e5,,,,,,,,,,,529.6798,0.6,530.2796,530.2796,531.2811,left,1,0.9962,,531.2812,532.2813,1,15,31,4,1,total,2,images/Ex5.jpg,left,reversed,hard,2,,,,,
,,,,,63ef938aea545fb9bd19a591,001,52,Male,English,GCSE,2024-03-06_12h17.00.227,CRL1h,2023.2.3,Win32,60.24096386,65e67470ae2fbf2172c317b2,65e85e60ffc2e4a29daac6e5,,,,,,,,,,,532.2817,0.8,533.0816,533.0817,533.8494,right,1,0.7625,,533.8495,534.8496,2,0,32,2,1,total,2,images/Ex3.jpg,right,reversed,hard,2,,,,,
,,,,,63ef938aea545fb9bd19a591,001,52,Male,English,GCSE,2024-03-06_12h17.00.227,CRL1h,2023.2.3,Win32,60.24096386,65e67470ae2fbf2172c317b2,65e85e60ffc2e4a29daac6e5,,,,,,,,,,,534.8502,0.6,535.4501,535.4502,535.9306,right,1,0.4788,,535.9307,536.9349,2,1,33,1,1,total,2,images/Ex2.jpg,right,reversed,hard,2,,,,,
,,,,,63ef938aea545fb9bd19a591,001,52,Male,English,GCSE,2024-03-06_12h17.00.227,CRL1h,2023.2.3,Win32,60.24096386,65e67470ae2fbf2172c317b2,65e85e60ffc2e4a29daac6e5,,,,,,,,,,,536.9355,1.1,538.0353,538.0353,538.9914,right,1,0.9547,,538.9915,539.983,2,2,34,11,1,total,2,images/Ex4.jpg,right,reversed,hard,2,,,,,
,,,,,63ef938aea545fb9bd19a591,001,52,Male,English,GCSE,2024-03-06_12h17.00.227,CRL1h,2023.2.3,Win32,60.24096386,65e67470ae2fbf2172c317b2,65e85e60ffc2e4a29daac6e5,,,,,,,,,,,539.9835,1.2,541.188,541.188,541.8352,left,1,0.6458,,541.8353,542.8391,2,3,35,14,1,total,2,images/Ex7.jpg,left,reversed,hard,2,,,,,
,,,,,63ef938aea545fb9bd19a591,001,52,Male,English,GCSE,2024-03-06_12h17.00.227,CRL1h,2023.2.3,Win32,60.24096386,65e67470ae2fbf2172c317b2,65e85e60ffc2e4a29daac6e5,,,,,,,,,,,542.8398,0.9,543.7397,543.7397,544.3456,left,1,0.6043,,544.3456,545.3533,2,4,36,13,1,total,2,images/Ex6.jpg,left,reversed,hard,2,,,,,
,,,,,63ef938aea545fb9bd19a591,001,52,Male,English,GCSE,2024-03-06_12h17.00.227,CRL1h,2023.2.3,Win32,60.24096386,65e67470ae2fbf2172c317b2,65e85e60ffc2e4a29daac6e5,,,,,,,,,,,545.3537,0.6,545.958,545.9581,546.5935,right,1,0.6338,,546.5935,547.5925,2,5,37,0,1,total,2,images/Ex1.jpg,right,reversed,hard,2,,,,,
,,,,,63ef938aea545fb9bd19a591,001,52,Male,English,GCSE,2024-03-06_12h17.00.227,CRL1h,2023.2.3,Win32,60.24096386,65e67470ae2fbf2172c317b2,65e85e60ffc2e4a29daac6e5,,,,,,,,,,,547.5931,1.4,548.9935,548.9936,549.9117,left,1,0.9128,,549.9117,550.9117,2,6,38,6,1,total,2,images/Ex7.jpg,left,reversed,hard,2,,,,,
,,,,,63ef938aea545fb9bd19a591,001,52,Male,English,GCSE,2024-03-06_12h17.00.227,CRL1h,2023.2.3,Win32,60.24096386,65e67470ae2fbf2172c317b2,65e85e60ffc2e4a29daac6e5,,,,,,,,,,,550.9123,0.5,551.4122,551.4122,552.0966,right,1,0.6791,,552.0966,553.0925,2,7,39,10,1,total,2,images/Ex3.jpg,right,reversed,hard,2,,,,,
,,,,,63ef938aea545fb9bd19a591,001,52,Male,English,GCSE,2024-03-06_12h17.00.227,CRL1h,2023.2.3,Win32,60.24096386,65e67470ae2fbf2172c317b2,65e85e60ffc2e4a29daac6e5,,,,,,,,,,,553.093,1.1,554.1932,554.1933,555.1453,left,1,0.9506,,555.1454,556.149,2,8,40,7,1,total,2,images/Ex8.jpg,left,reversed,hard,2,,,,,
,,,,,63ef938aea545fb9bd19a591,001,52,Male,English,GCSE,2024-03-06_12h17.00.227,CRL1h,2023.2.3,Win32,60.24096386,65e67470ae2fbf2172c317b2,65e85e60ffc2e4a29daac6e5,,,,,,,,,,,556.1497,1.1,557.2499,557.2499,557.7844,right,1,0.5299,,557.7844,558.7799,2,9,41,9,1,total,2,images/Ex2.jpg,right,reversed,hard,2,,,,,
,,,,,63ef938aea545fb9bd19a591,001,52,Male,English,GCSE,2024-03-06_12h17.00.227,CRL1h,2023.2.3,Win32,60.24096386,65e67470ae2fbf2172c317b2,65e85e60ffc2e4a29daac6e5,,,,,,,,,,,558.7805,1.3,560.0809,560.0809,560.7156,right,1,0.6338,,560.7157,561.7034,2,10,42,8,1,total,2,images/Ex1.jpg,right,reversed,hard,2,,,,,
,,,,,63ef938aea545fb9bd19a591,001,52,Male,English,GCSE,2024-03-06_12h17.00.227,CRL1h,2023.2.3,Win32,60.24096386,65e67470ae2fbf2172c317b2,65e85e60ffc2e4a29daac6e5,,,,,,,,,,,561.7042,0.6,562.3037,562.3038,563.278,left,1,0.9724,,563.2781,564.2718,2,11,43,5,1,total,2,images/Ex6.jpg,left,reversed,hard,2,,,,,
,,,,,63ef938aea545fb9bd19a591,001,52,Male,English,GCSE,2024-03-06_12h17.00.227,CRL1h,2023.2.3,Win32,60.24096386,65e67470ae2fbf2172c317b2,65e85e60ffc2e4a29daac6e5,,,,,,,,,,,564.2725,1.3,565.5728,565.5728,566.4703,left,1,0.8958,,566.4703,567.4745,2,12,44,4,1,total,2,images/Ex5.jpg,left,reversed,hard,2,,,,,
,,,,,63ef938aea545fb9bd19a591,001,52,Male,English,GCSE,2024-03-06_12h17.00.227,CRL1h,2023.2.3,Win32,60.24096386,65e67470ae2fbf2172c317b2,65e85e60ffc2e4a29daac6e5,,,,,,,,,,,567.4752,0.9,568.3751,568.3752,569.1263,right,1,0.7459,,569.1264,570.1261,2,13,45,3,1,total,2,images/Ex4.jpg,right,reversed,hard,2,,,,,
,,,,,63ef938aea545fb9bd19a591,001,52,Male,English,GCSE,2024-03-06_12h17.00.227,CRL1h,2023.2.3,Win32,60.24096386,65e67470ae2fbf2172c317b2,65e85e60ffc2e4a29daac6e5,,,,,,,,,,,570.1268,1.1,571.2271,571.2271,572.0456,left,1,0.8126,,572.0456,573.0347,2,14,46,12,1,total,2,images/Ex5.jpg,left,reversed,hard,2,,,,,
,,,,,63ef938aea545fb9bd19a591,001,52,Male,English,GCSE,2024-03-06_12h17.00.227,CRL1h,2023.2.3,Win32,60.24096386,65e67470ae2fbf2172c317b2,65e85e60ffc2e4a29daac6e5,,,,,,,,,,,573.0352,0.8,573.829,573.829,574.6468,right,0,0.8125,,574.647,575.642,2,15,47,15,1,total,2,images/Ex8.jpg,left,reversed,hard,2,,,,,
,,,,,63ef938aea545fb9bd19a591,001,52,Male,English,GCSE,2024-03-06_12h17.00.227,CRL1h,2023.2.3,Win32,60.24096386,65e67470ae2fbf2172c317b2,65e85e60ffc2e4a29daac6e5,,,,,,,,,,,575.6425,0.9,576.531,576.5311,577.3616,left,1,0.8291,,577.3617,578.3657,3,0,48,4,1,total,2,images/Ex5.jpg,left,reversed,hard,2,,,,,
,,,,,63ef938aea545fb9bd19a591,001,52,Male,English,GCSE,2024-03-06_12h17.00.227,CRL1h,2023.2.3,Win32,60.24096386,65e67470ae2fbf2172c317b2,65e85e60ffc2e4a29daac6e5,,,,,,,,,,,578.3664,0.6,578.9662,578.9663,579.5839,right,1,0.6124,,579.584,580.5963,3,1,49,2,1,total,2,images/Ex3.jpg,right,reversed,hard,2,,,,,
,,,,,63ef938aea545fb9bd19a591,001,52,Male,English,GCSE,2024-03-06_12h17.00.227,CRL1h,2023.2.3,Win32,60.24096386,65e67470ae2fbf2172c317b2,65e85e60ffc2e4a29daac6e5,,,,,,,,,,,580.5969,1.3,581.885,581.885,582.6197,right,1,0.7294,,582.6199,583.6197,3,2,50,11,1,total,2,images/Ex4.jpg,right,reversed,hard,2,,,,,
,,,,,63ef938aea545fb9bd19a591,001,52,Male,English,GCSE,2024-03-06_12h17.00.227,CRL1h,2023.2.3,Win32,60.24096386,65e67470ae2fbf2172c317b2,65e85e60ffc2e4a29daac6e5,,,,,,,,,,,583.6204,0.8,584.4203,584.4203,584.9047,right,0,0.479,,584.9049,585.905,3,3,51,5,1,total,2,images/Ex6.jpg,left,reversed,hard,2,,,,,
,,,,,63ef938aea545fb9bd19a591,001,52,Male,English,GCSE,2024-03-06_12h17.00.227,CRL1h,2023.2.3,Win32,60.24096386,65e67470ae2fbf2172c317b2,65e85e60ffc2e4a29daac6e5,,,,,,,,,,,585.9056,1.2,587.1056,587.1057,587.8799,right,1,0.7728,,587.8799,588.8736,3,4,52,9,1,total,2,images/Ex2.jpg,right,reversed,hard,2,,,,,
,,,,,63ef938aea545fb9bd19a591,001,52,Male,English,GCSE,2024-03-06_12h17.00.227,CRL1h,2023.2.3,Win32,60.24096386,65e67470ae2fbf2172c317b2,65e85e60ffc2e4a29daac6e5,,,,,,,,,,,588.8744,0.6,589.4706,589.4706,590.0087,right,1,0.5369,,590.0087,591.0086,3,5,53,10,1,total,2,images/Ex3.jpg,right,reversed,hard,2,,,,,
,,,,,63ef938aea545fb9bd19a591,001,52,Male,English,GCSE,2024-03-06_12h17.00.227,CRL1h,2023.2.3,Win32,60.24096386,65e67470ae2fbf2172c317b2,65e85e60ffc2e4a29daac6e5,,,,,,,,,,,591.0092,1.5,592.5096,592.5097,593.2402,left,1,0.7289,,593.2402,594.2446,3,6,54,15,1,total,2,images/Ex8.jpg,left,reversed,hard,2,,,,,
,,,,,63ef938aea545fb9bd19a591,001,52,Male,English,GCSE,2024-03-06_12h17.00.227,CRL1h,2023.2.3,Win32,60.24096386,65e67470ae2fbf2172c317b2,65e85e60ffc2e4a29daac6e5,,,,,,,,,,,594.2452,1.3,595.5454,595.5454,596.3928,right,1,0.8458,,596.3929,597.3967,3,7,55,3,1,total,2,images/Ex4.jpg,right,reversed,hard,2,,,,,
,,,,,63ef938aea545fb9bd19a591,001,52,Male,English,GCSE,2024-03-06_12h17.00.227,CRL1h,2023.2.3,Win32,60.24096386,65e67470ae2fbf2172c317b2,65e85e60ffc2e4a29daac6e5,,,,,,,,,,,597.3973,1.2,598.5877,598.5878,599.2782,left,1,0.6893,,599.2782,600.2823,3,8,56,12,1,total,2,images/Ex5.jpg,left,reversed,hard,2,,,,,
,,,,,63ef938aea545fb9bd19a591,001,52,Male,English,GCSE,2024-03-06_12h17.00.227,CRL1h,2023.2.3,Win32,60.24096386,65e67470ae2fbf2172c317b2,65e85e60ffc2e4a29daac6e5,,,,,,,,,,,600.2829,0.7,600.9829,600.9829,601.8839,right,0,0.8961,,601.8839,602.8719,3,9,57,6,1,total,2,images/Ex7.jpg,left,reversed,hard,2,,,,,
,,,,,63ef938aea545fb9bd19a591,001,52,Male,English,GCSE,2024-03-06_12h17.00.227,CRL1h,2023.2.3,Win32,60.24096386,65e67470ae2fbf2172c317b2,65e85e60ffc2e4a29daac6e5,,,,,,,,,,,602.8725,1.4,604.2688,604.2688,605.4996,left,1,1.2292,,605.4996,606.5035,3,10,58,13,1,total,2,images/Ex6.jpg,left,reversed,hard,2,,,,,
,,,,,63ef938aea545fb9bd19a591,001,52,Male,English,GCSE,2024-03-06_12h17.00.227,CRL1h,2023.2.3,Win32,60.24096386,65e67470ae2fbf2172c317b2,65e85e60ffc2e4a29daac6e5,,,,,,,,,,,606.5042,1,607.5046,607.5047,608.6685,left,1,1.1623,,608.6685,609.6561,3,11,59,14,1,total,2,images/Ex7.jpg,left,reversed,hard,2,,,,,
,,,,,63ef938aea545fb9bd19a591,001,52,Male,English,GCSE,2024-03-06_12h17.00.227,CRL1h,2023.2.3,Win32,60.24096386,65e67470ae2fbf2172c317b2,65e85e60ffc2e4a29daac6e5,,,,,,,,,,,609.6566,1,610.6566,610.6568,611.6876,right,0,1.0294,,611.6876,612.6917,3,12,60,7,1,total,2,images/Ex8.jpg,left,reversed,hard,2,,,,,
,,,,,63ef938aea545fb9bd19a591,001,52,Male,English,GCSE,2024-03-06_12h17.00.227,CRL1h,2023.2.3,Win32,60.24096386,65e67470ae2fbf2172c317b2,65e85e60ffc2e4a29daac6e5,,,,,,,,,,,612.6922,0.9,613.5923,613.5923,614.5232,right,1,0.9294,,614.5232,615.5272,3,13,61,1,1,total,2,images/Ex2.jpg,right,reversed,hard,2,,,,,
,,,,,63ef938aea545fb9bd19a591,001,52,Male,English,GCSE,2024-03-06_12h17.00.227,CRL1h,2023.2.3,Win32,60.24096386,65e67470ae2fbf2172c317b2,65e85e60ffc2e4a29daac6e5,,,,,,,,,,,615.5278,0.6,616.1236,616.1237,616.7785,right,1,0.6499,,616.7786,617.7788,3,14,62,8,1,total,2,images/Ex1.jpg,right,reversed,hard,2,,,,,
,,,,,63ef938aea545fb9bd19a591,001,52,Male,English,GCSE,2024-03-06_12h17.00.227,CRL1h,2023.2.3,Win32,60.24096386,65e67470ae2fbf2172c317b2,65e85e60ffc2e4a29daac6e5,,,,,,,,,,,617.7795,0.8,618.5793,618.5794,619.0301,right,1,0.4467,,619.0303,620.0426,3,15,63,0,1,total,2,images/Ex1.jpg,right,reversed,hard,2,,,,,
,,,,,63ef938aea545fb9bd19a591,001,52,Male,English,GCSE,2024-03-06_12h17.00.227,CRL1h,2023.2.3,Win32,60.24096386,65e67470ae2fbf2172c317b2,65e85e60ffc2e4a29daac6e5,,,,,,620.0436,626.9358,space,6.8725,,626.9498,0.9,627.8485,627.8485,629.1378,left,1,1.2874,,629.1379,630.138,0,0,0,11,1,partial,1,images/Ex12.jpg,left,training,hard,2,,,,,
,,,,,63ef938aea545fb9bd19a591,001,52,Male,English,GCSE,2024-03-06_12h17.00.227,CRL1h,2023.2.3,Win32,60.24096386,65e67470ae2fbf2172c317b2,65e85e60ffc2e4a29daac6e5,,,,,,,,,,,630.1387,0.7,630.8507,630.8508,631.9899,right,0,1.1298,,631.99,632.9901,0,1,1,0,1,partial,1,images/Ex9.jpg,left,training,hard,2,,,,,
,,,,,63ef938aea545fb9bd19a591,001,52,Male,English,GCSE,2024-03-06_12h17.00.227,CRL1h,2023.2.3,Win32,60.24096386,65e67470ae2fbf2172c317b2,65e85e60ffc2e4a29daac6e5,,,,,,,,,,,632.999,0.5,633.4905,633.4906,634.6052,right,1,1.1131,,634.6052,635.6088,0,2,2,13,1,partial,1,images/Ex14.jpg,right,training,hard,2,,,,,
,,,,,63ef938aea545fb9bd19a591,001,52,Male,English,GCSE,2024-03-06_12h17.00.227,CRL1h,2023.2.3,Win32,60.24096386,65e67470ae2fbf2172c317b2,65e85e60ffc2e4a29daac6e5,,,,,,,,,,,635.6093,0.8,636.4095,636.4095,637.2714,right,0,0.8604,,637.2715,638.2608,0,3,3,9,1,partial,1,images/Ex10.jpg,left,training,hard,2,,,,,
,,,,,63ef938aea545fb9bd19a591,001,52,Male,English,GCSE,2024-03-06_12h17.00.227,CRL1h,2023.2.3,Win32,60.24096386,65e67470ae2fbf2172c317b2,65e85e60ffc2e4a29daac6e5,,,,,,,,,,,638.2614,0.5,638.7611,638.7612,639.5622,right,1,0.7959,,639.5624,640.5627,0,4,4,5,1,partial,1,images/Ex14.jpg,right,training,hard,2,,,,,
,,,,,63ef938aea545fb9bd19a591,001,52,Male,English,GCSE,2024-03-06_12h17.00.227,CRL1h,2023.2.3,Win32,60.24096386,65e67470ae2fbf2172c317b2,65e85e60ffc2e4a29daac6e5,,,,,,,,,,,640.5633,1.4,641.9636,641.9636,642.8278,left,1,0.8625,,642.8278,643.8317,0,5,5,3,1,partial,1,images/Ex12.jpg,left,training,hard,2,,,,,
,,,,,63ef938aea545fb9bd19a591,001,52,Male,English,GCSE,2024-03-06_12h17.00.227,CRL1h,2023.2.3,Win32,60.24096386,65e67470ae2fbf2172c317b2,65e85e60ffc2e4a29daac6e5,,,,,,,,,,,643.8323,1.1,644.9325,644.9326,645.8299,left,1,0.8958,,645.83,646.8296,0,6,6,8,1,partial,1,images/Ex9.jpg,left,training,hard,2,,,,,
,,,,,63ef938aea545fb9bd19a591,001,52,Male,English,GCSE,2024-03-06_12h17.00.227,CRL1h,2023.2.3,Win32,60.24096386,65e67470ae2fbf2172c317b2,65e85e60ffc2e4a29daac6e5,,,,,,,,,,,646.83,0.5,647.3216,647.3216,648.4693,left,1,1.1422,,648.4695,649.4693,0,7,7,1,1,partial,1,images/Ex10.jpg,left,training,hard,2,,,,,
,,,,,63ef938aea545fb9bd19a591,001,52,Male,English,GCSE,2024-03-06_12h17.00.227,CRL1h,2023.2.3,Win32,60.24096386,65e67470ae2fbf2172c317b2,65e85e60ffc2e4a29daac6e5,,,,,,,,,,,649.4699,1.3,650.7703,650.7703,652.0732,right,1,1.3015,,652.0733,653.072,0,8,8,12,1,partial,1,images/Ex13.jpg,right,training,hard,2,,,,,
,,,,,63ef938aea545fb9bd19a591,001,52,Male,English,GCSE,2024-03-06_12h17.00.227,CRL1h,2023.2.3,Win32,60.24096386,65e67470ae2fbf2172c317b2,65e85e60ffc2e4a29daac6e5,,,,,,,,,,,653.0727,1.3,654.3729,654.373,655.6207,right,1,1.2461,,655.6208,656.625,0,9,9,14,1,partial,1,images/Ex15.jpg,right,training,hard,2,,,,,
,,,,,63ef938aea545fb9bd19a591,001,52,Male,English,GCSE,2024-03-06_12h17.00.227,CRL1h,2023.2.3,Win32,60.24096386,65e67470ae2fbf2172c317b2,65e85e60ffc2e4a29daac6e5,,,,,,,,,,,656.6257,1.4,658.0257,658.0257,658.8271,left,1,0.7972,,658.8273,659.827,0,10,10,2,1,partial,1,images/Ex11.jpg,left,training,hard,2,,,,,
,,,,,63ef938aea545fb9bd19a591,001,52,Male,English,GCSE,2024-03-06_12h17.00.227,CRL1h,2023.2.3,Win32,60.24096386,65e67470ae2fbf2172c317b2,65e85e60ffc2e4a29daac6e5,,,,,,,,,,,659.828,1.2,661.028,661.0281,662.259,right,1,1.2292,,662.2591,663.263,0,11,11,7,1,partial,1,images/Ex16.jpg,right,training,hard,2,,,,,
,,,,,63ef938aea545fb9bd19a591,001,52,Male,English,GCSE,2024-03-06_12h17.00.227,CRL1h,2023.2.3,Win32,60.24096386,65e67470ae2fbf2172c317b2,65e85e60ffc2e4a29daac6e5,,,,,,,,,,,663.2725,1.3,664.5641,664.5642,665.699,right,0,1.1295,,665.6991,666.699,0,12,12,10,1,partial,1,images/Ex11.jpg,left,training,hard,2,,,,,
,,,,,63ef938aea545fb9bd19a591,001,52,Male,English,GCSE,2024-03-06_12h17.00.227,CRL1h,2023.2.3,Win32,60.24096386,65e67470ae2fbf2172c317b2,65e85e60ffc2e4a29daac6e5,,,,,,,,,,,666.6995,0.6,667.2993,667.2994,668.1173,right,1,0.815,,668.1173,669.107,0,13,13,15,1,partial,1,images/Ex16.jpg,right,training,hard,2,,,,,
,,,,,63ef938aea545fb9bd19a591,001,52,Male,English,GCSE,2024-03-06_12h17.00.227,CRL1h,2023.2.3,Win32,60.24096386,65e67470ae2fbf2172c317b2,65e85e60ffc2e4a29daac6e5,,,,,,,,,,,669.1075,0.9,670.0014,670.0015,670.9252,left,0,0.922,,670.9252,671.9196,0,14,14,6,1,partial,1,images/Ex15.jpg,right,training,hard,2,,,,,
,,,,,63ef938aea545fb9bd19a591,001,52,Male,English,GCSE,2024-03-06_12h17.00.227,CRL1h,2023.2.3,Win32,60.24096386,65e67470ae2fbf2172c317b2,65e85e60ffc2e4a29daac6e5,,,,,,,,,,,671.9202,1.3,673.2326,673.2327,673.7714,right,1,0.533,,673.7715,674.7716,0,15,15,4,1,partial,1,images/Ex13.jpg,right,training,hard,2,,,,,
,,,,,63ef938aea545fb9bd19a591,001,52,Male,English,GCSE,2024-03-06_12h17.00.227,CRL1h,2023.2.3,Win32,60.24096386,65e67470ae2fbf2172c317b2,65e85e60ffc2e4a29daac6e5,,,,,,,,,,,674.7721,1.4,676.1726,676.1726,676.8404,right,1,0.6629,,676.8405,677.8405,1,0,16,4,1,partial,1,images/Ex13.jpg,right,training,hard,2,,,,,
,,,,,63ef938aea545fb9bd19a591,001,52,Male,English,GCSE,2024-03-06_12h17.00.227,CRL1h,2023.2.3,Win32,60.24096386,65e67470ae2fbf2172c317b2,65e85e60ffc2e4a29daac6e5,,,,,,,,,,,677.8411,0.9,678.7414,678.7415,679.8765,right,1,1.1338,,679.8765,680.8762,1,1,17,15,1,partial,1,images/Ex16.jpg,right,training,hard,2,,,,,
,,,,,63ef938aea545fb9bd19a591,001,52,Male,English,GCSE,2024-03-06_12h17.00.227,CRL1h,2023.2.3,Win32,60.24096386,65e67470ae2fbf2172c317b2,65e85e60ffc2e4a29daac6e5,,,,,,,,,,,680.8767,0.8,681.6768,681.6768,682.5451,left,1,0.8585,,682.5452,683.5449,1,2,18,9,1,partial,1,images/Ex10.jpg,left,training,hard,2,,,,,
,,,,,63ef938aea545fb9bd19a591,001,52,Male,English,GCSE,2024-03-06_12h17.00.227,CRL1h,2023.2.3,Win32,60.24096386,65e67470ae2fbf2172c317b2,65e85e60ffc2e4a29daac6e5,,,,,,,,,,,683.5454,1.4,684.946,684.946,685.7805,left,0,0.8285,,685.7805,686.7807,1,3,19,12,1,partial,1,images/Ex13.jpg,right,training,hard,2,,,,,
,,,,,63ef938aea545fb9bd19a591,001,52,Male,English,GCSE,2024-03-06_12h17.00.227,CRL1h,2023.2.3,Win32,60.24096386,65e67470ae2fbf2172c317b2,65e85e60ffc2e4a29daac6e5,,,,,,,,,,,686.7812,0.6,687.3815,687.3816,688.1988,left,1,0.8081,,688.1988,689.1991,1,4,20,0,1,partial,1,images/Ex9.jpg,left,training,hard,2,,,,,
,,,,,63ef938aea545fb9bd19a591,001,52,Male,English,GCSE,2024-03-06_12h17.00.227,CRL1h,2023.2.3,Win32,60.24096386,65e67470ae2fbf2172c317b2,65e85e60ffc2e4a29daac6e5,,,,,,,,,,,689.1996,0.7,689.8996,689.8996,690.7674,left,0,0.8644,,690.7675,691.7678,1,5,21,6,1,partial,1,images/Ex15.jpg,right,training,hard,2,,,,,
,,,,,63ef938aea545fb9bd19a591,001,52,Male,English,GCSE,2024-03-06_12h17.00.227,CRL1h,2023.2.3,Win32,60.24096386,65e67470ae2fbf2172c317b2,65e85e60ffc2e4a29daac6e5,,,,,,,,,,,691.7683,1,692.7684,692.7685,693.6713,right,0,0.9013,,693.6713,694.67,1,6,22,3,1,partial,1,images/Ex12.jpg,left,training,hard,2,,,,,
,,,,,63ef938aea545fb9bd19a591,001,52,Male,English,GCSE,2024-03-06_12h17.00.227,CRL1h,2023.2.3,Win32,60.24096386,65e67470ae2fbf2172c317b2,65e85e60ffc2e4a29daac6e5,,,,,,,,,,,694.6706,0.5,695.1827,695.1829,696.2347,left,1,1.0504,,696.2348,697.2386,1,7,23,2,1,partial,1,images/Ex11.jpg,left,training,hard,2,,,,,
,,,,,63ef938aea545fb9bd19a591,001,52,Male,English,GCSE,2024-03-06_12h17.00.227,CRL1h,2023.2.3,Win32,60.24096386,65e67470ae2fbf2172c317b2,65e85e60ffc2e4a29daac6e5,,,,,,,,,,,697.2476,1,698.2393,698.2394,698.8619,left,0,0.6209,,698.862,699.8533,1,8,24,14,1,partial,1,images/Ex15.jpg,right,training,hard,2,,,,,
,,,,,63ef938aea545fb9bd19a591,001,52,Male,English,GCSE,2024-03-06_12h17.00.227,CRL1h,2023.2.3,Win32,60.24096386,65e67470ae2fbf2172c317b2,65e85e60ffc2e4a29daac6e5,,,,,,,,,,,699.854,1,700.8579,700.858,701.876,left,1,1.0128,,701.8761,702.8762,1,9,25,8,1,partial,1,images/Ex9.jpg,left,training,hard,2,,,,,
,,,,,63ef938aea545fb9bd19a591,001,52,Male,English,GCSE,2024-03-06_12h17.00.227,CRL1h,2023.2.3,Win32,60.24096386,65e67470ae2fbf2172c317b2,65e85e60ffc2e4a29daac6e5,,,,,,,,,,,702.8768,0.6,703.4766,703.4767,704.5614,left,1,1.0812,,704.5614,705.5548,1,10,26,10,1,partial,1,images/Ex11.jpg,left,training,hard,2,,,,,
,,,,,63ef938aea545fb9bd19a591,001,52,Male,English,GCSE,2024-03-06_12h17.00.227,CRL1h,2023.2.3,Win32,60.24096386,65e67470ae2fbf2172c317b2,65e85e60ffc2e4a29daac6e5,,,,,,,,,,,705.5555,1,706.5456,706.5456,707.3431,right,0,0.7959,,707.3432,708.347,1,11,27,1,1,partial,1,images/Ex10.jpg,left,training,hard,2,,,,,
,,,,,63ef938aea545fb9bd19a591,001,52,Male,English,GCSE,2024-03-06_12h17.00.227,CRL1h,2023.2.3,Win32,60.24096386,65e67470ae2fbf2172c317b2,65e85e60ffc2e4a29daac6e5,,,,,,,,,,,708.3477,0.6,708.9429,708.943,709.7449,right,1,0.8005,,709.745,710.7487,1,12,28,5,1,partial,1,images/Ex14.jpg,right,training,hard,2,,,,,
,,,,,63ef938aea545fb9bd19a591,001,52,Male,English,GCSE,2024-03-06_12h17.00.227,CRL1h,2023.2.3,Win32,60.24096386,65e67470ae2fbf2172c317b2,65e85e60ffc2e4a29daac6e5,,,,,,,,,,,710.7493,1.1,711.8496,711.8496,712.5558,left,1,0.7047,,712.5559,713.551,1,13,29,11,1,partial,1,images/Ex12.jpg,left,training,hard,2,,,,,
,,,,,63ef938aea545fb9bd19a591,001,52,Male,English,GCSE,2024-03-06_12h17.00.227,CRL1h,2023.2.3,Win32,60.24096386,65e67470ae2fbf2172c317b2,65e85e60ffc2e4a29daac6e5,,,,,,,,,,,713.5517,1.2,714.7517,714.7518,715.4657,right,1,0.7126,,715.4658,716.4697,1,14,30,7,1,partial,1,images/Ex16.jpg,right,training,hard,2,,,,,
,,,,,63ef938aea545fb9bd19a591,001,52,Male,English,GCSE,2024-03-06_12h17.00.227,CRL1h,2023.2.3,Win32,60.24096386,65e67470ae2fbf2172c317b2,65e85e60ffc2e4a29daac6e5,,,,,,,,,,,716.4704,1.2,717.6834,717.6834,718.5681,right,1,0.8834,,718.5682,719.572,1,15,31,13,1,partial,1,images/Ex14.jpg,right,training,hard,2,,,,,
,,,,,63ef938aea545fb9bd19a591,001,52,Male,English,GCSE,2024-03-06_12h17.00.227,CRL1h,2023.2.3,Win32,60.24096386,65e67470ae2fbf2172c317b2,65e85e60ffc2e4a29daac6e5,,,,,,,,,,,719.5727,1.4,720.9731,720.9731,721.5535,right,0,0.5786,,721.5535,722.5576,2,0,32,1,1,partial,1,images/Ex10.jpg,left,training,hard,2,,,,,
,,,,,63ef938aea545fb9bd19a591,001,52,Male,English,GCSE,2024-03-06_12h17.00.227,CRL1h,2023.2.3,Win32,60.24096386,65e67470ae2fbf2172c317b2,65e85e60ffc2e4a29daac6e5,,,,,,,,,,,722.5582,0.9,723.4583,723.4584,724.0055,right,1,0.5459,,724.0056,725.0095,2,1,33,14,1,partial,1,images/Ex15.jpg,right,training,hard,2,,,,,
,,,,,63ef938aea545fb9bd19a591,001,52,Male,English,GCSE,2024-03-06_12h17.00.227,CRL1h,2023.2.3,Win32,60.24096386,65e67470ae2fbf2172c317b2,65e85e60ffc2e4a29daac6e5,,,,,,,,,,,725.0102,0.9,725.9058,725.9059,726.3777,right,1,0.4686,,726.3778,727.3675,2,2,34,13,1,partial,1,images/Ex14.jpg,right,training,hard,2,,,,,
,,,,,63ef938aea545fb9bd19a591,001,52,Male,English,GCSE,2024-03-06_12h17.00.227,CRL1h,2023.2.3,Win32,60.24096386,65e67470ae2fbf2172c317b2,65e85e60ffc2e4a29daac6e5,,,,,,,,,,,727.368,1.3,728.6623,728.6623,729.3361,left,1,0.6723,,729.3362,730.3368,2,3,35,11,1,partial,1,images/Ex12.jpg,left,training,hard,2,,,,,
,,,,,63ef938aea545fb9bd19a591,001,52,Male,English,GCSE,2024-03-06_12h17.00.227,CRL1h,2023.2.3,Win32,60.24096386,65e67470ae2fbf2172c317b2,65e85e60ffc2e4a29daac6e5,,,,,,,,,,,730.3374,1.4,731.7314,731.7315,733.2622,left,1,1.5293,,733.2623,734.2664,2,4,36,0,1,partial,1,images/Ex9.jpg,left,training,hard,2,,,,,
,,,,,63ef938aea545fb9bd19a591,001,52,Male,English,GCSE,2024-03-06_12h17.00.227,CRL1h,2023.2.3,Win32,60.24096386,65e67470ae2fbf2172c317b2,65e85e60ffc2e4a29daac6e5,,,,,,,,,,,734.2672,0.9,735.1622,735.1622,735.8146,right,0,0.651,,735.8147,736.8142,2,5,37,10,1,partial,1,images/Ex11.jpg,left,training,hard,2,,,,,
,,,,,63ef938aea545fb9bd19a591,001,52,Male,English,GCSE,2024-03-06_12h17.00.227,CRL1h,2023.2.3,Win32,60.24096386,65e67470ae2fbf2172c317b2,65e85e60ffc2e4a29daac6e5,,,,,,,,,,,736.8147,0.7,737.5189,737.519,738.3998,right,1,0.8793,,738.3998,739.4038,2,6,38,6,1,partial,1,images/Ex15.jpg,right,training,hard,2,,,,,
,,,,,63ef938aea545fb9bd19a591,001,52,Male,English,GCSE,2024-03-06_12h17.00.227,CRL1h,2023.2.3,Win32,60.24096386,65e67470ae2fbf2172c317b2,65e85e60ffc2e4a29daac6e5,,,,,,,,,,,739.4046,1.2,740.6048,740.6049,741.3353,right,1,0.7289,,741.3353,742.3391,2,7,39,15,1,partial,1,images/Ex16.jpg,right,training,hard,2,,,,,
,,,,,63ef938aea545fb9bd19a591,001,52,Male,English,GCSE,2024-03-06_12h17.00.227,CRL1h,2023.2.3,Win32,60.24096386,65e67470ae2fbf2172c317b2,65e85e60ffc2e4a29daac6e5,,,,,,,,,,,742.3399,1.3,743.6402,743.6403,744.1871,right,1,0.5456,,744.1871,745.1748,2,8,40,7,1,partial,1,images/Ex16.jpg,right,training,hard,2,,,,,
,,,,,63ef938aea545fb9bd19a591,001,52,Male,English,GCSE,2024-03-06_12h17.00.227,CRL1h,2023.2.3,Win32,60.24096386,65e67470ae2fbf2172c317b2,65e85e60ffc2e4a29daac6e5,,,,,,,,,,,745.1756,1.2,746.3755,746.3756,747.2396,left,0,0.8624,,747.2396,748.2312,2,9,41,4,1,partial,1,images/Ex13.jpg,right,training,hard,2,,,,,
,,,,,63ef938aea545fb9bd19a591,001,52,Male,English,GCSE,2024-03-06_12h17.00.227,CRL1h,2023.2.3,Win32,60.24096386,65e67470ae2fbf2172c317b2,65e85e60ffc2e4a29daac6e5,,,,,,,,,,,748.2317,1,749.2278,749.2278,750.3588,left,1,1.1294,,750.3588,751.3626,2,10,42,9,1,partial,1,images/Ex10.jpg,left,training,hard,2,,,,,
,,,,,63ef938aea545fb9bd19a591,001,52,Male,English,GCSE,2024-03-06_12h17.00.227,CRL1h,2023.2.3,Win32,60.24096386,65e67470ae2fbf2172c317b2,65e85e60ffc2e4a29daac6e5,,,,,,,,,,,751.3633,0.8,752.159,752.1591,752.8651,right,1,0.7044,,752.8651,753.8647,2,11,43,5,1,partial,1,images/Ex14.jpg,right,training,hard,2,,,,,
,,,,,63ef938aea545fb9bd19a591,001,52,Male,English,GCSE,2024-03-06_12h17.00.227,CRL1h,2023.2.3,Win32,60.24096386,65e67470ae2fbf2172c317b2,65e85e60ffc2e4a29daac6e5,,,,,,,,,,,753.8653,0.6,754.465,754.465,755.2661,right,0,0.7977,,755.2662,756.2664,2,12,44,2,1,partial,1,images/Ex11.jpg,left,training,hard,2,,,,,
,,,,,63ef938aea545fb9bd19a591,001,52,Male,English,GCSE,2024-03-06_12h17.00.227,CRL1h,2023.2.3,Win32,60.24096386,65e67470ae2fbf2172c317b2,65e85e60ffc2e4a29daac6e5,,,,,,,,,,,756.2671,0.9,757.167,757.1671,758.1478,left,0,0.9793,,758.1478,759.1519,2,13,45,12,1,partial,1,images/Ex13.jpg,right,training,hard,2,,,,,
,,,,,63ef938aea545fb9bd19a591,001,52,Male,English,GCSE,2024-03-06_12h17.00.227,CRL1h,2023.2.3,Win32,60.24096386,65e67470ae2fbf2172c317b2,65e85e60ffc2e4a29daac6e5,,,,,,,,,,,759.1525,0.6,759.7524,759.7526,760.7831,right,0,1.0292,,760.7831,761.775,2,14,46,3,1,partial,1,images/Ex12.jpg,left,training,hard,2,,,,,
,,,,,63ef938aea545fb9bd19a591,001,52,Male,English,GCSE,2024-03-06_12h17.00.227,CRL1h,2023.2.3,Win32,60.24096386,65e67470ae2fbf2172c317b2,65e85e60ffc2e4a29daac6e5,,,,,,,,,,,761.7755,0.6,762.3667,762.3667,763.2517,left,1,0.8837,,763.2518,764.2557,2,15,47,8,1,partial,1,images/Ex9.jpg,left,training,hard,2,,,,,
,,,,,63ef938aea545fb9bd19a591,001,52,Male,English,GCSE,2024-03-06_12h17.00.227,CRL1h,2023.2.3,Win32,60.24096386,65e67470ae2fbf2172c317b2,65e85e60ffc2e4a29daac6e5,,,,,,,,,,,764.2563,1.2,765.4566,765.4567,766.5083,left,0,1.0463,,766.5084,767.5082,3,0,48,4,1,partial,1,images/Ex13.jpg,right,training,hard,2,,,,,
,,,,,63ef938aea545fb9bd19a591,001,52,Male,English,GCSE,2024-03-06_12h17.00.227,CRL1h,2023.2.3,Win32,60.24096386,65e67470ae2fbf2172c317b2,65e85e60ffc2e4a29daac6e5,,,,,,,,,,,767.5088,0.8,768.3087,768.3087,769.265,left,1,0.9545,,769.2651,770.2606,3,1,49,0,1,partial,1,images/Ex9.jpg,left,training,hard,2,,,,,
,,,,,63ef938aea545fb9bd19a591,001,52,Male,English,GCSE,2024-03-06_12h17.00.227,CRL1h,2023.2.3,Win32,60.24096386,65e67470ae2fbf2172c317b2,65e85e60ffc2e4a29daac6e5,,,,,,,,,,,770.2612,1.1,771.3542,771.3542,772.3753,left,1,1.0197,,772.3753,773.3667,3,2,50,3,1,partial,1,images/Ex12.jpg,left,training,hard,2,,,,,
,,,,,63ef938aea545fb9bd19a591,001,52,Male,English,GCSE,2024-03-06_12h17.00.227,CRL1h,2023.2.3,Win32,60.24096386,65e67470ae2fbf2172c317b2,65e85e60ffc2e4a29daac6e5,,,,,,,,,,,773.3672,0.7,774.0631,774.0632,774.8644,right,0,0.7958,,774.8646,775.8647,3,3,51,10,1,partial,1,images/Ex11.jpg,left,training,hard,2,,,,,
,,,,,63ef938aea545fb9bd19a591,001,52,Male,English,GCSE,2024-03-06_12h17.00.227,CRL1h,2023.2.3,Win32,60.24096386,65e67470ae2fbf2172c317b2,65e85e60ffc2e4a29daac6e5,,,,,,,,,,,775.8654,0.6,776.4717,776.4718,777.7839,right,1,1.3107,,777.784,778.7834,3,4,52,5,1,partial,1,images/Ex14.jpg,right,training,hard,2,,,,,
,,,,,63ef938aea545fb9bd19a591,001,52,Male,English,GCSE,2024-03-06_12h17.00.227,CRL1h,2023.2.3,Win32,60.24096386,65e67470ae2fbf2172c317b2,65e85e60ffc2e4a29daac6e5,,,,,,,,,,,778.7843,0.5,779.2794,779.2794,780.1147,right,1,0.8338,,780.1147,781.1184,3,5,53,6,1,partial,1,images/Ex15.jpg,right,training,hard,2,,,,,
,,,,,63ef938aea545fb9bd19a591,001,52,Male,English,GCSE,2024-03-06_12h17.00.227,CRL1h,2023.2.3,Win32,60.24096386,65e67470ae2fbf2172c317b2,65e85e60ffc2e4a29daac6e5,,,,,,,,,,,781.1191,1,782.1192,782.1192,782.6868,left,1,0.5624,,782.6868,783.6766,3,6,54,1,1,partial,1,images/Ex10.jpg,left,training,hard,2,,,,,
,,,,,63ef938aea545fb9bd19a591,001,52,Male,English,GCSE,2024-03-06_12h17.00.227,CRL1h,2023.2.3,Win32,60.24096386,65e67470ae2fbf2172c317b2,65e85e60ffc2e4a29daac6e5,,,,,,,,,,,783.6771,0.6,784.2666,784.2666,785.3555,right,1,1.084,,785.3555,786.3558,3,7,55,12,1,partial,1,images/Ex13.jpg,right,training,hard,2,,,,,
,,,,,63ef938aea545fb9bd19a591,001,52,Male,English,GCSE,2024-03-06_12h17.00.227,CRL1h,2023.2.3,Win32,60.24096386,65e67470ae2fbf2172c317b2,65e85e60ffc2e4a29daac6e5,,,,,,,,,,,786.3563,1,787.3564,787.3565,788.1412,right,0,0.7806,,788.1412,789.129,3,8,56,2,1,partial,1,images/Ex11.jpg,left,training,hard,2,,,,,
,,,,,63ef938aea545fb9bd19a591,001,52,Male,English,GCSE,2024-03-06_12h17.00.227,CRL1h,2023.2.3,Win32,60.24096386,65e67470ae2fbf2172c317b2,65e85e60ffc2e4a29daac6e5,,,,,,,,,,,789.1295,0.6,789.7249,789.7249,790.7059,left,1,0.9797,,790.706,791.7097,3,9,57,9,1,partial,1,images/Ex10.jpg,left,training,hard,2,,,,,
,,,,,63ef938aea545fb9bd19a591,001,52,Male,English,GCSE,2024-03-06_12h17.00.227,CRL1h,2023.2.3,Win32,60.24096386,65e67470ae2fbf2172c317b2,65e85e60ffc2e4a29daac6e5,,,,,,,,,,,791.7104,1.1,792.823,792.823,793.5247,right,1,0.7003,,793.5247,794.5285,3,10,58,15,1,partial,1,images/Ex16.jpg,right,training,hard,2,,,,,
,,,,,63ef938aea545fb9bd19a591,001,52,Male,English,GCSE,2024-03-06_12h17.00.227,CRL1h,2023.2.3,Win32,60.24096386,65e67470ae2fbf2172c317b2,65e85e60ffc2e4a29daac6e5,,,,,,,,,,,794.5292,0.6,795.1289,795.129,796.0302,left,1,0.896,,796.0303,797.0304,3,11,59,8,1,partial,1,images/Ex9.jpg,left,training,hard,2,,,,,
,,,,,63ef938aea545fb9bd19a591,001,52,Male,English,GCSE,2024-03-06_12h17.00.227,CRL1h,2023.2.3,Win32,60.24096386,65e67470ae2fbf2172c317b2,65e85e60ffc2e4a29daac6e5,,,,,,,,,,,797.031,1.2,798.2312,798.2313,798.9338,right,1,0.701,,798.9338,799.9327,3,12,60,7,1,partial,1,images/Ex16.jpg,right,training,hard,2,,,,,
,,,,,63ef938aea545fb9bd19a591,001,52,Male,English,GCSE,2024-03-06_12h17.00.227,CRL1h,2023.2.3,Win32,60.24096386,65e67470ae2fbf2172c317b2,65e85e60ffc2e4a29daac6e5,,,,,,,,,,,799.9334,0.5,800.4329,800.4329,801.8474,left,1,1.4129,,801.8475,802.8514,3,13,61,11,1,partial,1,images/Ex12.jpg,left,training,hard,2,,,,,
,,,,,63ef938aea545fb9bd19a591,001,52,Male,English,GCSE,2024-03-06_12h17.00.227,CRL1h,2023.2.3,Win32,60.24096386,65e67470ae2fbf2172c317b2,65e85e60ffc2e4a29daac6e5,,,,,,,,,,,802.8521,1,803.8523,803.8523,804.7497,right,1,0.8959,,804.7497,805.7493,3,14,62,13,1,partial,1,images/Ex14.jpg,right,training,hard,2,,,,,
,,,,,63ef938aea545fb9bd19a591,001,52,Male,English,GCSE,2024-03-06_12h17.00.227,CRL1h,2023.2.3,Win32,60.24096386,65e67470ae2fbf2172c317b2,65e85e60ffc2e4a29daac6e5,,,,,,,,,,,805.7498,1,806.7506,806.7506,807.5658,right,1,0.8139,,807.5659,808.5556,3,15,63,14,1,partial,1,images/Ex15.jpg,right,training,hard,2,,,,,
,,,,,63ef938aea545fb9bd19a591,001,52,Male,English,GCSE,2024-03-06_12h17.00.227,CRL1h,2023.2.3,Win32,60.24096386,65e67470ae2fbf2172c317b2,65e85e60ffc2e4a29daac6e5,,,,,,,,,,,808.5563,1.5,810.0568,810.0568,810.858,right,1,0.7953,,810.858,811.8581,4,0,64,13,1,partial,1,images/Ex14.jpg,right,training,hard,2,,,,,
,,,,,63ef938aea545fb9bd19a591,001,52,Male,English,GCSE,2024-03-06_12h17.00.227,CRL1h,2023.2.3,Win32,60.24096386,65e67470ae2fbf2172c317b2,65e85e60ffc2e4a29daac6e5,,,,,,,,,,,811.8586,1.2,813.059,813.059,813.6434,left,1,0.5751,,813.6434,814.6437,4,1,65,9,1,partial,1,images/Ex10.jpg,left,training,hard,2,,,,,
,,,,,63ef938aea545fb9bd19a591,001,52,Male,English,GCSE,2024-03-06_12h17.00.227,CRL1h,2023.2.3,Win32,60.24096386,65e67470ae2fbf2172c317b2,65e85e60ffc2e4a29daac6e5,,,,,,,,,,,814.6446,1.2,815.8446,815.8446,816.5638,right,1,0.7177,,816.5639,817.5625,4,2,66,15,1,partial,1,images/Ex16.jpg,right,training,hard,2,,,,,
,,,,,63ef938aea545fb9bd19a591,001,52,Male,English,GCSE,2024-03-06_12h17.00.227,CRL1h,2023.2.3,Win32,60.24096386,65e67470ae2fbf2172c317b2,65e85e60ffc2e4a29daac6e5,,,,,,,,,,,817.563,0.9,818.4506,818.4507,819.5481,left,1,1.0922,,819.5482,820.5481,4,3,67,3,1,partial,1,images/Ex12.jpg,left,training,hard,2,,,,,
,,,,,63ef938aea545fb9bd19a591,001,52,Male,English,GCSE,2024-03-06_12h17.00.227,CRL1h,2023.2.3,Win32,60.24096386,65e67470ae2fbf2172c317b2,65e85e60ffc2e4a29daac6e5,,,,,,,,,,,820.5487,0.9,821.4487,821.4488,822.684,left,0,1.2315,,822.6841,823.6796,4,4,68,14,1,partial,1,images/Ex15.jpg,right,training,hard,2,,,,,
,,,,,63ef938aea545fb9bd19a591,001,52,Male,English,GCSE,2024-03-06_12h17.00.227,CRL1h,2023.2.3,Win32,60.24096386,65e67470ae2fbf2172c317b2,65e85e60ffc2e4a29daac6e5,,,,,,,,,,,823.68,0.7,824.3806,824.3806,825.3025,left,1,0.917,,825.3026,826.3024,4,5,69,11,1,partial,1,images/Ex12.jpg,left,training,hard,2,,,,,
,,,,,63ef938aea545fb9bd19a591,001,52,Male,English,GCSE,2024-03-06_12h17.00.227,CRL1h,2023.2.3,Win32,60.24096386,65e67470ae2fbf2172c317b2,65e85e60ffc2e4a29daac6e5,,,,,,,,,,,826.3032,1.2,827.5034,827.5034,828.2342,right,1,0.7291,,828.2342,829.2381,4,6,70,12,1,partial,1,images/Ex13.jpg,right,training,hard,2,,,,,
,,,,,63ef938aea545fb9bd19a591,001,52,Male,English,GCSE,2024-03-06_12h17.00.227,CRL1h,2023.2.3,Win32,60.24096386,65e67470ae2fbf2172c317b2,65e85e60ffc2e4a29daac6e5,,,,,,,,,,,829.2388,1.5,830.7391,830.7391,831.5365,right,1,0.7959,,831.5366,832.5275,4,7,71,5,1,partial,1,images/Ex14.jpg,right,training,hard,2,,,,,
,,,,,63ef938aea545fb9bd19a591,001,52,Male,English,GCSE,2024-03-06_12h17.00.227,CRL1h,2023.2.3,Win32,60.24096386,65e67470ae2fbf2172c317b2,65e85e60ffc2e4a29daac6e5,,,,,,,,,,,832.528,1,833.5202,833.5202,834.2217,left,1,0.7002,,834.2218,835.2259,4,8,72,1,1,partial,1,images/Ex10.jpg,left,training,hard,2,,,,,
,,,,,63ef938aea545fb9bd19a591,001,52,Male,English,GCSE,2024-03-06_12h17.00.227,CRL1h,2023.2.3,Win32,60.24096386,65e67470ae2fbf2172c317b2,65e85e60ffc2e4a29daac6e5,,,,,,,,,,,835.2265,1,836.2267,836.2268,836.9778,right,1,0.7458,,836.9779,837.9781,4,9,73,7,1,partial,1,images/Ex16.jpg,right,training,hard,2,,,,,
,,,,,63ef938aea545fb9bd19a591,001,52,Male,English,GCSE,2024-03-06_12h17.00.227,CRL1h,2023.2.3,Win32,60.24096386,65e67470ae2fbf2172c317b2,65e85e60ffc2e4a29daac6e5,,,,,,,,,,,837.9788,0.5,838.4782,838.4783,839.2916,left,1,0.8119,,839.2917,840.2797,4,10,74,2,1,partial,1,images/Ex11.jpg,left,training,hard,2,,,,,
,,,,,63ef938aea545fb9bd19a591,001,52,Male,English,GCSE,2024-03-06_12h17.00.227,CRL1h,2023.2.3,Win32,60.24096386,65e67470ae2fbf2172c317b2,65e85e60ffc2e4a29daac6e5,,,,,,,,,,,840.2803,0.5,840.78,840.7801,841.8274,right,1,1.0457,,841.8275,842.8315,4,11,75,4,1,partial,1,images/Ex13.jpg,right,training,hard,2,,,,,
,,,,,63ef938aea545fb9bd19a591,001,52,Male,English,GCSE,2024-03-06_12h17.00.227,CRL1h,2023.2.3,Win32,60.24096386,65e67470ae2fbf2172c317b2,65e85e60ffc2e4a29daac6e5,,,,,,,,,,,842.8321,0.8,843.6321,843.6321,844.5725,left,0,0.9387,,844.5725,845.5669,4,12,76,6,1,partial,1,images/Ex15.jpg,right,training,hard,2,,,,,
,,,,,63ef938aea545fb9bd19a591,001,52,Male,English,GCSE,2024-03-06_12h17.00.227,CRL1h,2023.2.3,Win32,60.24096386,65e67470ae2fbf2172c317b2,65e85e60ffc2e4a29daac6e5,,,,,,,,,,,845.5675,0.8,846.3637,846.3637,846.8376,right,0,0.4725,,846.8376,847.8476,4,13,77,10,1,partial,1,images/Ex11.jpg,left,training,hard,2,,,,,
,,,,,63ef938aea545fb9bd19a591,001,52,Male,English,GCSE,2024-03-06_12h17.00.227,CRL1h,2023.2.3,Win32,60.24096386,65e67470ae2fbf2172c317b2,65e85e60ffc2e4a29daac6e5,,,,,,,,,,,847.8482,1.4,849.2363,849.2364,850.2759,left,1,1.0378,,850.2759,851.2838,4,14,78,8,1,partial,1,images/Ex9.jpg,left,training,hard,2,,,,,
,,,,,63ef938aea545fb9bd19a591,001,52,Male,English,GCSE,2024-03-06_12h17.00.227,CRL1h,2023.2.3,Win32,60.24096386,65e67470ae2fbf2172c317b2,65e85e60ffc2e4a29daac6e5,,,,,,,,,,,851.2845,1,852.2886,852.2887,852.9063,left,1,0.6129,,852.9064,853.9067,4,15,79,0,1,partial,1,images/Ex9.jpg,left,training,hard,2,,,,,
,,,,,63ef938aea545fb9bd19a591,001,52,Male,English,GCSE,2024-03-06_12h17.00.227,CRL1h,2023.2.3,Win32,60.24096386,65e67470ae2fbf2172c317b2,65e85e60ffc2e4a29daac6e5,,,,,,,,,,,853.9073,1.3,855.2018,855.2019,855.8814,right,0,0.6785,,855.8815,856.8754,5,0,80,10,1,partial,1,images/Ex11.jpg,left,training,hard,2,,,,,
,,,,,63ef938aea545fb9bd19a591,001,52,Male,English,GCSE,2024-03-06_12h17.00.227,CRL1h,2023.2.3,Win32,60.24096386,65e67470ae2fbf2172c317b2,65e85e60ffc2e4a29daac6e5,,,,,,,,,,,856.876,1.2,858.0763,858.0764,859.4743,right,1,1.396,,859.4743,860.4781,5,1,81,4,1,partial,1,images/Ex13.jpg,right,training,hard,2,,,,,
,,,,,63ef938aea545fb9bd19a591,001,52,Male,English,GCSE,2024-03-06_12h17.00.227,CRL1h,2023.2.3,Win32,60.24096386,65e67470ae2fbf2172c317b2,65e85e60ffc2e4a29daac6e5,,,,,,,,,,,860.4788,0.9,861.3789,861.379,862.2969,left,1,0.9124,,862.297,863.3097,5,2,82,9,1,partial,1,images/Ex10.jpg,left,training,hard,2,,,,,
,,,,,63ef938aea545fb9bd19a591,001,52,Male,English,GCSE,2024-03-06_12h17.00.227,CRL1h,2023.2.3,Win32,60.24096386,65e67470ae2fbf2172c317b2,65e85e60ffc2e4a29daac6e5,,,,,,,,,,,863.3101,1.4,864.6982,864.6982,865.4787,right,1,0.7788,,865.4787,866.4827,5,3,83,5,1,partial,1,images/Ex14.jpg,right,training,hard,2,,,,,
,,,,,63ef938aea545fb9bd19a591,001,52,Male,English,GCSE,2024-03-06_12h17.00.227,CRL1h,2023.2.3,Win32,60.24096386,65e67470ae2fbf2172c317b2,65e85e60ffc2e4a29daac6e5,,,,,,,,,,,866.4834,0.6,867.0831,867.0831,867.5971,right,1,0.5125,,867.5971,868.6137,5,4,84,13,1,partial,1,images/Ex14.jpg,right,training,hard,2,,,,,
,,,,,63ef938aea545fb9bd19a591,001,52,Male,English,GCSE,2024-03-06_12h17.00.227,CRL1h,2023.2.3,Win32,60.24096386,65e67470ae2fbf2172c317b2,65e85e60ffc2e4a29daac6e5,,,,,,,,,,,868.6142,1.4,870.0019,870.002,871.4832,right,1,1.479,,871.4833,872.4821,5,5,85,6,1,partial,1,images/Ex15.jpg,right,training,hard,2,,,,,
,,,,,63ef938aea545fb9bd19a591,001,52,Male,English,GCSE,2024-03-06_12h17.00.227,CRL1h,2023.2.3,Win32,60.24096386,65e67470ae2fbf2172c317b2,65e85e60ffc2e4a29daac6e5,,,,,,,,,,,872.4826,0.7,873.1712,873.1712,874.0222,left,1,0.8481,,874.0222,875.0224,5,6,86,3,1,partial,1,images/Ex12.jpg,left,training,hard,2,,,,,
,,,,,63ef938aea545fb9bd19a591,001,52,Male,English,GCSE,2024-03-06_12h17.00.227,CRL1h,2023.2.3,Win32,60.24096386,65e67470ae2fbf2172c317b2,65e85e60ffc2e4a29daac6e5,,,,,,,,,,,875.023,0.5,875.5228,875.5229,876.5458,left,0,1.0211,,876.5458,877.541,5,7,87,12,1,partial,1,images/Ex13.jpg,right,training,hard,2,,,,,
,,,,,63ef938aea545fb9bd19a591,001,52,Male,English,GCSE,2024-03-06_12h17.00.227,CRL1h,2023.2.3,Win32,60.24096386,65e67470ae2fbf2172c317b2,65e85e60ffc2e4a29daac6e5,,,,,,,,,,,877.5416,0.9,878.4417,878.4418,879.2313,left,1,0.788,,879.2314,880.2265,5,8,88,2,1,partial,1,images/Ex11.jpg,left,training,hard,2,,,,,
,,,,,63ef938aea545fb9bd19a591,001,52,Male,English,GCSE,2024-03-06_12h17.00.227,CRL1h,2023.2.3,Win32,60.24096386,65e67470ae2fbf2172c317b2,65e85e60ffc2e4a29daac6e5,,,,,,,,,,,880.227,1.3,881.5236,881.5236,882.425,left,1,0.9001,,882.425,883.4162,5,9,89,0,1,partial,1,images/Ex9.jpg,left,training,hard,2,,,,,
,,,,,63ef938aea545fb9bd19a591,001,52,Male,English,GCSE,2024-03-06_12h17.00.227,CRL1h,2023.2.3,Win32,60.24096386,65e67470ae2fbf2172c317b2,65e85e60ffc2e4a29daac6e5,,,,,,,,,,,883.4169,1.2,884.613,884.613,885.594,left,1,0.9793,,885.594,886.5979,5,10,90,1,1,partial,1,images/Ex10.jpg,left,training,hard,2,,,,,
,,,,,63ef938aea545fb9bd19a591,001,52,Male,English,GCSE,2024-03-06_12h17.00.227,CRL1h,2023.2.3,Win32,60.24096386,65e67470ae2fbf2172c317b2,65e85e60ffc2e4a29daac6e5,,,,,,,,,,,886.5985,0.6,887.1982,887.1983,887.6658,right,1,0.4623,,887.6659,888.666,5,11,91,15,1,partial,1,images/Ex16.jpg,right,training,hard,2,,,,,
,,,,,63ef938aea545fb9bd19a591,001,52,Male,English,GCSE,2024-03-06_12h17.00.227,CRL1h,2023.2.3,Win32,60.24096386,65e67470ae2fbf2172c317b2,65e85e60ffc2e4a29daac6e5,,,,,,,,,,,888.6667,1.4,890.0671,890.0672,890.7576,right,0,0.689,,890.7577,891.7516,5,12,92,8,1,partial,1,images/Ex9.jpg,left,training,hard,2,,,,,
,,,,,63ef938aea545fb9bd19a591,001,52,Male,English,GCSE,2024-03-06_12h17.00.227,CRL1h,2023.2.3,Win32,60.24096386,65e67470ae2fbf2172c317b2,65e85e60ffc2e4a29daac6e5,,,,,,,,,,,891.7524,0.7,892.4522,892.4522,893.3535,right,1,0.897,,893.3536,894.3536,5,13,93,14,1,partial,1,images/Ex15.jpg,right,training,hard,2,,,,,
,,,,,63ef938aea545fb9bd19a591,001,52,Male,English,GCSE,2024-03-06_12h17.00.227,CRL1h,2023.2.3,Win32,60.24096386,65e67470ae2fbf2172c317b2,65e85e60ffc2e4a29daac6e5,,,,,,,,,,,894.3544,1.5,895.8505,895.8505,896.6729,left,1,0.8188,,896.6729,897.6728,5,14,94,11,1,partial,1,images/Ex12.jpg,left,training,hard,2,,,,,
,,,,,63ef938aea545fb9bd19a591,001,52,Male,English,GCSE,2024-03-06_12h17.00.227,CRL1h,2023.2.3,Win32,60.24096386,65e67470ae2fbf2172c317b2,65e85e60ffc2e4a29daac6e5,,,,,,,,,,,897.6735,1.3,898.974,898.974,899.8549,right,1,0.8792,,899.8549,900.8586,5,15,95,7,1,partial,1,images/Ex16.jpg,right,training,hard,2,,,,,
,,,,,63ef938aea545fb9bd19a591,001,52,Male,English,GCSE,2024-03-06_12h17.00.227,CRL1h,2023.2.3,Win32,60.24096386,65e67470ae2fbf2172c317b2,65e85e60ffc2e4a29daac6e5,,,,,,,,,,,900.8592,1,901.8594,901.8594,903.0402,right,1,1.1792,,903.0402,904.0445,6,0,96,12,1,partial,1,images/Ex13.jpg,right,training,hard,2,,,,,
,,,,,63ef938aea545fb9bd19a591,001,52,Male,English,GCSE,2024-03-06_12h17.00.227,CRL1h,2023.2.3,Win32,60.24096386,65e67470ae2fbf2172c317b2,65e85e60ffc2e4a29daac6e5,,,,,,,,,,,904.0452,1.3,905.3453,905.3453,905.9144,right,1,0.5677,,905.9144,906.9131,6,1,97,4,1,partial,1,images/Ex13.jpg,right,training,hard,2,,,,,
,,,,,63ef938aea545fb9bd19a591,001,52,Male,English,GCSE,2024-03-06_12h17.00.227,CRL1h,2023.2.3,Win32,60.24096386,65e67470ae2fbf2172c317b2,65e85e60ffc2e4a29daac6e5,,,,,,,,,,,906.9139,0.9,907.8138,907.8139,908.7947,right,0,0.9792,,908.7948,909.7986,6,2,98,3,1,partial,1,images/Ex12.jpg,left,training,hard,2,,,,,
,,,,,63ef938aea545fb9bd19a591,001,52,Male,English,GCSE,2024-03-06_12h17.00.227,CRL1h,2023.2.3,Win32,60.24096386,65e67470ae2fbf2172c317b2,65e85e60ffc2e4a29daac6e5,,,,,,,,,,,909.7993,1,910.7994,910.7995,911.4889,left,1,0.6881,,911.4889,912.4843,6,3,99,11,1,partial,1,images/Ex12.jpg,left,training,hard,2,,,,,
,,,,,63ef938aea545fb9bd19a591,001,52,Male,English,GCSE,2024-03-06_12h17.00.227,CRL1h,2023.2.3,Win32,60.24096386,65e67470ae2fbf2172c317b2,65e85e60ffc2e4a29daac6e5,,,,,,,,,,,912.4849,1.1,913.585,913.585,914.4197,right,1,0.8304,,914.4197,915.4161,6,4,100,13,1,partial,1,images/Ex14.jpg,right,training,hard,2,,,,,
,,,,,63ef938aea545fb9bd19a591,001,52,Male,English,GCSE,2024-03-06_12h17.00.227,CRL1h,2023.2.3,Win32,60.24096386,65e67470ae2fbf2172c317b2,65e85e60ffc2e4a29daac6e5,,,,,,,,,,,915.4164,0.7,916.12,916.1201,917.3718,left,1,1.2482,,917.3718,918.3718,6,5,101,0,1,partial,1,images/Ex9.jpg,left,training,hard,2,,,,,
,,,,,63ef938aea545fb9bd19a591,001,52,Male,English,GCSE,2024-03-06_12h17.00.227,CRL1h,2023.2.3,Win32,60.24096386,65e67470ae2fbf2172c317b2,65e85e60ffc2e4a29daac6e5,,,,,,,,,,,918.3723,1.3,919.6727,919.6727,920.5867,left,1,0.9125,,920.5867,921.5908,6,6,102,2,1,partial,1,images/Ex11.jpg,left,training,hard,2,,,,,
,,,,,63ef938aea545fb9bd19a591,001,52,Male,English,GCSE,2024-03-06_12h17.00.227,CRL1h,2023.2.3,Win32,60.24096386,65e67470ae2fbf2172c317b2,65e85e60ffc2e4a29daac6e5,,,,,,,,,,,921.5916,0.5,922.1044,922.1044,923.2715,left,1,1.166,,923.2716,924.2598,6,7,103,8,1,partial,1,images/Ex9.jpg,left,training,hard,2,,,,,
,,,,,63ef938aea545fb9bd19a591,001,52,Male,English,GCSE,2024-03-06_12h17.00.227,CRL1h,2023.2.3,Win32,60.24096386,65e67470ae2fbf2172c317b2,65e85e60ffc2e4a29daac6e5,,,,,,,,,,,924.2684,1.2,925.4732,925.4732,926.1664,right,0,0.6919,,926.1664,927.1617,6,8,104,1,1,partial,1,images/Ex10.jpg,left,training,hard,2,,,,,
,,,,,63ef938aea545fb9bd19a591,001,52,Male,English,GCSE,2024-03-06_12h17.00.227,CRL1h,2023.2.3,Win32,60.24096386,65e67470ae2fbf2172c317b2,65e85e60ffc2e4a29daac6e5,,,,,,,,,,,927.1623,1,928.1625,928.1625,928.843,right,1,0.679,,928.8432,929.8427,6,9,105,6,1,partial,1,images/Ex15.jpg,right,training,hard,2,,,,,
,,,,,63ef938aea545fb9bd19a591,001,52,Male,English,GCSE,2024-03-06_12h17.00.227,CRL1h,2023.2.3,Win32,60.24096386,65e67470ae2fbf2172c317b2,65e85e60ffc2e4a29daac6e5,,,,,,,,,,,929.8432,1.2,931.0436,931.0437,931.6618,right,1,0.6166,,931.6618,932.6781,6,10,106,15,1,partial,1,images/Ex16.jpg,right,training,hard,2,,,,,
,,,,,63ef938aea545fb9bd19a591,001,52,Male,English,GCSE,2024-03-06_12h17.00.227,CRL1h,2023.2.3,Win32,60.24096386,65e67470ae2fbf2172c317b2,65e85e60ffc2e4a29daac6e5,,,,,,,,,,,932.6785,1,933.6667,933.6667,934.3227,right,1,0.6545,,934.3227,935.3182,6,11,107,14,1,partial,1,images/Ex15.jpg,right,training,hard,2,,,,,
,,,,,63ef938aea545fb9bd19a591,001,52,Male,English,GCSE,2024-03-06_12h17.00.227,CRL1h,2023.2.3,Win32,60.24096386,65e67470ae2fbf2172c317b2,65e85e60ffc2e4a29daac6e5,,,,,,,,,,,935.3187,0.9,936.2185,936.2185,936.8652,right,1,0.6453,,936.8652,937.8531,6,12,108,7,1,partial,1,images/Ex16.jpg,right,training,hard,2,,,,,
,,,,,63ef938aea545fb9bd19a591,001,52,Male,English,GCSE,2024-03-06_12h17.00.227,CRL1h,2023.2.3,Win32,60.24096386,65e67470ae2fbf2172c317b2,65e85e60ffc2e4a29daac6e5,,,,,,,,,,,937.8543,0.5,938.3536,938.3536,939.1549,left,1,0.7958,,939.155,940.155,6,13,109,9,1,partial,1,images/Ex10.jpg,left,training,hard,2,,,,,
,,,,,63ef938aea545fb9bd19a591,001,52,Male,English,GCSE,2024-03-06_12h17.00.227,CRL1h,2023.2.3,Win32,60.24096386,65e67470ae2fbf2172c317b2,65e85e60ffc2e4a29daac6e5,,,,,,,,,,,940.1555,0.9,941.0555,941.0556,941.7732,right,1,0.7126,,941.7732,942.7692,6,14,110,5,1,partial,1,images/Ex14.jpg,right,training,hard,2,,,,,
,,,,,63ef938aea545fb9bd19a591,001,52,Male,English,GCSE,2024-03-06_12h17.00.227,CRL1h,2023.2.3,Win32,60.24096386,65e67470ae2fbf2172c317b2,65e85e60ffc2e4a29daac6e5,,,,,,,,,,,942.7697,1.3,944.0579,944.058,944.9425,left,1,0.8806,,944.9426,945.9381,6,15,111,10,1,partial,1,images/Ex11.jpg,left,training,hard,2,,,,,
,,,,,63ef938aea545fb9bd19a591,001,52,Male,English,GCSE,2024-03-06_12h17.00.227,CRL1h,2023.2.3,Win32,60.24096386,65e67470ae2fbf2172c317b2,65e85e60ffc2e4a29daac6e5,,,,,,,,,,,945.9385,0.6,946.5263,946.5264,947.7951,left,1,1.2627,,947.7952,948.7948,7,0,112,0,1,partial,1,images/Ex9.jpg,left,training,hard,2,,,,,
,,,,,63ef938aea545fb9bd19a591,001,52,Male,English,GCSE,2024-03-06_12h17.00.227,CRL1h,2023.2.3,Win32,60.24096386,65e67470ae2fbf2172c317b2,65e85e60ffc2e4a29daac6e5,,,,,,,,,,,948.7956,0.9,949.6955,949.6955,950.4968,left,1,0.7957,,950.4969,951.4967,7,1,113,9,1,partial,1,images/Ex10.jpg,left,training,hard,2,,,,,
,,,,,63ef938aea545fb9bd19a591,001,52,Male,English,GCSE,2024-03-06_12h17.00.227,CRL1h,2023.2.3,Win32,60.24096386,65e67470ae2fbf2172c317b2,65e85e60ffc2e4a29daac6e5,,,,,,,,,,,951.4974,1,952.4979,952.4979,953.2782,right,1,0.779,,953.2782,954.2822,7,2,114,6,1,partial,1,images/Ex15.jpg,right,training,hard,2,,,,,
,,,,,63ef938aea545fb9bd19a591,001,52,Male,English,GCSE,2024-03-06_12h17.00.227,CRL1h,2023.2.3,Win32,60.24096386,65e67470ae2fbf2172c317b2,65e85e60ffc2e4a29daac6e5,,,,,,,,,,,954.2828,1.3,955.5831,955.5831,956.5393,left,1,0.9545,,956.5394,957.5302,7,3,115,11,1,partial,1,images/Ex12.jpg,left,training,hard,2,,,,,
,,,,,63ef938aea545fb9bd19a591,001,52,Male,English,GCSE,2024-03-06_12h17.00.227,CRL1h,2023.2.3,Win32,60.24096386,65e67470ae2fbf2172c317b2,65e85e60ffc2e4a29daac6e5,,,,,,,,,,,957.5307,0.5,958.0184,958.0184,958.8862,right,1,0.8625,,958.8862,959.8824,7,4,116,5,1,partial,1,images/Ex14.jpg,right,training,hard,2,,,,,
,,,,,63ef938aea545fb9bd19a591,001,52,Male,English,GCSE,2024-03-06_12h17.00.227,CRL1h,2023.2.3,Win32,60.24096386,65e67470ae2fbf2172c317b2,65e85e60ffc2e4a29daac6e5,,,,,,,,,,,959.8828,1,960.8871,960.8872,961.6614,left,1,0.7727,,961.6614,962.6551,7,5,117,10,1,partial,1,images/Ex11.jpg,left,training,hard,2,,,,,
,,,,,63ef938aea545fb9bd19a591,001,52,Male,English,GCSE,2024-03-06_12h17.00.227,CRL1h,2023.2.3,Win32,60.24096386,65e67470ae2fbf2172c317b2,65e85e60ffc2e4a29daac6e5,,,,,,,,,,,962.6558,1,963.6558,963.6559,964.5085,left,1,0.8513,,964.5086,965.5035,7,6,118,1,1,partial,1,images/Ex10.jpg,left,training,hard,2,,,,,
,,,,,63ef938aea545fb9bd19a591,001,52,Male,English,GCSE,2024-03-06_12h17.00.227,CRL1h,2023.2.3,Win32,60.24096386,65e67470ae2fbf2172c317b2,65e85e60ffc2e4a29daac6e5,,,,,,,,,,,965.5039,0.9,966.3951,966.3951,967.5607,left,1,1.1642,,967.5608,968.5596,7,7,119,3,1,partial,1,images/Ex12.jpg,left,training,hard,2,,,,,
,,,,,63ef938aea545fb9bd19a591,001,52,Male,English,GCSE,2024-03-06_12h17.00.227,CRL1h,2023.2.3,Win32,60.24096386,65e67470ae2fbf2172c317b2,65e85e60ffc2e4a29daac6e5,,,,,,,,,,,968.5602,0.6,969.1605,969.1606,969.8827,right,1,0.7205,,969.8827,970.8781,7,8,120,13,1,partial,1,images/Ex14.jpg,right,training,hard,2,,,,,
,,,,,63ef938aea545fb9bd19a591,001,52,Male,English,GCSE,2024-03-06_12h17.00.227,CRL1h,2023.2.3,Win32,60.24096386,65e67470ae2fbf2172c317b2,65e85e60ffc2e4a29daac6e5,,,,,,,,,,,970.8788,1.4,972.279,972.279,972.8929,right,0,0.6125,,972.8929,973.8806,7,9,121,2,1,partial,1,images/Ex11.jpg,left,training,hard,2,,,,,
,,,,,63ef938aea545fb9bd19a591,001,52,Male,English,GCSE,2024-03-06_12h17.00.227,CRL1h,2023.2.3,Win32,60.24096386,65e67470ae2fbf2172c317b2,65e85e60ffc2e4a29daac6e5,,,,,,,,,,,973.881,0.5,974.3807,974.3807,975.011,right,1,0.6289,,975.011,976.0152,7,10,122,7,1,partial,1,images/Ex16.jpg,right,training,hard,2,,,,,
,,,,,63ef938aea545fb9bd19a591,001,52,Male,English,GCSE,2024-03-06_12h17.00.227,CRL1h,2023.2.3,Win32,60.24096386,65e67470ae2fbf2172c317b2,65e85e60ffc2e4a29daac6e5,,,,,,,,,,,976.0158,0.6,976.6157,976.6157,977.6797,left,0,1.0628,,977.6798,978.6794,7,11,123,12,1,partial,1,images/Ex13.jpg,right,training,hard,2,,,,,
,,,,,63ef938aea545fb9bd19a591,001,52,Male,English,GCSE,2024-03-06_12h17.00.227,CRL1h,2023.2.3,Win32,60.24096386,65e67470ae2fbf2172c317b2,65e85e60ffc2e4a29daac6e5,,,,,,,,,,,978.6798,1,979.672,979.672,980.4741,right,1,0.8006,,980.4742,981.4692,7,12,124,14,1,partial,1,images/Ex15.jpg,right,training,hard,2,,,,,
,,,,,63ef938aea545fb9bd19a591,001,52,Male,English,GCSE,2024-03-06_12h17.00.227,CRL1h,2023.2.3,Win32,60.24096386,65e67470ae2fbf2172c317b2,65e85e60ffc2e4a29daac6e5,,,,,,,,,,,981.4698,0.6,982.0698,982.0698,983.0546,left,1,0.9808,,983.0548,984.0547,7,13,125,8,1,partial,1,images/Ex9.jpg,left,training,hard,2,,,,,
,,,,,63ef938aea545fb9bd19a591,001,52,Male,English,GCSE,2024-03-06_12h17.00.227,CRL1h,2023.2.3,Win32,60.24096386,65e67470ae2fbf2172c317b2,65e85e60ffc2e4a29daac6e5,,,,,,,,,,,984.0553,1.1,985.1554,985.1555,985.8112,right,1,0.6542,,985.8113,986.8068,7,14,126,15,1,partial,1,images/Ex16.jpg,right,training,hard,2,,,,,
,,,,,63ef938aea545fb9bd19a591,001,52,Male,English,GCSE,2024-03-06_12h17.00.227,CRL1h,2023.2.3,Win32,60.24096386,65e67470ae2fbf2172c317b2,65e85e60ffc2e4a29daac6e5,,,,,,,,,,,986.8074,1.4,988.2078,988.2079,989.0216,left,0,0.8124,,989.0217,990.0259,7,15,127,4,1,partial,1,images/Ex13.jpg,right,training,hard,2,,,,,
,,,,,63ef938aea545fb9bd19a591,001,52,Male,English,GCSE,2024-03-06_12h17.00.227,CRL1h,2023.2.3,Win32,60.24096386,65e67470ae2fbf2172c317b2,65e85e60ffc2e4a29daac6e5,,,,,,,,,,,990.0346,1.1,991.1387,991.1388,992.2243,left,1,1.084,,992.2244,993.2244,0,0,0,2,1,partial,2,images/Ex11.jpg,left,nonreversed,hard,2,,,,,
