infCons.started,infCons.stopped,resp_consent.keys,resp_consent.rt,resp_consent.duration,participant,session,Age?,Gender?,Nationality?,Highest Educational Degree?,date,expName,psychopyVersion,OS,frameRate,STUDY_ID,SESSION_ID,instructions.started,instructions.stopped,resp_instructions.keys,resp_instructions.rt,resp_instructions.duration,nextTask.started,nextTask.stopped,ready_task.keys,ready_task.rt,ready_task.duration,fixation.started,ITI,fixation.stopped,stim.started,stim.stopped,response.keys,response.corr,response.rt,response.duration,feedback.started,feedback.stopped,trials.thisRepN,trials.thisTrialN,trials.thisN,trials.thisIndex,trials.ran,task,phase,Exemplars,r_correct,condition,difficulty,set,end.started,end.stopped,resp_end.keys,resp_end.rt,resp_end.duration
0.0002,77.9151,space,77.8441,,64217d8202361ad4dbed3596,001,59,Male,UK (Scotland),BSc (Hons),2024-03-06_15h04.29.507,CRL1h,2023.2.3,Win32,60.24096386,65e67470ae2fbf2172c317b2,65e885b1163b66c815b71f11,,,,,,,,,,,,,,,,,,,,,,,,,,,,,,,,,,,,,,
,,,,,64217d8202361ad4dbed3596,001,59,Male,UK (Scotland),BSc (Hons),2024-03-06_15h04.29.507,CRL1h,2023.2.3,Win32,60.24096386,65e67470ae2fbf2172c317b2,65e885b1163b66c815b71f11,77.9153,137.3093,space,59.3658,,,,,,,,,,,,,,,,,,,,,,,,,,,,,,,,,,
,,,,,64217d8202361ad4dbed3596,001,59,Male,UK (Scotland),BSc (Hons),2024-03-06_15h04.29.507,CRL1h,2023.2.3,Win32,60.24096386,65e67470ae2fbf2172c317b2,65e885b1163b66c815b71f11,,,,,,137.3165,144.4985,space,7.158,,144.5059,1.4,145.8994,145.8995,148.2348,left,0,2.32,,148.2349,149.2355,0,0,0,14,1,partial,1,images/Ex7.jpg,right,training,hard,4,,,,,
,,,,,64217d8202361ad4dbed3596,001,59,Male,UK (Scotland),BSc (Hons),2024-03-06_15h04.29.507,CRL1h,2023.2.3,Win32,60.24096386,65e67470ae2fbf2172c317b2,65e885b1163b66c815b71f11,,,,,,,,,,,149.2359,0.9,150.1361,150.1361,152.3398,left,0,2.2028,,152.3399,153.3389,0,1,1,7,1,partial,1,images/Ex8.jpg,right,training,hard,4,,,,,
,,,,,64217d8202361ad4dbed3596,001,59,Male,UK (Scotland),BSc (Hons),2024-03-06_15h04.29.507,CRL1h,2023.2.3,Win32,60.24096386,65e67470ae2fbf2172c317b2,65e885b1163b66c815b71f11,,,,,,,,,,,153.3393,0.9,154.2395,154.2396,156.2079,left,1,1.9602,,156.2079,157.1955,0,2,2,9,1,partial,1,images/Ex2.jpg,left,training,hard,4,,,,,
,,,,,64217d8202361ad4dbed3596,001,59,Male,UK (Scotland),BSc (Hons),2024-03-06_15h04.29.507,CRL1h,2023.2.3,Win32,60.24096386,65e67470ae2fbf2172c317b2,65e885b1163b66c815b71f11,,,,,,,,,,,157.1957,1.2,158.3929,158.3929,159.6775,left,1,1.2746,,159.6775,160.6781,0,3,3,3,1,partial,1,images/Ex4.jpg,left,training,hard,4,,,,,
,,,,,64217d8202361ad4dbed3596,001,59,Male,UK (Scotland),BSc (Hons),2024-03-06_15h04.29.507,CRL1h,2023.2.3,Win32,60.24096386,65e67470ae2fbf2172c317b2,65e885b1163b66c815b71f11,,,,,,,,,,,160.6784,0.8,161.4788,161.4788,162.9802,left,0,1.4877,,162.9803,163.9692,0,4,4,13,1,partial,1,images/Ex6.jpg,right,training,hard,4,,,,,
,,,,,64217d8202361ad4dbed3596,001,59,Male,UK (Scotland),BSc (Hons),2024-03-06_15h04.29.507,CRL1h,2023.2.3,Win32,60.24096386,65e67470ae2fbf2172c317b2,65e885b1163b66c815b71f11,,,,,,,,,,,163.9696,0.9,164.8649,164.8649,166.2661,left,1,1.3945,,166.2662,167.2669,0,5,5,8,1,partial,1,images/Ex1.jpg,left,training,hard,4,,,,,
,,,,,64217d8202361ad4dbed3596,001,59,Male,UK (Scotland),BSc (Hons),2024-03-06_15h04.29.507,CRL1h,2023.2.3,Win32,60.24096386,65e67470ae2fbf2172c317b2,65e885b1163b66c815b71f11,,,,,,,,,,,167.2672,0.9,168.1676,168.1676,169.5856,right,1,1.4029,,169.5856,170.5864,0,6,6,15,1,partial,1,images/Ex8.jpg,right,training,hard,4,,,,,
,,,,,64217d8202361ad4dbed3596,001,59,Male,UK (Scotland),BSc (Hons),2024-03-06_15h04.29.507,CRL1h,2023.2.3,Win32,60.24096386,65e67470ae2fbf2172c317b2,65e885b1163b66c815b71f11,,,,,,,,,,,170.5866,1.3,171.8873,171.8873,173.4221,right,1,1.5225,,173.4221,174.4227,0,7,7,12,1,partial,1,images/Ex5.jpg,right,training,hard,4,,,,,
,,,,,64217d8202361ad4dbed3596,001,59,Male,UK (Scotland),BSc (Hons),2024-03-06_15h04.29.507,CRL1h,2023.2.3,Win32,60.24096386,65e67470ae2fbf2172c317b2,65e885b1163b66c815b71f11,,,,,,,,,,,174.423,1.3,175.7238,175.7239,176.558,right,1,0.8232,,176.558,177.5587,0,8,8,4,1,partial,1,images/Ex5.jpg,right,training,hard,4,,,,,
,,,,,64217d8202361ad4dbed3596,001,59,Male,UK (Scotland),BSc (Hons),2024-03-06_15h04.29.507,CRL1h,2023.2.3,Win32,60.24096386,65e67470ae2fbf2172c317b2,65e885b1163b66c815b71f11,,,,,,,,,,,177.5591,1.2,178.76,178.7601,180.0775,right,0,1.3158,,180.0776,181.0782,0,9,9,10,1,partial,1,images/Ex3.jpg,left,training,hard,4,,,,,
,,,,,64217d8202361ad4dbed3596,001,59,Male,UK (Scotland),BSc (Hons),2024-03-06_15h04.29.507,CRL1h,2023.2.3,Win32,60.24096386,65e67470ae2fbf2172c317b2,65e885b1163b66c815b71f11,,,,,,,,,,,181.0785,0.7,181.7788,181.7788,182.9632,right,0,1.1822,,182.9633,183.964,0,10,10,0,1,partial,1,images/Ex1.jpg,left,training,hard,4,,,,,
,,,,,64217d8202361ad4dbed3596,001,59,Male,UK (Scotland),BSc (Hons),2024-03-06_15h04.29.507,CRL1h,2023.2.3,Win32,60.24096386,65e67470ae2fbf2172c317b2,65e885b1163b66c815b71f11,,,,,,,,,,,183.9642,0.7,184.6645,184.6646,186.5495,left,1,1.8842,,186.5495,187.5503,0,11,11,1,1,partial,1,images/Ex2.jpg,left,training,hard,4,,,,,
,,,,,64217d8202361ad4dbed3596,001,59,Male,UK (Scotland),BSc (Hons),2024-03-06_15h04.29.507,CRL1h,2023.2.3,Win32,60.24096386,65e67470ae2fbf2172c317b2,65e885b1163b66c815b71f11,,,,,,,,,,,187.5551,1.5,189.0515,189.0515,190.2859,left,1,1.2227,,190.2859,191.2866,0,12,12,2,1,partial,1,images/Ex3.jpg,left,training,hard,4,,,,,
,,,,,64217d8202361ad4dbed3596,001,59,Male,UK (Scotland),BSc (Hons),2024-03-06_15h04.29.507,CRL1h,2023.2.3,Win32,60.24096386,65e67470ae2fbf2172c317b2,65e885b1163b66c815b71f11,,,,,,,,,,,191.2868,1.2,192.4877,192.4877,193.6721,right,1,1.1824,,193.6721,194.6727,0,13,13,6,1,partial,1,images/Ex7.jpg,right,training,hard,4,,,,,
,,,,,64217d8202361ad4dbed3596,001,59,Male,UK (Scotland),BSc (Hons),2024-03-06_15h04.29.507,CRL1h,2023.2.3,Win32,60.24096386,65e67470ae2fbf2172c317b2,65e885b1163b66c815b71f11,,,,,,,,,,,194.673,1.2,195.8625,195.8625,197.1416,right,0,1.2783,,197.1417,198.1423,0,14,14,11,1,partial,1,images/Ex4.jpg,left,training,hard,4,,,,,
,,,,,64217d8202361ad4dbed3596,001,59,Male,UK (Scotland),BSc (Hons),2024-03-06_15h04.29.507,CRL1h,2023.2.3,Win32,60.24096386,65e67470ae2fbf2172c317b2,65e885b1163b66c815b71f11,,,,,,,,,,,198.1425,0.8,198.943,198.943,200.2275,right,1,1.2701,,200.2275,201.2281,0,15,15,5,1,partial,1,images/Ex6.jpg,right,training,hard,4,,,,,
,,,,,64217d8202361ad4dbed3596,001,59,Male,UK (Scotland),BSc (Hons),2024-03-06_15h04.29.507,CRL1h,2023.2.3,Win32,60.24096386,65e67470ae2fbf2172c317b2,65e885b1163b66c815b71f11,,,,,,,,,,,201.2283,1.3,202.5293,202.5294,203.6303,left,1,1.089,,203.6304,204.6311,1,0,16,10,1,partial,1,images/Ex3.jpg,left,training,hard,4,,,,,
,,,,,64217d8202361ad4dbed3596,001,59,Male,UK (Scotland),BSc (Hons),2024-03-06_15h04.29.507,CRL1h,2023.2.3,Win32,60.24096386,65e67470ae2fbf2172c317b2,65e885b1163b66c815b71f11,,,,,,,,,,,204.6319,0.6,205.2315,205.2315,206.6661,right,0,1.423,,206.6661,207.6668,1,1,17,11,1,partial,1,images/Ex4.jpg,left,training,hard,4,,,,,
,,,,,64217d8202361ad4dbed3596,001,59,Male,UK (Scotland),BSc (Hons),2024-03-06_15h04.29.507,CRL1h,2023.2.3,Win32,60.24096386,65e67470ae2fbf2172c317b2,65e885b1163b66c815b71f11,,,,,,,,,,,207.6718,0.8,208.4675,208.4675,209.7185,right,0,1.2466,,209.7186,210.7193,1,2,18,2,1,partial,1,images/Ex3.jpg,left,training,hard,4,,,,,
,,,,,64217d8202361ad4dbed3596,001,59,Male,UK (Scotland),BSc (Hons),2024-03-06_15h04.29.507,CRL1h,2023.2.3,Win32,60.24096386,65e67470ae2fbf2172c317b2,65e885b1163b66c815b71f11,,,,,,,,,,,210.7196,0.5,211.2198,211.2198,212.4709,right,1,1.2485,,212.4709,213.4716,1,3,19,12,1,partial,1,images/Ex5.jpg,right,training,hard,4,,,,,
,,,,,64217d8202361ad4dbed3596,001,59,Male,UK (Scotland),BSc (Hons),2024-03-06_15h04.29.507,CRL1h,2023.2.3,Win32,60.24096386,65e67470ae2fbf2172c317b2,65e885b1163b66c815b71f11,,,,,,,,,,,213.4765,1.2,214.6727,214.6727,215.5401,right,1,0.8636,,215.5401,216.5408,1,4,20,14,1,partial,1,images/Ex7.jpg,right,training,hard,4,,,,,
,,,,,64217d8202361ad4dbed3596,001,59,Male,UK (Scotland),BSc (Hons),2024-03-06_15h04.29.507,CRL1h,2023.2.3,Win32,60.24096386,65e67470ae2fbf2172c317b2,65e885b1163b66c815b71f11,,,,,,,,,,,216.541,0.7,217.2414,217.2414,218.4591,left,1,1.215,,218.4591,219.4599,1,5,21,9,1,partial,1,images/Ex2.jpg,left,training,hard,4,,,,,
,,,,,64217d8202361ad4dbed3596,001,59,Male,UK (Scotland),BSc (Hons),2024-03-06_15h04.29.507,CRL1h,2023.2.3,Win32,60.24096386,65e67470ae2fbf2172c317b2,65e885b1163b66c815b71f11,,,,,,,,,,,219.4649,1.2,220.6608,220.6608,221.9287,left,1,1.2636,,221.9287,222.9294,1,6,22,3,1,partial,1,images/Ex4.jpg,left,training,hard,4,,,,,
,,,,,64217d8202361ad4dbed3596,001,59,Male,UK (Scotland),BSc (Hons),2024-03-06_15h04.29.507,CRL1h,2023.2.3,Win32,60.24096386,65e67470ae2fbf2172c317b2,65e885b1163b66c815b71f11,,,,,,,,,,,222.9297,0.9,223.8302,223.8302,224.9479,right,1,1.1153,,224.9479,225.9485,1,7,23,15,1,partial,1,images/Ex8.jpg,right,training,hard,4,,,,,
,,,,,64217d8202361ad4dbed3596,001,59,Male,UK (Scotland),BSc (Hons),2024-03-06_15h04.29.507,CRL1h,2023.2.3,Win32,60.24096386,65e67470ae2fbf2172c317b2,65e885b1163b66c815b71f11,,,,,,,,,,,225.9488,1.3,227.2498,227.2498,228.3507,right,1,1.0958,,228.3507,229.3515,1,8,24,6,1,partial,1,images/Ex7.jpg,right,training,hard,4,,,,,
,,,,,64217d8202361ad4dbed3596,001,59,Male,UK (Scotland),BSc (Hons),2024-03-06_15h04.29.507,CRL1h,2023.2.3,Win32,60.24096386,65e67470ae2fbf2172c317b2,65e885b1163b66c815b71f11,,,,,,,,,,,229.3518,1,230.3522,230.3522,231.4364,left,0,1.0822,,231.4364,232.4372,1,9,25,4,1,partial,1,images/Ex5.jpg,right,training,hard,4,,,,,
,,,,,64217d8202361ad4dbed3596,001,59,Male,UK (Scotland),BSc (Hons),2024-03-06_15h04.29.507,CRL1h,2023.2.3,Win32,60.24096386,65e67470ae2fbf2172c317b2,65e885b1163b66c815b71f11,,,,,,,,,,,232.4375,1.4,233.8384,233.8384,235.1062,left,1,1.2652,,235.1062,236.107,1,10,26,0,1,partial,1,images/Ex1.jpg,left,training,hard,4,,,,,
,,,,,64217d8202361ad4dbed3596,001,59,Male,UK (Scotland),BSc (Hons),2024-03-06_15h04.29.507,CRL1h,2023.2.3,Win32,60.24096386,65e67470ae2fbf2172c317b2,65e885b1163b66c815b71f11,,,,,,,,,,,236.1072,0.9,237.0077,237.0077,238.2422,right,1,1.222,,238.2422,239.243,1,11,27,7,1,partial,1,images/Ex8.jpg,right,training,hard,4,,,,,
,,,,,64217d8202361ad4dbed3596,001,59,Male,UK (Scotland),BSc (Hons),2024-03-06_15h04.29.507,CRL1h,2023.2.3,Win32,60.24096386,65e67470ae2fbf2172c317b2,65e885b1163b66c815b71f11,,,,,,,,,,,239.2433,0.8,240.0436,240.0437,241.0611,left,1,1.0031,,241.0611,242.0618,1,12,28,1,1,partial,1,images/Ex2.jpg,left,training,hard,4,,,,,
,,,,,64217d8202361ad4dbed3596,001,59,Male,UK (Scotland),BSc (Hons),2024-03-06_15h04.29.507,CRL1h,2023.2.3,Win32,60.24096386,65e67470ae2fbf2172c317b2,65e885b1163b66c815b71f11,,,,,,,,,,,242.062,0.7,242.7624,242.7624,243.6466,right,0,0.8713,,243.6466,244.6473,1,13,29,8,1,partial,1,images/Ex1.jpg,left,training,hard,4,,,,,
,,,,,64217d8202361ad4dbed3596,001,59,Male,UK (Scotland),BSc (Hons),2024-03-06_15h04.29.507,CRL1h,2023.2.3,Win32,60.24096386,65e67470ae2fbf2172c317b2,65e885b1163b66c815b71f11,,,,,,,,,,,244.6475,0.6,245.2482,245.2482,246.499,right,1,1.2427,,246.499,247.4996,1,14,30,13,1,partial,1,images/Ex6.jpg,right,training,hard,4,,,,,
,,,,,64217d8202361ad4dbed3596,001,59,Male,UK (Scotland),BSc (Hons),2024-03-06_15h04.29.507,CRL1h,2023.2.3,Win32,60.24096386,65e67470ae2fbf2172c317b2,65e885b1163b66c815b71f11,,,,,,,,,,,247.5047,1.1,248.6006,248.6006,249.6348,right,1,1.0318,,249.6348,250.6355,1,15,31,5,1,partial,1,images/Ex6.jpg,right,training,hard,4,,,,,
,,,,,64217d8202361ad4dbed3596,001,59,Male,UK (Scotland),BSc (Hons),2024-03-06_15h04.29.507,CRL1h,2023.2.3,Win32,60.24096386,65e67470ae2fbf2172c317b2,65e885b1163b66c815b71f11,,,,,,,,,,,250.6358,1.2,251.8256,251.8256,253.0544,left,0,1.2262,,253.0545,254.0551,2,0,32,7,1,partial,1,images/Ex8.jpg,right,training,hard,4,,,,,
,,,,,64217d8202361ad4dbed3596,001,59,Male,UK (Scotland),BSc (Hons),2024-03-06_15h04.29.507,CRL1h,2023.2.3,Win32,60.24096386,65e67470ae2fbf2172c317b2,65e885b1163b66c815b71f11,,,,,,,,,,,254.0554,0.6,254.6555,254.6555,255.84,right,0,1.1763,,255.84,256.8407,2,1,33,10,1,partial,1,images/Ex3.jpg,left,training,hard,4,,,,,
,,,,,64217d8202361ad4dbed3596,001,59,Male,UK (Scotland),BSc (Hons),2024-03-06_15h04.29.507,CRL1h,2023.2.3,Win32,60.24096386,65e67470ae2fbf2172c317b2,65e885b1163b66c815b71f11,,,,,,,,,,,256.8409,1.2,258.0416,258.0417,259.0592,right,1,1.0141,,259.0592,260.0601,2,2,34,6,1,partial,1,images/Ex7.jpg,right,training,hard,4,,,,,
,,,,,64217d8202361ad4dbed3596,001,59,Male,UK (Scotland),BSc (Hons),2024-03-06_15h04.29.507,CRL1h,2023.2.3,Win32,60.24096386,65e67470ae2fbf2172c317b2,65e885b1163b66c815b71f11,,,,,,,,,,,260.0603,0.6,260.6605,260.6605,261.945,left,1,1.2724,,261.9451,262.9457,2,3,35,9,1,partial,1,images/Ex2.jpg,left,training,hard,4,,,,,
,,,,,64217d8202361ad4dbed3596,001,59,Male,UK (Scotland),BSc (Hons),2024-03-06_15h04.29.507,CRL1h,2023.2.3,Win32,60.24096386,65e67470ae2fbf2172c317b2,65e885b1163b66c815b71f11,,,,,,,,,,,262.9459,0.9,263.8464,263.8465,264.9975,right,0,1.1501,,264.9975,265.9982,2,4,36,8,1,partial,1,images/Ex1.jpg,left,training,hard,4,,,,,
,,,,,64217d8202361ad4dbed3596,001,59,Male,UK (Scotland),BSc (Hons),2024-03-06_15h04.29.507,CRL1h,2023.2.3,Win32,60.24096386,65e67470ae2fbf2172c317b2,65e885b1163b66c815b71f11,,,,,,,,,,,265.9984,1.4,267.3996,267.3997,268.4337,right,1,1.0185,,268.4338,269.4343,2,5,37,15,1,partial,1,images/Ex8.jpg,right,training,hard,4,,,,,
,,,,,64217d8202361ad4dbed3596,001,59,Male,UK (Scotland),BSc (Hons),2024-03-06_15h04.29.507,CRL1h,2023.2.3,Win32,60.24096386,65e67470ae2fbf2172c317b2,65e885b1163b66c815b71f11,,,,,,,,,,,269.4347,1.4,270.8356,270.8356,272.0366,left,0,1.1914,,272.0366,273.0374,2,6,38,13,1,partial,1,images/Ex6.jpg,right,training,hard,4,,,,,
,,,,,64217d8202361ad4dbed3596,001,59,Male,UK (Scotland),BSc (Hons),2024-03-06_15h04.29.507,CRL1h,2023.2.3,Win32,60.24096386,65e67470ae2fbf2172c317b2,65e885b1163b66c815b71f11,,,,,,,,,,,273.0378,0.7,273.7379,273.7379,274.7722,right,0,1.0231,,274.7722,275.7729,2,7,39,2,1,partial,1,images/Ex3.jpg,left,training,hard,4,,,,,
,,,,,64217d8202361ad4dbed3596,001,59,Male,UK (Scotland),BSc (Hons),2024-03-06_15h04.29.507,CRL1h,2023.2.3,Win32,60.24096386,65e67470ae2fbf2172c317b2,65e885b1163b66c815b71f11,,,,,,,,,,,275.7733,0.6,276.3734,276.3735,277.758,right,0,1.3755,,277.7581,278.7587,2,8,40,0,1,partial,1,images/Ex1.jpg,left,training,hard,4,,,,,
,,,,,64217d8202361ad4dbed3596,001,59,Male,UK (Scotland),BSc (Hons),2024-03-06_15h04.29.507,CRL1h,2023.2.3,Win32,60.24096386,65e67470ae2fbf2172c317b2,65e885b1163b66c815b71f11,,,,,,,,,,,278.7589,1.4,280.16,280.1601,281.2442,right,1,1.0702,,281.2442,282.2449,2,9,41,5,1,partial,1,images/Ex6.jpg,right,training,hard,4,,,,,
,,,,,64217d8202361ad4dbed3596,001,59,Male,UK (Scotland),BSc (Hons),2024-03-06_15h04.29.507,CRL1h,2023.2.3,Win32,60.24096386,65e67470ae2fbf2172c317b2,65e885b1163b66c815b71f11,,,,,,,,,,,282.2451,0.7,282.9455,282.9455,283.8796,right,1,0.9313,,283.8796,284.8805,2,10,42,14,1,partial,1,images/Ex7.jpg,right,training,hard,4,,,,,
,,,,,64217d8202361ad4dbed3596,001,59,Male,UK (Scotland),BSc (Hons),2024-03-06_15h04.29.507,CRL1h,2023.2.3,Win32,60.24096386,65e67470ae2fbf2172c317b2,65e885b1163b66c815b71f11,,,,,,,,,,,284.8807,1.4,286.2816,286.2817,287.6495,left,1,1.3557,,287.6495,288.6502,2,11,43,11,1,partial,1,images/Ex4.jpg,left,training,hard,4,,,,,
,,,,,64217d8202361ad4dbed3596,001,59,Male,UK (Scotland),BSc (Hons),2024-03-06_15h04.29.507,CRL1h,2023.2.3,Win32,60.24096386,65e67470ae2fbf2172c317b2,65e885b1163b66c815b71f11,,,,,,,,,,,288.6504,1.5,290.1515,290.1515,291.0856,right,0,0.93,,291.0857,292.0864,2,12,44,1,1,partial,1,images/Ex2.jpg,left,training,hard,4,,,,,
,,,,,64217d8202361ad4dbed3596,001,59,Male,UK (Scotland),BSc (Hons),2024-03-06_15h04.29.507,CRL1h,2023.2.3,Win32,60.24096386,65e67470ae2fbf2172c317b2,65e885b1163b66c815b71f11,,,,,,,,,,,292.0866,1.3,293.3875,293.3875,294.8386,left,0,1.4419,,294.8386,295.8395,2,13,45,4,1,partial,1,images/Ex5.jpg,right,training,hard,4,,,,,
,,,,,64217d8202361ad4dbed3596,001,59,Male,UK (Scotland),BSc (Hons),2024-03-06_15h04.29.507,CRL1h,2023.2.3,Win32,60.24096386,65e67470ae2fbf2172c317b2,65e885b1163b66c815b71f11,,,,,,,,,,,295.8442,0.9,296.7403,296.7403,298.325,left,1,1.5748,,298.325,299.3257,2,14,46,3,1,partial,1,images/Ex4.jpg,left,training,hard,4,,,,,
,,,,,64217d8202361ad4dbed3596,001,59,Male,UK (Scotland),BSc (Hons),2024-03-06_15h04.29.507,CRL1h,2023.2.3,Win32,60.24096386,65e67470ae2fbf2172c317b2,65e885b1163b66c815b71f11,,,,,,,,,,,299.326,1.2,300.5267,300.5267,301.9279,right,1,1.3908,,301.9279,302.9286,2,15,47,12,1,partial,1,images/Ex5.jpg,right,training,hard,4,,,,,
,,,,,64217d8202361ad4dbed3596,001,59,Male,UK (Scotland),BSc (Hons),2024-03-06_15h04.29.507,CRL1h,2023.2.3,Win32,60.24096386,65e67470ae2fbf2172c317b2,65e885b1163b66c815b71f11,,,,,,,,,,,302.9288,1.3,304.2297,304.2297,305.1139,right,1,0.8799,,305.1139,306.1146,3,0,48,14,1,partial,1,images/Ex7.jpg,right,training,hard,4,,,,,
,,,,,64217d8202361ad4dbed3596,001,59,Male,UK (Scotland),BSc (Hons),2024-03-06_15h04.29.507,CRL1h,2023.2.3,Win32,60.24096386,65e67470ae2fbf2172c317b2,65e885b1163b66c815b71f11,,,,,,,,,,,306.1149,1.4,307.5158,307.5158,308.2664,right,1,0.7364,,308.2665,309.2672,3,1,49,6,1,partial,1,images/Ex7.jpg,right,training,hard,4,,,,,
,,,,,64217d8202361ad4dbed3596,001,59,Male,UK (Scotland),BSc (Hons),2024-03-06_15h04.29.507,CRL1h,2023.2.3,Win32,60.24096386,65e67470ae2fbf2172c317b2,65e885b1163b66c815b71f11,,,,,,,,,,,309.2675,0.5,309.7676,309.7676,310.8352,right,1,1.0649,,310.8352,311.836,3,2,50,13,1,partial,1,images/Ex6.jpg,right,training,hard,4,,,,,
,,,,,64217d8202361ad4dbed3596,001,59,Male,UK (Scotland),BSc (Hons),2024-03-06_15h04.29.507,CRL1h,2023.2.3,Win32,60.24096386,65e67470ae2fbf2172c317b2,65e885b1163b66c815b71f11,,,,,,,,,,,311.8362,1.3,313.137,313.137,314.2046,right,1,1.0644,,314.2047,315.2054,3,3,51,7,1,partial,1,images/Ex8.jpg,right,training,hard,4,,,,,
,,,,,64217d8202361ad4dbed3596,001,59,Male,UK (Scotland),BSc (Hons),2024-03-06_15h04.29.507,CRL1h,2023.2.3,Win32,60.24096386,65e67470ae2fbf2172c317b2,65e885b1163b66c815b71f11,,,,,,,,,,,315.2057,0.7,315.906,315.9061,316.957,right,1,1.0442,,316.957,317.9599,3,4,52,4,1,partial,1,images/Ex5.jpg,right,training,hard,4,,,,,
,,,,,64217d8202361ad4dbed3596,001,59,Male,UK (Scotland),BSc (Hons),2024-03-06_15h04.29.507,CRL1h,2023.2.3,Win32,60.24096386,65e67470ae2fbf2172c317b2,65e885b1163b66c815b71f11,,,,,,,,,,,317.9602,1.4,319.3589,319.3589,320.193,left,1,0.8286,,320.193,321.1937,3,5,53,1,1,partial,1,images/Ex2.jpg,left,training,hard,4,,,,,
,,,,,64217d8202361ad4dbed3596,001,59,Male,UK (Scotland),BSc (Hons),2024-03-06_15h04.29.507,CRL1h,2023.2.3,Win32,60.24096386,65e67470ae2fbf2172c317b2,65e885b1163b66c815b71f11,,,,,,,,,,,321.1939,0.5,321.694,321.6941,322.4614,left,0,0.7544,,322.4614,323.4621,3,6,54,12,1,partial,1,images/Ex5.jpg,right,training,hard,4,,,,,
,,,,,64217d8202361ad4dbed3596,001,59,Male,UK (Scotland),BSc (Hons),2024-03-06_15h04.29.507,CRL1h,2023.2.3,Win32,60.24096386,65e67470ae2fbf2172c317b2,65e885b1163b66c815b71f11,,,,,,,,,,,323.4624,1.1,324.5632,324.5632,325.9476,right,0,1.3744,,325.9477,326.9484,3,7,55,2,1,partial,1,images/Ex3.jpg,left,training,hard,4,,,,,
,,,,,64217d8202361ad4dbed3596,001,59,Male,UK (Scotland),BSc (Hons),2024-03-06_15h04.29.507,CRL1h,2023.2.3,Win32,60.24096386,65e67470ae2fbf2172c317b2,65e885b1163b66c815b71f11,,,,,,,,,,,326.9488,1.3,328.2495,328.2495,329.634,left,1,1.3726,,329.6341,330.6347,3,8,56,3,1,partial,1,images/Ex4.jpg,left,training,hard,4,,,,,
,,,,,64217d8202361ad4dbed3596,001,59,Male,UK (Scotland),BSc (Hons),2024-03-06_15h04.29.507,CRL1h,2023.2.3,Win32,60.24096386,65e67470ae2fbf2172c317b2,65e885b1163b66c815b71f11,,,,,,,,,,,330.635,1.4,332.036,332.036,332.7701,left,1,0.7214,,332.7701,333.7708,3,9,57,0,1,partial,1,images/Ex1.jpg,left,training,hard,4,,,,,
,,,,,64217d8202361ad4dbed3596,001,59,Male,UK (Scotland),BSc (Hons),2024-03-06_15h04.29.507,CRL1h,2023.2.3,Win32,60.24096386,65e67470ae2fbf2172c317b2,65e885b1163b66c815b71f11,,,,,,,,,,,333.7711,1.3,335.0717,335.0717,335.972,right,1,0.8997,,335.972,336.9604,3,10,58,15,1,partial,1,images/Ex8.jpg,right,training,hard,4,,,,,
,,,,,64217d8202361ad4dbed3596,001,59,Male,UK (Scotland),BSc (Hons),2024-03-06_15h04.29.507,CRL1h,2023.2.3,Win32,60.24096386,65e67470ae2fbf2172c317b2,65e885b1163b66c815b71f11,,,,,,,,,,,336.9605,1.5,338.4579,338.4579,339.6423,right,0,1.1798,,339.6423,340.643,3,11,59,9,1,partial,1,images/Ex2.jpg,left,training,hard,4,,,,,
,,,,,64217d8202361ad4dbed3596,001,59,Male,UK (Scotland),BSc (Hons),2024-03-06_15h04.29.507,CRL1h,2023.2.3,Win32,60.24096386,65e67470ae2fbf2172c317b2,65e885b1163b66c815b71f11,,,,,,,,,,,340.6433,0.7,341.3436,341.3436,342.3779,right,0,1.031,,342.3779,343.3787,3,12,60,11,1,partial,1,images/Ex4.jpg,left,training,hard,4,,,,,
,,,,,64217d8202361ad4dbed3596,001,59,Male,UK (Scotland),BSc (Hons),2024-03-06_15h04.29.507,CRL1h,2023.2.3,Win32,60.24096386,65e67470ae2fbf2172c317b2,65e885b1163b66c815b71f11,,,,,,,,,,,343.3789,1.5,344.8799,344.8799,345.869,right,1,0.9884,,345.869,346.8649,3,13,61,5,1,partial,1,images/Ex6.jpg,right,training,hard,4,,,,,
,,,,,64217d8202361ad4dbed3596,001,59,Male,UK (Scotland),BSc (Hons),2024-03-06_15h04.29.507,CRL1h,2023.2.3,Win32,60.24096386,65e67470ae2fbf2172c317b2,65e885b1163b66c815b71f11,,,,,,,,,,,346.8652,1.5,348.366,348.366,349.317,left,1,0.945,,349.3171,350.3178,3,14,62,8,1,partial,1,images/Ex1.jpg,left,training,hard,4,,,,,
,,,,,64217d8202361ad4dbed3596,001,59,Male,UK (Scotland),BSc (Hons),2024-03-06_15h04.29.507,CRL1h,2023.2.3,Win32,60.24096386,65e67470ae2fbf2172c317b2,65e885b1163b66c815b71f11,,,,,,,,,,,350.318,0.7,351.0182,351.0182,351.9191,right,0,0.8937,,351.9191,352.9198,3,15,63,10,1,partial,1,images/Ex3.jpg,left,training,hard,4,,,,,
,,,,,64217d8202361ad4dbed3596,001,59,Male,UK (Scotland),BSc (Hons),2024-03-06_15h04.29.507,CRL1h,2023.2.3,Win32,60.24096386,65e67470ae2fbf2172c317b2,65e885b1163b66c815b71f11,,,,,,,,,,,352.9202,1.1,354.0208,354.0208,355.4052,left,1,1.3761,,355.4053,356.4061,4,0,64,3,1,partial,1,images/Ex4.jpg,left,training,hard,4,,,,,
,,,,,64217d8202361ad4dbed3596,001,59,Male,UK (Scotland),BSc (Hons),2024-03-06_15h04.29.507,CRL1h,2023.2.3,Win32,60.24096386,65e67470ae2fbf2172c317b2,65e885b1163b66c815b71f11,,,,,,,,,,,356.4064,1.3,357.7071,357.7071,359.0917,left,1,1.3694,,359.0918,360.0924,4,1,65,9,1,partial,1,images/Ex2.jpg,left,training,hard,4,,,,,
,,,,,64217d8202361ad4dbed3596,001,59,Male,UK (Scotland),BSc (Hons),2024-03-06_15h04.29.507,CRL1h,2023.2.3,Win32,60.24096386,65e67470ae2fbf2172c317b2,65e885b1163b66c815b71f11,,,,,,,,,,,360.0928,0.9,360.9932,360.9932,361.8303,right,1,0.8364,,361.8303,362.8307,4,2,66,4,1,partial,1,images/Ex5.jpg,right,training,hard,4,,,,,
,,,,,64217d8202361ad4dbed3596,001,59,Male,UK (Scotland),BSc (Hons),2024-03-06_15h04.29.507,CRL1h,2023.2.3,Win32,60.24096386,65e67470ae2fbf2172c317b2,65e885b1163b66c815b71f11,,,,,,,,,,,362.8309,0.7,363.5285,363.5286,364.5797,right,1,1.0465,,364.5797,365.5829,4,3,67,14,1,partial,1,images/Ex7.jpg,right,training,hard,4,,,,,
,,,,,64217d8202361ad4dbed3596,001,59,Male,UK (Scotland),BSc (Hons),2024-03-06_15h04.29.507,CRL1h,2023.2.3,Win32,60.24096386,65e67470ae2fbf2172c317b2,65e885b1163b66c815b71f11,,,,,,,,,,,365.583,0.8,366.3809,366.3809,367.2186,right,0,0.837,,367.2186,368.232,4,4,68,2,1,partial,1,images/Ex3.jpg,left,training,hard,4,,,,,
,,,,,64217d8202361ad4dbed3596,001,59,Male,UK (Scotland),BSc (Hons),2024-03-06_15h04.29.507,CRL1h,2023.2.3,Win32,60.24096386,65e67470ae2fbf2172c317b2,65e885b1163b66c815b71f11,,,,,,,,,,,368.2322,0.9,369.1333,369.1333,370.4843,left,1,1.3397,,370.4844,371.4886,4,5,69,11,1,partial,1,images/Ex4.jpg,left,training,hard,4,,,,,
,,,,,64217d8202361ad4dbed3596,001,59,Male,UK (Scotland),BSc (Hons),2024-03-06_15h04.29.507,CRL1h,2023.2.3,Win32,60.24096386,65e67470ae2fbf2172c317b2,65e885b1163b66c815b71f11,,,,,,,,,,,371.4888,0.6,372.0857,372.0858,372.953,right,1,0.8627,,372.9531,373.9538,4,6,70,6,1,partial,1,images/Ex7.jpg,right,training,hard,4,,,,,
,,,,,64217d8202361ad4dbed3596,001,59,Male,UK (Scotland),BSc (Hons),2024-03-06_15h04.29.507,CRL1h,2023.2.3,Win32,60.24096386,65e67470ae2fbf2172c317b2,65e885b1163b66c815b71f11,,,,,,,,,,,373.954,0.7,374.6544,374.6544,375.8222,right,1,1.1597,,375.8223,376.8229,4,7,71,13,1,partial,1,images/Ex6.jpg,right,training,hard,4,,,,,
,,,,,64217d8202361ad4dbed3596,001,59,Male,UK (Scotland),BSc (Hons),2024-03-06_15h04.29.507,CRL1h,2023.2.3,Win32,60.24096386,65e67470ae2fbf2172c317b2,65e885b1163b66c815b71f11,,,,,,,,,,,376.8231,0.7,377.5234,377.5234,378.5412,right,1,1.0077,,378.5412,379.5417,4,8,72,15,1,partial,1,images/Ex8.jpg,right,training,hard,4,,,,,
,,,,,64217d8202361ad4dbed3596,001,59,Male,UK (Scotland),BSc (Hons),2024-03-06_15h04.29.507,CRL1h,2023.2.3,Win32,60.24096386,65e67470ae2fbf2172c317b2,65e885b1163b66c815b71f11,,,,,,,,,,,379.542,1.5,381.043,381.043,382.0272,left,1,0.9745,,382.0272,383.0279,4,9,73,1,1,partial,1,images/Ex2.jpg,left,training,hard,4,,,,,
,,,,,64217d8202361ad4dbed3596,001,59,Male,UK (Scotland),BSc (Hons),2024-03-06_15h04.29.507,CRL1h,2023.2.3,Win32,60.24096386,65e67470ae2fbf2172c317b2,65e885b1163b66c815b71f11,,,,,,,,,,,383.0281,1,384.0288,384.0288,385.1297,right,1,1.0955,,385.1297,386.1306,4,10,74,12,1,partial,1,images/Ex5.jpg,right,training,hard,4,,,,,
,,,,,64217d8202361ad4dbed3596,001,59,Male,UK (Scotland),BSc (Hons),2024-03-06_15h04.29.507,CRL1h,2023.2.3,Win32,60.24096386,65e67470ae2fbf2172c317b2,65e885b1163b66c815b71f11,,,,,,,,,,,386.1309,0.7,386.8311,386.8311,387.9822,right,1,1.1472,,387.9822,388.9992,4,11,75,5,1,partial,1,images/Ex6.jpg,right,training,hard,4,,,,,
,,,,,64217d8202361ad4dbed3596,001,59,Male,UK (Scotland),BSc (Hons),2024-03-06_15h04.29.507,CRL1h,2023.2.3,Win32,60.24096386,65e67470ae2fbf2172c317b2,65e885b1163b66c815b71f11,,,,,,,,,,,388.9993,0.6,389.6001,389.6001,390.4011,left,1,0.7856,,390.4011,391.4015,4,12,76,0,1,partial,1,images/Ex1.jpg,left,training,hard,4,,,,,
,,,,,64217d8202361ad4dbed3596,001,59,Male,UK (Scotland),BSc (Hons),2024-03-06_15h04.29.507,CRL1h,2023.2.3,Win32,60.24096386,65e67470ae2fbf2172c317b2,65e885b1163b66c815b71f11,,,,,,,,,,,391.4019,1.2,392.6025,392.6025,393.6534,right,0,1.0471,,393.6534,394.6542,4,13,77,10,1,partial,1,images/Ex3.jpg,left,training,hard,4,,,,,
,,,,,64217d8202361ad4dbed3596,001,59,Male,UK (Scotland),BSc (Hons),2024-03-06_15h04.29.507,CRL1h,2023.2.3,Win32,60.24096386,65e67470ae2fbf2172c317b2,65e885b1163b66c815b71f11,,,,,,,,,,,394.6545,0.6,395.2546,395.2546,396.7227,left,0,1.4568,,396.7228,397.7234,4,14,78,7,1,partial,1,images/Ex8.jpg,right,training,hard,4,,,,,
,,,,,64217d8202361ad4dbed3596,001,59,Male,UK (Scotland),BSc (Hons),2024-03-06_15h04.29.507,CRL1h,2023.2.3,Win32,60.24096386,65e67470ae2fbf2172c317b2,65e885b1163b66c815b71f11,,,,,,,,,,,397.7285,1,398.7242,398.7242,399.675,left,1,0.9441,,399.6751,400.6758,4,15,79,8,1,partial,1,images/Ex1.jpg,left,training,hard,4,,,,,
,,,,,64217d8202361ad4dbed3596,001,59,Male,UK (Scotland),BSc (Hons),2024-03-06_15h04.29.507,CRL1h,2023.2.3,Win32,60.24096386,65e67470ae2fbf2172c317b2,65e885b1163b66c815b71f11,,,,,,,,,,,400.6761,0.9,401.5765,401.5766,402.6442,right,1,1.06,,402.6442,403.6451,5,0,80,5,1,partial,1,images/Ex6.jpg,right,training,hard,4,,,,,
,,,,,64217d8202361ad4dbed3596,001,59,Male,UK (Scotland),BSc (Hons),2024-03-06_15h04.29.507,CRL1h,2023.2.3,Win32,60.24096386,65e67470ae2fbf2172c317b2,65e885b1163b66c815b71f11,,,,,,,,,,,403.6454,1.5,405.1462,405.1462,406.4524,left,1,1.3056,,406.4524,407.4481,5,1,81,10,1,partial,1,images/Ex3.jpg,left,training,hard,4,,,,,
,,,,,64217d8202361ad4dbed3596,001,59,Male,UK (Scotland),BSc (Hons),2024-03-06_15h04.29.507,CRL1h,2023.2.3,Win32,60.24096386,65e67470ae2fbf2172c317b2,65e885b1163b66c815b71f11,,,,,,,,,,,407.4483,1.3,408.7491,408.7492,409.8001,right,1,1.0473,,409.8002,410.8008,5,2,82,14,1,partial,1,images/Ex7.jpg,right,training,hard,4,,,,,
,,,,,64217d8202361ad4dbed3596,001,59,Male,UK (Scotland),BSc (Hons),2024-03-06_15h04.29.507,CRL1h,2023.2.3,Win32,60.24096386,65e67470ae2fbf2172c317b2,65e885b1163b66c815b71f11,,,,,,,,,,,410.8011,1,411.8016,411.8017,412.7018,left,1,0.8996,,412.7018,413.7032,5,3,83,8,1,partial,1,images/Ex1.jpg,left,training,hard,4,,,,,
,,,,,64217d8202361ad4dbed3596,001,59,Male,UK (Scotland),BSc (Hons),2024-03-06_15h04.29.507,CRL1h,2023.2.3,Win32,60.24096386,65e67470ae2fbf2172c317b2,65e885b1163b66c815b71f11,,,,,,,,,,,413.7035,0.8,414.5039,414.5039,415.6882,right,1,1.1767,,415.6882,416.6891,5,4,84,7,1,partial,1,images/Ex8.jpg,right,training,hard,4,,,,,
,,,,,64217d8202361ad4dbed3596,001,59,Male,UK (Scotland),BSc (Hons),2024-03-06_15h04.29.507,CRL1h,2023.2.3,Win32,60.24096386,65e67470ae2fbf2172c317b2,65e885b1163b66c815b71f11,,,,,,,,,,,416.6893,0.6,417.2895,417.2895,418.0736,left,1,0.7711,,418.0736,419.0745,5,5,85,11,1,partial,1,images/Ex4.jpg,left,training,hard,4,,,,,
,,,,,64217d8202361ad4dbed3596,001,59,Male,UK (Scotland),BSc (Hons),2024-03-06_15h04.29.507,CRL1h,2023.2.3,Win32,60.24096386,65e67470ae2fbf2172c317b2,65e885b1163b66c815b71f11,,,,,,,,,,,419.0747,1.3,420.3753,420.3754,421.2596,right,1,0.8762,,421.2597,422.2603,5,6,86,15,1,partial,1,images/Ex8.jpg,right,training,hard,4,,,,,
,,,,,64217d8202361ad4dbed3596,001,59,Male,UK (Scotland),BSc (Hons),2024-03-06_15h04.29.507,CRL1h,2023.2.3,Win32,60.24096386,65e67470ae2fbf2172c317b2,65e885b1163b66c815b71f11,,,,,,,,,,,422.2606,1.3,423.5614,423.5614,424.2119,right,0,0.6424,,424.2119,425.2127,5,7,87,2,1,partial,1,images/Ex3.jpg,left,training,hard,4,,,,,
,,,,,64217d8202361ad4dbed3596,001,59,Male,UK (Scotland),BSc (Hons),2024-03-06_15h04.29.507,CRL1h,2023.2.3,Win32,60.24096386,65e67470ae2fbf2172c317b2,65e885b1163b66c815b71f11,,,,,,,,,,,425.2131,0.9,426.1134,426.1134,427.2312,right,1,1.1114,,427.2312,428.2319,5,8,88,12,1,partial,1,images/Ex5.jpg,right,training,hard,4,,,,,
,,,,,64217d8202361ad4dbed3596,001,59,Male,UK (Scotland),BSc (Hons),2024-03-06_15h04.29.507,CRL1h,2023.2.3,Win32,60.24096386,65e67470ae2fbf2172c317b2,65e885b1163b66c815b71f11,,,,,,,,,,,428.232,0.7,428.9343,428.9343,429.8666,left,1,0.9316,,429.8666,430.8673,5,9,89,3,1,partial,1,images/Ex4.jpg,left,training,hard,4,,,,,
,,,,,64217d8202361ad4dbed3596,001,59,Male,UK (Scotland),BSc (Hons),2024-03-06_15h04.29.507,CRL1h,2023.2.3,Win32,60.24096386,65e67470ae2fbf2172c317b2,65e885b1163b66c815b71f11,,,,,,,,,,,430.8676,1.3,432.1685,432.1685,433.0192,left,1,0.8401,,433.0193,434.0202,5,10,90,0,1,partial,1,images/Ex1.jpg,left,training,hard,4,,,,,
,,,,,64217d8202361ad4dbed3596,001,59,Male,UK (Scotland),BSc (Hons),2024-03-06_15h04.29.507,CRL1h,2023.2.3,Win32,60.24096386,65e67470ae2fbf2172c317b2,65e885b1163b66c815b71f11,,,,,,,,,,,434.0204,0.9,434.9227,434.9227,436.1885,right,1,1.2589,,436.1886,437.1892,5,11,91,4,1,partial,1,images/Ex5.jpg,right,training,hard,4,,,,,
,,,,,64217d8202361ad4dbed3596,001,59,Male,UK (Scotland),BSc (Hons),2024-03-06_15h04.29.507,CRL1h,2023.2.3,Win32,60.24096386,65e67470ae2fbf2172c317b2,65e885b1163b66c815b71f11,,,,,,,,,,,437.1895,0.9,438.09,438.09,439.4078,left,1,1.3119,,439.4078,440.4085,5,12,92,1,1,partial,1,images/Ex2.jpg,left,training,hard,4,,,,,
,,,,,64217d8202361ad4dbed3596,001,59,Male,UK (Scotland),BSc (Hons),2024-03-06_15h04.29.507,CRL1h,2023.2.3,Win32,60.24096386,65e67470ae2fbf2172c317b2,65e885b1163b66c815b71f11,,,,,,,,,,,440.4088,1.4,441.8097,441.8098,442.5772,right,1,0.7551,,442.5773,443.5778,5,13,93,6,1,partial,1,images/Ex7.jpg,right,training,hard,4,,,,,
,,,,,64217d8202361ad4dbed3596,001,59,Male,UK (Scotland),BSc (Hons),2024-03-06_15h04.29.507,CRL1h,2023.2.3,Win32,60.24096386,65e67470ae2fbf2172c317b2,65e885b1163b66c815b71f11,,,,,,,,,,,443.5782,0.5,444.0841,444.0841,444.8623,right,1,0.765,,444.8623,445.863,5,14,94,13,1,partial,1,images/Ex6.jpg,right,training,hard,4,,,,,
,,,,,64217d8202361ad4dbed3596,001,59,Male,UK (Scotland),BSc (Hons),2024-03-06_15h04.29.507,CRL1h,2023.2.3,Win32,60.24096386,65e67470ae2fbf2172c317b2,65e885b1163b66c815b71f11,,,,,,,,,,,445.8633,1.3,447.164,447.164,448.0316,left,1,0.8659,,448.0316,449.0323,5,15,95,9,1,partial,1,images/Ex2.jpg,left,training,hard,4,,,,,
,,,,,64217d8202361ad4dbed3596,001,59,Male,UK (Scotland),BSc (Hons),2024-03-06_15h04.29.507,CRL1h,2023.2.3,Win32,60.24096386,65e67470ae2fbf2172c317b2,65e885b1163b66c815b71f11,,,,,,,,,,,449.0325,0.5,449.5327,449.5328,450.3501,right,1,0.8096,,450.3501,451.351,6,0,96,5,1,partial,1,images/Ex6.jpg,right,training,hard,4,,,,,
,,,,,64217d8202361ad4dbed3596,001,59,Male,UK (Scotland),BSc (Hons),2024-03-06_15h04.29.507,CRL1h,2023.2.3,Win32,60.24096386,65e67470ae2fbf2172c317b2,65e885b1163b66c815b71f11,,,,,,,,,,,451.3513,0.7,452.0516,452.0516,453.0023,right,1,0.9417,,453.0023,454.003,6,1,97,7,1,partial,1,images/Ex8.jpg,right,training,hard,4,,,,,
,,,,,64217d8202361ad4dbed3596,001,59,Male,UK (Scotland),BSc (Hons),2024-03-06_15h04.29.507,CRL1h,2023.2.3,Win32,60.24096386,65e67470ae2fbf2172c317b2,65e885b1163b66c815b71f11,,,,,,,,,,,454.0032,1.3,455.3054,455.3054,456.2717,left,0,0.9625,,456.2717,457.2724,6,2,98,12,1,partial,1,images/Ex5.jpg,right,training,hard,4,,,,,
,,,,,64217d8202361ad4dbed3596,001,59,Male,UK (Scotland),BSc (Hons),2024-03-06_15h04.29.507,CRL1h,2023.2.3,Win32,60.24096386,65e67470ae2fbf2172c317b2,65e885b1163b66c815b71f11,,,,,,,,,,,457.2726,1.3,458.5735,458.5736,459.5411,right,1,0.9587,,459.5411,460.5537,6,3,99,15,1,partial,1,images/Ex8.jpg,right,training,hard,4,,,,,
,,,,,64217d8202361ad4dbed3596,001,59,Male,UK (Scotland),BSc (Hons),2024-03-06_15h04.29.507,CRL1h,2023.2.3,Win32,60.24096386,65e67470ae2fbf2172c317b2,65e885b1163b66c815b71f11,,,,,,,,,,,460.5539,0.5,461.0423,461.0423,461.893,left,1,0.841,,461.8931,462.8939,6,4,100,8,1,partial,1,images/Ex1.jpg,left,training,hard,4,,,,,
,,,,,64217d8202361ad4dbed3596,001,59,Male,UK (Scotland),BSc (Hons),2024-03-06_15h04.29.507,CRL1h,2023.2.3,Win32,60.24096386,65e67470ae2fbf2172c317b2,65e885b1163b66c815b71f11,,,,,,,,,,,462.8942,1,463.8946,463.8946,464.7621,right,0,0.8656,,464.7621,465.7627,6,5,101,10,1,partial,1,images/Ex3.jpg,left,training,hard,4,,,,,
,,,,,64217d8202361ad4dbed3596,001,59,Male,UK (Scotland),BSc (Hons),2024-03-06_15h04.29.507,CRL1h,2023.2.3,Win32,60.24096386,65e67470ae2fbf2172c317b2,65e885b1163b66c815b71f11,,,,,,,,,,,465.763,0.7,466.4634,466.4634,467.6643,left,0,1.1939,,467.6644,468.6652,6,6,102,4,1,partial,1,images/Ex5.jpg,right,training,hard,4,,,,,
,,,,,64217d8202361ad4dbed3596,001,59,Male,UK (Scotland),BSc (Hons),2024-03-06_15h04.29.507,CRL1h,2023.2.3,Win32,60.24096386,65e67470ae2fbf2172c317b2,65e885b1163b66c815b71f11,,,,,,,,,,,468.6654,0.8,469.4537,469.4537,470.5001,left,1,1.0408,,470.5001,471.5008,6,7,103,3,1,partial,1,images/Ex4.jpg,left,training,hard,4,,,,,
,,,,,64217d8202361ad4dbed3596,001,59,Male,UK (Scotland),BSc (Hons),2024-03-06_15h04.29.507,CRL1h,2023.2.3,Win32,60.24096386,65e67470ae2fbf2172c317b2,65e885b1163b66c815b71f11,,,,,,,,,,,471.5011,0.9,472.4016,472.4016,473.2189,right,1,0.8047,,473.2189,474.2197,6,8,104,6,1,partial,1,images/Ex7.jpg,right,training,hard,4,,,,,
,,,,,64217d8202361ad4dbed3596,001,59,Male,UK (Scotland),BSc (Hons),2024-03-06_15h04.29.507,CRL1h,2023.2.3,Win32,60.24096386,65e67470ae2fbf2172c317b2,65e885b1163b66c815b71f11,,,,,,,,,,,474.2201,0.7,474.9203,474.9203,476.0547,right,0,1.1297,,476.0547,477.0565,6,9,105,1,1,partial,1,images/Ex2.jpg,left,training,hard,4,,,,,
,,,,,64217d8202361ad4dbed3596,001,59,Male,UK (Scotland),BSc (Hons),2024-03-06_15h04.29.507,CRL1h,2023.2.3,Win32,60.24096386,65e67470ae2fbf2172c317b2,65e885b1163b66c815b71f11,,,,,,,,,,,477.0567,1.2,478.2564,478.2564,479.2073,left,1,0.9427,,479.2074,480.2079,6,10,106,11,1,partial,1,images/Ex4.jpg,left,training,hard,4,,,,,
,,,,,64217d8202361ad4dbed3596,001,59,Male,UK (Scotland),BSc (Hons),2024-03-06_15h04.29.507,CRL1h,2023.2.3,Win32,60.24096386,65e67470ae2fbf2172c317b2,65e885b1163b66c815b71f11,,,,,,,,,,,480.2082,0.8,481.0087,481.0087,482.2432,right,1,1.2204,,482.2432,483.2438,6,11,107,13,1,partial,1,images/Ex6.jpg,right,training,hard,4,,,,,
,,,,,64217d8202361ad4dbed3596,001,59,Male,UK (Scotland),BSc (Hons),2024-03-06_15h04.29.507,CRL1h,2023.2.3,Win32,60.24096386,65e67470ae2fbf2172c317b2,65e885b1163b66c815b71f11,,,,,,,,,,,483.2441,0.5,483.7443,483.7443,484.6618,right,0,0.913,,484.6618,485.6625,6,12,108,2,1,partial,1,images/Ex3.jpg,left,training,hard,4,,,,,
,,,,,64217d8202361ad4dbed3596,001,59,Male,UK (Scotland),BSc (Hons),2024-03-06_15h04.29.507,CRL1h,2023.2.3,Win32,60.24096386,65e67470ae2fbf2172c317b2,65e885b1163b66c815b71f11,,,,,,,,,,,485.6628,1.3,486.9647,486.9647,487.8144,left,1,0.8358,,487.8144,488.8151,6,13,109,0,1,partial,1,images/Ex1.jpg,left,training,hard,4,,,,,
,,,,,64217d8202361ad4dbed3596,001,59,Male,UK (Scotland),BSc (Hons),2024-03-06_15h04.29.507,CRL1h,2023.2.3,Win32,60.24096386,65e67470ae2fbf2172c317b2,65e885b1163b66c815b71f11,,,,,,,,,,,488.8153,1.5,490.3164,490.3164,491.284,left,1,0.9514,,491.284,492.2846,6,14,110,9,1,partial,1,images/Ex2.jpg,left,training,hard,4,,,,,
,,,,,64217d8202361ad4dbed3596,001,59,Male,UK (Scotland),BSc (Hons),2024-03-06_15h04.29.507,CRL1h,2023.2.3,Win32,60.24096386,65e67470ae2fbf2172c317b2,65e885b1163b66c815b71f11,,,,,,,,,,,492.2849,1.4,493.6857,493.6857,494.3697,right,1,0.6737,,494.3698,495.3576,6,15,111,14,1,partial,1,images/Ex7.jpg,right,training,hard,4,,,,,
,,,,,64217d8202361ad4dbed3596,001,59,Male,UK (Scotland),BSc (Hons),2024-03-06_15h04.29.507,CRL1h,2023.2.3,Win32,60.24096386,65e67470ae2fbf2172c317b2,65e885b1163b66c815b71f11,,,,,,,,,,,495.3578,1.4,496.7551,496.7551,497.6724,right,0,0.9162,,497.6724,498.6733,7,0,112,1,1,partial,1,images/Ex2.jpg,left,training,hard,4,,,,,
,,,,,64217d8202361ad4dbed3596,001,59,Male,UK (Scotland),BSc (Hons),2024-03-06_15h04.29.507,CRL1h,2023.2.3,Win32,60.24096386,65e67470ae2fbf2172c317b2,65e885b1163b66c815b71f11,,,,,,,,,,,498.6735,0.8,499.4739,499.4739,500.4247,right,0,0.938,,500.4247,501.4254,7,1,113,10,1,partial,1,images/Ex3.jpg,left,training,hard,4,,,,,
,,,,,64217d8202361ad4dbed3596,001,59,Male,UK (Scotland),BSc (Hons),2024-03-06_15h04.29.507,CRL1h,2023.2.3,Win32,60.24096386,65e67470ae2fbf2172c317b2,65e885b1163b66c815b71f11,,,,,,,,,,,501.4257,1.4,502.8266,502.8266,503.961,left,1,1.126,,503.9611,504.9617,7,2,114,3,1,partial,1,images/Ex4.jpg,left,training,hard,4,,,,,
,,,,,64217d8202361ad4dbed3596,001,59,Male,UK (Scotland),BSc (Hons),2024-03-06_15h04.29.507,CRL1h,2023.2.3,Win32,60.24096386,65e67470ae2fbf2172c317b2,65e885b1163b66c815b71f11,,,,,,,,,,,504.9619,1.1,506.0626,506.0627,506.88,left,1,0.812,,506.8801,507.8809,7,3,115,0,1,partial,1,images/Ex1.jpg,left,training,hard,4,,,,,
,,,,,64217d8202361ad4dbed3596,001,59,Male,UK (Scotland),BSc (Hons),2024-03-06_15h04.29.507,CRL1h,2023.2.3,Win32,60.24096386,65e67470ae2fbf2172c317b2,65e885b1163b66c815b71f11,,,,,,,,,,,507.881,1.3,509.1819,509.1819,510.4997,left,0,1.306,,510.4997,511.5004,7,4,116,12,1,partial,1,images/Ex5.jpg,right,training,hard,4,,,,,
,,,,,64217d8202361ad4dbed3596,001,59,Male,UK (Scotland),BSc (Hons),2024-03-06_15h04.29.507,CRL1h,2023.2.3,Win32,60.24096386,65e67470ae2fbf2172c317b2,65e885b1163b66c815b71f11,,,,,,,,,,,511.5008,1.2,512.7015,512.7015,513.5022,right,1,0.7893,,513.5022,514.5029,7,5,117,13,1,partial,1,images/Ex6.jpg,right,training,hard,4,,,,,
,,,,,64217d8202361ad4dbed3596,001,59,Male,UK (Scotland),BSc (Hons),2024-03-06_15h04.29.507,CRL1h,2023.2.3,Win32,60.24096386,65e67470ae2fbf2172c317b2,65e885b1163b66c815b71f11,,,,,,,,,,,514.5031,0.6,515.1035,515.1035,515.8708,right,1,0.7602,,515.8708,516.8834,7,6,118,6,1,partial,1,images/Ex7.jpg,right,training,hard,4,,,,,
,,,,,64217d8202361ad4dbed3596,001,59,Male,UK (Scotland),BSc (Hons),2024-03-06_15h04.29.507,CRL1h,2023.2.3,Win32,60.24096386,65e67470ae2fbf2172c317b2,65e885b1163b66c815b71f11,,,,,,,,,,,516.8835,0.9,517.7723,517.7723,518.3895,right,1,0.6167,,518.3895,519.3902,7,7,119,14,1,partial,1,images/Ex7.jpg,right,training,hard,4,,,,,
,,,,,64217d8202361ad4dbed3596,001,59,Male,UK (Scotland),BSc (Hons),2024-03-06_15h04.29.507,CRL1h,2023.2.3,Win32,60.24096386,65e67470ae2fbf2172c317b2,65e885b1163b66c815b71f11,,,,,,,,,,,519.3904,1,520.3911,520.3911,521.1585,left,1,0.7634,,521.1586,522.1592,7,8,120,11,1,partial,1,images/Ex4.jpg,left,training,hard,4,,,,,
,,,,,64217d8202361ad4dbed3596,001,59,Male,UK (Scotland),BSc (Hons),2024-03-06_15h04.29.507,CRL1h,2023.2.3,Win32,60.24096386,65e67470ae2fbf2172c317b2,65e885b1163b66c815b71f11,,,,,,,,,,,522.1594,1.2,523.3602,523.3602,524.1275,left,1,0.7597,,524.1275,525.1284,7,9,121,8,1,partial,1,images/Ex1.jpg,left,training,hard,4,,,,,
,,,,,64217d8202361ad4dbed3596,001,59,Male,UK (Scotland),BSc (Hons),2024-03-06_15h04.29.507,CRL1h,2023.2.3,Win32,60.24096386,65e67470ae2fbf2172c317b2,65e885b1163b66c815b71f11,,,,,,,,,,,525.1286,0.8,525.929,525.929,526.6796,right,1,0.7404,,526.6797,527.6805,7,10,122,5,1,partial,1,images/Ex6.jpg,right,training,hard,4,,,,,
,,,,,64217d8202361ad4dbed3596,001,59,Male,UK (Scotland),BSc (Hons),2024-03-06_15h04.29.507,CRL1h,2023.2.3,Win32,60.24096386,65e67470ae2fbf2172c317b2,65e885b1163b66c815b71f11,,,,,,,,,,,527.6809,1.5,529.1687,529.1687,529.899,right,1,0.7235,,529.8991,530.8998,7,11,123,15,1,partial,1,images/Ex8.jpg,right,training,hard,4,,,,,
,,,,,64217d8202361ad4dbed3596,001,59,Male,UK (Scotland),BSc (Hons),2024-03-06_15h04.29.507,CRL1h,2023.2.3,Win32,60.24096386,65e67470ae2fbf2172c317b2,65e885b1163b66c815b71f11,,,,,,,,,,,530.8999,0.8,531.7004,531.7004,532.7514,right,0,1.0496,,532.7515,533.7484,7,12,124,2,1,partial,1,images/Ex3.jpg,left,training,hard,4,,,,,
,,,,,64217d8202361ad4dbed3596,001,59,Male,UK (Scotland),BSc (Hons),2024-03-06_15h04.29.507,CRL1h,2023.2.3,Win32,60.24096386,65e67470ae2fbf2172c317b2,65e885b1163b66c815b71f11,,,,,,,,,,,533.7485,1.1,534.8363,534.8363,535.7038,left,1,0.8665,,535.7038,536.7046,7,13,125,9,1,partial,1,images/Ex2.jpg,left,training,hard,4,,,,,
,,,,,64217d8202361ad4dbed3596,001,59,Male,UK (Scotland),BSc (Hons),2024-03-06_15h04.29.507,CRL1h,2023.2.3,Win32,60.24096386,65e67470ae2fbf2172c317b2,65e885b1163b66c815b71f11,,,,,,,,,,,536.7048,1.2,537.9081,537.9082,538.8564,right,1,0.9413,,538.8565,539.8571,7,14,126,4,1,partial,1,images/Ex5.jpg,right,training,hard,4,,,,,
,,,,,64217d8202361ad4dbed3596,001,59,Male,UK (Scotland),BSc (Hons),2024-03-06_15h04.29.507,CRL1h,2023.2.3,Win32,60.24096386,65e67470ae2fbf2172c317b2,65e885b1163b66c815b71f11,,,,,,,,,,,539.8574,1.3,541.1583,541.1584,541.8922,right,1,0.7189,,541.8922,542.8929,7,15,127,7,1,partial,1,images/Ex8.jpg,right,training,hard,4,,,,,
,,,,,64217d8202361ad4dbed3596,001,59,Male,UK (Scotland),BSc (Hons),2024-03-06_15h04.29.507,CRL1h,2023.2.3,Win32,60.24096386,65e67470ae2fbf2172c317b2,65e885b1163b66c815b71f11,,,,,,,,,,,542.8959,0.9,543.7939,543.794,544.6779,left,0,0.8798,,544.6779,545.6785,0,0,0,1,1,partial,2,images/Ex2.jpg,right,reversed,hard,4,,,,,
,,,,,64217d8202361ad4dbed3596,001,59,Male,UK (Scotland),BSc (Hons),2024-03-06_15h04.29.507,CRL1h,2023.2.3,Win32,60.24096386,65e67470ae2fbf2172c317b2,65e885b1163b66c815b71f11,,,,,,,,,,,545.6788,1,546.6794,546.6794,547.38,right,0,0.6986,,547.3801,548.3808,0,1,1,3,1,partial,2,images/Ex4.jpg,left,nonreversed,hard,4,,,,,
,,,,,64217d8202361ad4dbed3596,001,59,Male,UK (Scotland),BSc (Hons),2024-03-06_15h04.29.507,CRL1h,2023.2.3,Win32,60.24096386,65e67470ae2fbf2172c317b2,65e885b1163b66c815b71f11,,,,,,,,,,,548.3811,1,549.3816,549.3816,550.6495,right,1,1.2634,,550.6495,551.6523,0,2,2,12,1,partial,2,images/Ex5.jpg,right,nonreversed,hard,4,,,,,
,,,,,64217d8202361ad4dbed3596,001,59,Male,UK (Scotland),BSc (Hons),2024-03-06_15h04.29.507,CRL1h,2023.2.3,Win32,60.24096386,65e67470ae2fbf2172c317b2,65e885b1163b66c815b71f11,,,,,,,,,,,551.6524,0.6,552.2528,552.2528,552.8512,right,0,0.5853,,552.8513,553.852,0,3,3,6,1,partial,2,images/Ex7.jpg,left,reversed,hard,4,,,,,
,,,,,64217d8202361ad4dbed3596,001,59,Male,UK (Scotland),BSc (Hons),2024-03-06_15h04.29.507,CRL1h,2023.2.3,Win32,60.24096386,65e67470ae2fbf2172c317b2,65e885b1163b66c815b71f11,,,,,,,,,,,553.8522,1.2,555.053,555.053,556.0205,right,0,0.9642,,556.0205,557.0213,0,4,4,7,1,partial,2,images/Ex8.jpg,left,reversed,hard,4,,,,,
,,,,,64217d8202361ad4dbed3596,001,59,Male,UK (Scotland),BSc (Hons),2024-03-06_15h04.29.507,CRL1h,2023.2.3,Win32,60.24096386,65e67470ae2fbf2172c317b2,65e885b1163b66c815b71f11,,,,,,,,,,,557.0216,1.4,558.4263,558.4263,559.2399,left,0,0.8017,,559.2399,560.2406,0,5,5,0,1,partial,2,images/Ex1.jpg,right,reversed,hard,4,,,,,
,,,,,64217d8202361ad4dbed3596,001,59,Male,UK (Scotland),BSc (Hons),2024-03-06_15h04.29.507,CRL1h,2023.2.3,Win32,60.24096386,65e67470ae2fbf2172c317b2,65e885b1163b66c815b71f11,,,,,,,,,,,560.2409,1.5,561.7418,561.7418,562.9596,right,0,1.2134,,562.9596,563.9603,0,6,6,14,1,partial,2,images/Ex7.jpg,left,reversed,hard,4,,,,,
,,,,,64217d8202361ad4dbed3596,001,59,Male,UK (Scotland),BSc (Hons),2024-03-06_15h04.29.507,CRL1h,2023.2.3,Win32,60.24096386,65e67470ae2fbf2172c317b2,65e885b1163b66c815b71f11,,,,,,,,,,,563.9606,1.4,565.3615,565.3615,568.1805,left,1,2.8128,,568.1805,569.1812,0,7,7,15,1,partial,2,images/Ex8.jpg,left,reversed,hard,4,,,,,
,,,,,64217d8202361ad4dbed3596,001,59,Male,UK (Scotland),BSc (Hons),2024-03-06_15h04.29.507,CRL1h,2023.2.3,Win32,60.24096386,65e67470ae2fbf2172c317b2,65e885b1163b66c815b71f11,,,,,,,,,,,569.1866,1,570.1821,570.1821,571.3665,right,1,1.1694,,571.3666,572.3672,0,8,8,4,1,partial,2,images/Ex5.jpg,right,nonreversed,hard,4,,,,,
,,,,,64217d8202361ad4dbed3596,001,59,Male,UK (Scotland),BSc (Hons),2024-03-06_15h04.29.507,CRL1h,2023.2.3,Win32,60.24096386,65e67470ae2fbf2172c317b2,65e885b1163b66c815b71f11,,,,,,,,,,,572.3674,1.4,573.7685,573.7685,575.2196,left,1,1.4362,,575.2196,576.2364,0,9,9,10,1,partial,2,images/Ex3.jpg,left,nonreversed,hard,4,,,,,
,,,,,64217d8202361ad4dbed3596,001,59,Male,UK (Scotland),BSc (Hons),2024-03-06_15h04.29.507,CRL1h,2023.2.3,Win32,60.24096386,65e67470ae2fbf2172c317b2,65e885b1163b66c815b71f11,,,,,,,,,,,576.2411,0.6,576.8376,576.8376,577.7718,left,1,0.9331,,577.7718,578.7725,0,10,10,2,1,partial,2,images/Ex3.jpg,left,nonreversed,hard,4,,,,,
,,,,,64217d8202361ad4dbed3596,001,59,Male,UK (Scotland),BSc (Hons),2024-03-06_15h04.29.507,CRL1h,2023.2.3,Win32,60.24096386,65e67470ae2fbf2172c317b2,65e885b1163b66c815b71f11,,,,,,,,,,,578.7727,0.5,579.2729,579.2729,581.2079,right,1,1.9251,,581.208,582.2087,0,11,11,5,1,partial,2,images/Ex6.jpg,right,nonreversed,hard,4,,,,,
,,,,,64217d8202361ad4dbed3596,001,59,Male,UK (Scotland),BSc (Hons),2024-03-06_15h04.29.507,CRL1h,2023.2.3,Win32,60.24096386,65e67470ae2fbf2172c317b2,65e885b1163b66c815b71f11,,,,,,,,,,,582.2134,0.7,582.9093,582.9094,584.2467,right,1,1.3368,,584.2467,585.2445,0,12,12,8,1,partial,2,images/Ex1.jpg,right,reversed,hard,4,,,,,
,,,,,64217d8202361ad4dbed3596,001,59,Male,UK (Scotland),BSc (Hons),2024-03-06_15h04.29.507,CRL1h,2023.2.3,Win32,60.24096386,65e67470ae2fbf2172c317b2,65e885b1163b66c815b71f11,,,,,,,,,,,585.2447,1.4,586.6458,586.6459,587.3465,left,0,0.6852,,587.3465,588.3472,0,13,13,13,1,partial,2,images/Ex6.jpg,right,nonreversed,hard,4,,,,,
,,,,,64217d8202361ad4dbed3596,001,59,Male,UK (Scotland),BSc (Hons),2024-03-06_15h04.29.507,CRL1h,2023.2.3,Win32,60.24096386,65e67470ae2fbf2172c317b2,65e885b1163b66c815b71f11,,,,,,,,,,,588.3475,0.9,589.2478,589.2478,590.6998,right,0,1.4515,,590.6999,591.6999,0,14,14,11,1,partial,2,images/Ex4.jpg,left,nonreversed,hard,4,,,,,
,,,,,64217d8202361ad4dbed3596,001,59,Male,UK (Scotland),BSc (Hons),2024-03-06_15h04.29.507,CRL1h,2023.2.3,Win32,60.24096386,65e67470ae2fbf2172c317b2,65e885b1163b66c815b71f11,,,,,,,,,,,591.7002,0.7,592.4004,592.4004,593.6515,left,0,1.2482,,593.6515,594.6523,0,15,15,9,1,partial,2,images/Ex2.jpg,right,reversed,hard,4,,,,,
,,,,,64217d8202361ad4dbed3596,001,59,Male,UK (Scotland),BSc (Hons),2024-03-06_15h04.29.507,CRL1h,2023.2.3,Win32,60.24096386,65e67470ae2fbf2172c317b2,65e885b1163b66c815b71f11,,,,,,,,,,,594.6525,1.2,595.8619,595.862,596.754,right,0,0.8908,,596.754,597.7549,1,0,16,10,1,partial,2,images/Ex3.jpg,left,nonreversed,hard,4,,,,,
,,,,,64217d8202361ad4dbed3596,001,59,Male,UK (Scotland),BSc (Hons),2024-03-06_15h04.29.507,CRL1h,2023.2.3,Win32,60.24096386,65e67470ae2fbf2172c317b2,65e885b1163b66c815b71f11,,,,,,,,,,,597.7551,1,598.7557,598.7557,599.9235,left,0,1.1583,,599.9235,600.9241,1,1,17,13,1,partial,2,images/Ex6.jpg,right,nonreversed,hard,4,,,,,
,,,,,64217d8202361ad4dbed3596,001,59,Male,UK (Scotland),BSc (Hons),2024-03-06_15h04.29.507,CRL1h,2023.2.3,Win32,60.24096386,65e67470ae2fbf2172c317b2,65e885b1163b66c815b71f11,,,,,,,,,,,600.9245,1.4,602.3252,602.3253,603.3262,right,0,0.9915,,603.3263,604.327,1,2,18,14,1,partial,2,images/Ex7.jpg,left,reversed,hard,4,,,,,
,,,,,64217d8202361ad4dbed3596,001,59,Male,UK (Scotland),BSc (Hons),2024-03-06_15h04.29.507,CRL1h,2023.2.3,Win32,60.24096386,65e67470ae2fbf2172c317b2,65e885b1163b66c815b71f11,,,,,,,,,,,604.3272,1.4,605.728,605.728,607.0167,right,1,1.288,,607.0167,608.0132,1,3,19,0,1,partial,2,images/Ex1.jpg,right,reversed,hard,4,,,,,
,,,,,64217d8202361ad4dbed3596,001,59,Male,UK (Scotland),BSc (Hons),2024-03-06_15h04.29.507,CRL1h,2023.2.3,Win32,60.24096386,65e67470ae2fbf2172c317b2,65e885b1163b66c815b71f11,,,,,,,,,,,608.0135,1.1,609.1142,609.1143,609.7815,left,0,0.656,,609.7815,610.7822,1,4,20,5,1,partial,2,images/Ex6.jpg,right,nonreversed,hard,4,,,,,
,,,,,64217d8202361ad4dbed3596,001,59,Male,UK (Scotland),BSc (Hons),2024-03-06_15h04.29.507,CRL1h,2023.2.3,Win32,60.24096386,65e67470ae2fbf2172c317b2,65e885b1163b66c815b71f11,,,,,,,,,,,610.7825,1.1,611.8832,611.8832,613.0508,right,0,1.1642,,613.0508,614.0515,1,5,21,11,1,partial,2,images/Ex4.jpg,left,nonreversed,hard,4,,,,,
,,,,,64217d8202361ad4dbed3596,001,59,Male,UK (Scotland),BSc (Hons),2024-03-06_15h04.29.507,CRL1h,2023.2.3,Win32,60.24096386,65e67470ae2fbf2172c317b2,65e885b1163b66c815b71f11,,,,,,,,,,,614.0518,1,615.0524,615.0524,615.8198,left,1,0.7528,,615.8198,616.8205,1,6,22,7,1,partial,2,images/Ex8.jpg,left,reversed,hard,4,,,,,
,,,,,64217d8202361ad4dbed3596,001,59,Male,UK (Scotland),BSc (Hons),2024-03-06_15h04.29.507,CRL1h,2023.2.3,Win32,60.24096386,65e67470ae2fbf2172c317b2,65e885b1163b66c815b71f11,,,,,,,,,,,616.8208,1,617.8302,617.8303,618.6053,right,1,0.7647,,618.6054,619.6062,1,7,23,12,1,partial,2,images/Ex5.jpg,right,nonreversed,hard,4,,,,,
,,,,,64217d8202361ad4dbed3596,001,59,Male,UK (Scotland),BSc (Hons),2024-03-06_15h04.29.507,CRL1h,2023.2.3,Win32,60.24096386,65e67470ae2fbf2172c317b2,65e885b1163b66c815b71f11,,,,,,,,,,,619.6065,1.2,620.8071,620.8071,622.4419,left,0,1.6319,,622.4419,623.4427,1,8,24,1,1,partial,2,images/Ex2.jpg,right,reversed,hard,4,,,,,
,,,,,64217d8202361ad4dbed3596,001,59,Male,UK (Scotland),BSc (Hons),2024-03-06_15h04.29.507,CRL1h,2023.2.3,Win32,60.24096386,65e67470ae2fbf2172c317b2,65e885b1163b66c815b71f11,,,,,,,,,,,623.4429,1.2,624.6436,624.6437,626.0115,right,1,1.3651,,626.0115,627.0002,1,9,25,8,1,partial,2,images/Ex1.jpg,right,reversed,hard,4,,,,,
,,,,,64217d8202361ad4dbed3596,001,59,Male,UK (Scotland),BSc (Hons),2024-03-06_15h04.29.507,CRL1h,2023.2.3,Win32,60.24096386,65e67470ae2fbf2172c317b2,65e885b1163b66c815b71f11,,,,,,,,,,,627.0005,0.5,627.4959,627.4959,628.6803,left,1,1.1731,,628.6804,629.6834,1,10,26,3,1,partial,2,images/Ex4.jpg,left,nonreversed,hard,4,,,,,
,,,,,64217d8202361ad4dbed3596,001,59,Male,UK (Scotland),BSc (Hons),2024-03-06_15h04.29.507,CRL1h,2023.2.3,Win32,60.24096386,65e67470ae2fbf2172c317b2,65e885b1163b66c815b71f11,,,,,,,,,,,629.6836,0.7,630.3818,630.3818,631.4659,right,1,1.0772,,631.466,632.4696,1,11,27,9,1,partial,2,images/Ex2.jpg,right,reversed,hard,4,,,,,
,,,,,64217d8202361ad4dbed3596,001,59,Male,UK (Scotland),BSc (Hons),2024-03-06_15h04.29.507,CRL1h,2023.2.3,Win32,60.24096386,65e67470ae2fbf2172c317b2,65e885b1163b66c815b71f11,,,,,,,,,,,632.4698,1.1,633.5676,633.5676,634.4017,right,0,0.8307,,634.4017,635.4025,1,12,28,2,1,partial,2,images/Ex3.jpg,left,nonreversed,hard,4,,,,,
,,,,,64217d8202361ad4dbed3596,001,59,Male,UK (Scotland),BSc (Hons),2024-03-06_15h04.29.507,CRL1h,2023.2.3,Win32,60.24096386,65e67470ae2fbf2172c317b2,65e885b1163b66c815b71f11,,,,,,,,,,,635.4027,1.1,636.5034,636.5034,637.1207,left,1,0.6026,,637.1207,638.1214,1,13,29,15,1,partial,2,images/Ex8.jpg,left,reversed,hard,4,,,,,
,,,,,64217d8202361ad4dbed3596,001,59,Male,UK (Scotland),BSc (Hons),2024-03-06_15h04.29.507,CRL1h,2023.2.3,Win32,60.24096386,65e67470ae2fbf2172c317b2,65e885b1163b66c815b71f11,,,,,,,,,,,638.1216,1,639.1222,639.1222,639.8562,right,1,0.723,,639.8562,640.857,1,14,30,4,1,partial,2,images/Ex5.jpg,right,nonreversed,hard,4,,,,,
,,,,,64217d8202361ad4dbed3596,001,59,Male,UK (Scotland),BSc (Hons),2024-03-06_15h04.29.507,CRL1h,2023.2.3,Win32,60.24096386,65e67470ae2fbf2172c317b2,65e885b1163b66c815b71f11,,,,,,,,,,,640.8573,0.5,641.3574,641.3574,642.1914,right,0,0.8193,,642.1915,643.1867,1,15,31,6,1,partial,2,images/Ex7.jpg,left,reversed,hard,4,,,,,
,,,,,64217d8202361ad4dbed3596,001,59,Male,UK (Scotland),BSc (Hons),2024-03-06_15h04.29.507,CRL1h,2023.2.3,Win32,60.24096386,65e67470ae2fbf2172c317b2,65e885b1163b66c815b71f11,,,,,,,,,,,643.1869,1.4,644.5767,644.5767,645.5783,left,1,0.9917,,645.5783,646.5784,2,0,32,6,1,partial,2,images/Ex7.jpg,left,reversed,hard,4,,,,,
,,,,,64217d8202361ad4dbed3596,001,59,Male,UK (Scotland),BSc (Hons),2024-03-06_15h04.29.507,CRL1h,2023.2.3,Win32,60.24096386,65e67470ae2fbf2172c317b2,65e885b1163b66c815b71f11,,,,,,,,,,,646.5786,0.8,647.3791,647.3791,648.4804,right,0,1.0952,,648.4804,649.4808,2,1,33,15,1,partial,2,images/Ex8.jpg,left,reversed,hard,4,,,,,
,,,,,64217d8202361ad4dbed3596,001,59,Male,UK (Scotland),BSc (Hons),2024-03-06_15h04.29.507,CRL1h,2023.2.3,Win32,60.24096386,65e67470ae2fbf2172c317b2,65e885b1163b66c815b71f11,,,,,,,,,,,649.481,0.7,650.1816,650.1817,651.1326,left,0,0.9416,,651.1327,652.133,2,2,34,0,1,partial,2,images/Ex1.jpg,right,reversed,hard,4,,,,,
,,,,,64217d8202361ad4dbed3596,001,59,Male,UK (Scotland),BSc (Hons),2024-03-06_15h04.29.507,CRL1h,2023.2.3,Win32,60.24096386,65e67470ae2fbf2172c317b2,65e885b1163b66c815b71f11,,,,,,,,,,,652.1331,1.2,653.334,653.334,654.1183,right,1,0.7714,,654.1183,655.1187,2,3,35,12,1,partial,2,images/Ex5.jpg,right,nonreversed,hard,4,,,,,
,,,,,64217d8202361ad4dbed3596,001,59,Male,UK (Scotland),BSc (Hons),2024-03-06_15h04.29.507,CRL1h,2023.2.3,Win32,60.24096386,65e67470ae2fbf2172c317b2,65e885b1163b66c815b71f11,,,,,,,,,,,655.1191,0.9,656.0195,656.0195,656.9706,left,0,0.9475,,656.9706,657.9713,2,4,36,13,1,partial,2,images/Ex6.jpg,right,nonreversed,hard,4,,,,,
,,,,,64217d8202361ad4dbed3596,001,59,Male,UK (Scotland),BSc (Hons),2024-03-06_15h04.29.507,CRL1h,2023.2.3,Win32,60.24096386,65e67470ae2fbf2172c317b2,65e885b1163b66c815b71f11,,,,,,,,,,,657.9717,0.8,658.7717,658.7718,659.9731,right,0,1.1864,,659.9732,660.9735,2,5,37,11,1,partial,2,images/Ex4.jpg,left,nonreversed,hard,4,,,,,
,,,,,64217d8202361ad4dbed3596,001,59,Male,UK (Scotland),BSc (Hons),2024-03-06_15h04.29.507,CRL1h,2023.2.3,Win32,60.24096386,65e67470ae2fbf2172c317b2,65e885b1163b66c815b71f11,,,,,,,,,,,660.9737,0.9,661.8743,661.8743,662.3414,left,1,0.4557,,662.3414,663.3422,2,6,38,3,1,partial,2,images/Ex4.jpg,left,nonreversed,hard,4,,,,,
,,,,,64217d8202361ad4dbed3596,001,59,Male,UK (Scotland),BSc (Hons),2024-03-06_15h04.29.507,CRL1h,2023.2.3,Win32,60.24096386,65e67470ae2fbf2172c317b2,65e885b1163b66c815b71f11,,,,,,,,,,,663.3424,0.7,664.0428,664.0428,665.2941,right,0,1.2497,,665.2941,666.2949,2,7,39,10,1,partial,2,images/Ex3.jpg,left,nonreversed,hard,4,,,,,
,,,,,64217d8202361ad4dbed3596,001,59,Male,UK (Scotland),BSc (Hons),2024-03-06_15h04.29.507,CRL1h,2023.2.3,Win32,60.24096386,65e67470ae2fbf2172c317b2,65e885b1163b66c815b71f11,,,,,,,,,,,666.3006,1.1,667.3959,667.396,668.0965,left,0,0.6946,,668.0965,669.0968,2,8,40,9,1,partial,2,images/Ex2.jpg,right,reversed,hard,4,,,,,
,,,,,64217d8202361ad4dbed3596,001,59,Male,UK (Scotland),BSc (Hons),2024-03-06_15h04.29.507,CRL1h,2023.2.3,Win32,60.24096386,65e67470ae2fbf2172c317b2,65e885b1163b66c815b71f11,,,,,,,,,,,669.0971,1.3,670.3979,670.398,670.8505,right,1,0.4518,,670.8505,671.8514,2,9,41,5,1,partial,2,images/Ex6.jpg,right,nonreversed,hard,4,,,,,
,,,,,64217d8202361ad4dbed3596,001,59,Male,UK (Scotland),BSc (Hons),2024-03-06_15h04.29.507,CRL1h,2023.2.3,Win32,60.24096386,65e67470ae2fbf2172c317b2,65e885b1163b66c815b71f11,,,,,,,,,,,671.8516,1.4,673.242,673.242,674.0045,right,0,0.7621,,674.0045,675.0062,2,10,42,2,1,partial,2,images/Ex3.jpg,left,nonreversed,hard,4,,,,,
,,,,,64217d8202361ad4dbed3596,001,59,Male,UK (Scotland),BSc (Hons),2024-03-06_15h04.29.507,CRL1h,2023.2.3,Win32,60.24096386,65e67470ae2fbf2172c317b2,65e885b1163b66c815b71f11,,,,,,,,,,,675.0065,1.5,676.5072,676.5072,677.654,left,1,1.1428,,677.654,678.6547,2,11,43,7,1,partial,2,images/Ex8.jpg,left,reversed,hard,4,,,,,
,,,,,64217d8202361ad4dbed3596,001,59,Male,UK (Scotland),BSc (Hons),2024-03-06_15h04.29.507,CRL1h,2023.2.3,Win32,60.24096386,65e67470ae2fbf2172c317b2,65e885b1163b66c815b71f11,,,,,,,,,,,678.655,0.5,679.1552,679.1552,680.2061,left,0,1.0379,,680.2061,681.207,2,12,44,4,1,partial,2,images/Ex5.jpg,right,nonreversed,hard,4,,,,,
,,,,,64217d8202361ad4dbed3596,001,59,Male,UK (Scotland),BSc (Hons),2024-03-06_15h04.29.507,CRL1h,2023.2.3,Win32,60.24096386,65e67470ae2fbf2172c317b2,65e885b1163b66c815b71f11,,,,,,,,,,,681.2071,0.8,682.0076,682.0076,682.8583,right,1,0.845,,682.8583,683.8591,2,13,45,1,1,partial,2,images/Ex2.jpg,right,reversed,hard,4,,,,,
,,,,,64217d8202361ad4dbed3596,001,59,Male,UK (Scotland),BSc (Hons),2024-03-06_15h04.29.507,CRL1h,2023.2.3,Win32,60.24096386,65e67470ae2fbf2172c317b2,65e885b1163b66c815b71f11,,,,,,,,,,,683.8593,1.1,684.9644,684.9644,685.8441,right,1,0.8723,,685.8442,686.8451,2,14,46,8,1,partial,2,images/Ex1.jpg,right,reversed,hard,4,,,,,
,,,,,64217d8202361ad4dbed3596,001,59,Male,UK (Scotland),BSc (Hons),2024-03-06_15h04.29.507,CRL1h,2023.2.3,Win32,60.24096386,65e67470ae2fbf2172c317b2,65e885b1163b66c815b71f11,,,,,,,,,,,686.8453,0.6,687.4454,687.4454,688.3128,left,1,0.8636,,688.3128,689.3136,2,15,47,14,1,partial,2,images/Ex7.jpg,left,reversed,hard,4,,,,,
,,,,,64217d8202361ad4dbed3596,001,59,Male,UK (Scotland),BSc (Hons),2024-03-06_15h04.29.507,CRL1h,2023.2.3,Win32,60.24096386,65e67470ae2fbf2172c317b2,65e885b1163b66c815b71f11,,,,,,,,,,,689.3138,1.2,690.5146,690.5146,691.1318,left,1,0.6055,,691.1318,692.1303,3,0,48,6,1,partial,2,images/Ex7.jpg,left,reversed,hard,4,,,,,
,,,,,64217d8202361ad4dbed3596,001,59,Male,UK (Scotland),BSc (Hons),2024-03-06_15h04.29.507,CRL1h,2023.2.3,Win32,60.24096386,65e67470ae2fbf2172c317b2,65e885b1163b66c815b71f11,,,,,,,,,,,692.1305,1.3,693.4337,693.4337,693.9843,left,1,0.5364,,693.9843,694.9849,3,1,49,14,1,partial,2,images/Ex7.jpg,left,reversed,hard,4,,,,,
,,,,,64217d8202361ad4dbed3596,001,59,Male,UK (Scotland),BSc (Hons),2024-03-06_15h04.29.507,CRL1h,2023.2.3,Win32,60.24096386,65e67470ae2fbf2172c317b2,65e885b1163b66c815b71f11,,,,,,,,,,,694.9851,1.3,696.2859,696.286,697.2869,right,1,0.9864,,697.2869,698.292,3,2,50,1,1,partial,2,images/Ex2.jpg,right,reversed,hard,4,,,,,
,,,,,64217d8202361ad4dbed3596,001,59,Male,UK (Scotland),BSc (Hons),2024-03-06_15h04.29.507,CRL1h,2023.2.3,Win32,60.24096386,65e67470ae2fbf2172c317b2,65e885b1163b66c815b71f11,,,,,,,,,,,698.2923,0.6,698.8907,698.8908,700.1226,right,0,1.2223,,700.1226,701.1234,3,3,51,3,1,partial,2,images/Ex4.jpg,left,nonreversed,hard,4,,,,,
,,,,,64217d8202361ad4dbed3596,001,59,Male,UK (Scotland),BSc (Hons),2024-03-06_15h04.29.507,CRL1h,2023.2.3,Win32,60.24096386,65e67470ae2fbf2172c317b2,65e885b1163b66c815b71f11,,,,,,,,,,,701.1236,1.1,702.2242,702.2242,703.1083,left,1,0.8727,,703.1083,704.1091,3,4,52,10,1,partial,2,images/Ex3.jpg,left,nonreversed,hard,4,,,,,
,,,,,64217d8202361ad4dbed3596,001,59,Male,UK (Scotland),BSc (Hons),2024-03-06_15h04.29.507,CRL1h,2023.2.3,Win32,60.24096386,65e67470ae2fbf2172c317b2,65e885b1163b66c815b71f11,,,,,,,,,,,704.1094,1.3,705.4101,705.4102,706.1275,left,1,0.7136,,706.1276,707.1282,3,5,53,11,1,partial,2,images/Ex4.jpg,left,nonreversed,hard,4,,,,,
,,,,,64217d8202361ad4dbed3596,001,59,Male,UK (Scotland),BSc (Hons),2024-03-06_15h04.29.507,CRL1h,2023.2.3,Win32,60.24096386,65e67470ae2fbf2172c317b2,65e885b1163b66c815b71f11,,,,,,,,,,,707.1285,1,708.1291,708.1291,708.9299,right,0,0.7978,,708.9299,709.9305,3,6,54,7,1,partial,2,images/Ex8.jpg,left,reversed,hard,4,,,,,
,,,,,64217d8202361ad4dbed3596,001,59,Male,UK (Scotland),BSc (Hons),2024-03-06_15h04.29.507,CRL1h,2023.2.3,Win32,60.24096386,65e67470ae2fbf2172c317b2,65e885b1163b66c815b71f11,,,,,,,,,,,709.9307,1.1,711.0315,711.0315,711.632,left,0,0.585,,711.632,712.6457,3,7,55,9,1,partial,2,images/Ex2.jpg,right,reversed,hard,4,,,,,
,,,,,64217d8202361ad4dbed3596,001,59,Male,UK (Scotland),BSc (Hons),2024-03-06_15h04.29.507,CRL1h,2023.2.3,Win32,60.24096386,65e67470ae2fbf2172c317b2,65e885b1163b66c815b71f11,,,,,,,,,,,712.6459,0.9,713.5335,713.5335,714.1191,right,0,0.5848,,714.1192,715.1182,3,8,56,15,1,partial,2,images/Ex8.jpg,left,reversed,hard,4,,,,,
,,,,,64217d8202361ad4dbed3596,001,59,Male,UK (Scotland),BSc (Hons),2024-03-06_15h04.29.507,CRL1h,2023.2.3,Win32,60.24096386,65e67470ae2fbf2172c317b2,65e885b1163b66c815b71f11,,,,,,,,,,,715.1184,0.8,715.9188,715.9188,716.5408,left,0,0.6215,,716.5408,717.5368,3,9,57,5,1,partial,2,images/Ex6.jpg,right,nonreversed,hard,4,,,,,
,,,,,64217d8202361ad4dbed3596,001,59,Male,UK (Scotland),BSc (Hons),2024-03-06_15h04.29.507,CRL1h,2023.2.3,Win32,60.24096386,65e67470ae2fbf2172c317b2,65e885b1163b66c815b71f11,,,,,,,,,,,717.537,0.6,718.1394,718.1394,719.3718,right,1,1.2318,,719.3718,720.3687,3,10,58,12,1,partial,2,images/Ex5.jpg,right,nonreversed,hard,4,,,,,
,,,,,64217d8202361ad4dbed3596,001,59,Male,UK (Scotland),BSc (Hons),2024-03-06_15h04.29.507,CRL1h,2023.2.3,Win32,60.24096386,65e67470ae2fbf2172c317b2,65e885b1163b66c815b71f11,,,,,,,,,,,720.3736,1,721.3618,721.3618,721.8571,right,1,0.4837,,721.8572,722.8578,3,11,59,4,1,partial,2,images/Ex5.jpg,right,nonreversed,hard,4,,,,,
,,,,,64217d8202361ad4dbed3596,001,59,Male,UK (Scotland),BSc (Hons),2024-03-06_15h04.29.507,CRL1h,2023.2.3,Win32,60.24096386,65e67470ae2fbf2172c317b2,65e885b1163b66c815b71f11,,,,,,,,,,,722.8581,1.1,723.9588,723.9588,725.0263,left,0,1.0624,,725.0264,726.0271,3,12,60,8,1,partial,2,images/Ex1.jpg,right,reversed,hard,4,,,,,
,,,,,64217d8202361ad4dbed3596,001,59,Male,UK (Scotland),BSc (Hons),2024-03-06_15h04.29.507,CRL1h,2023.2.3,Win32,60.24096386,65e67470ae2fbf2172c317b2,65e885b1163b66c815b71f11,,,,,,,,,,,726.0273,1.4,727.4283,727.4283,728.646,left,1,1.211,,728.6461,729.6468,3,13,61,2,1,partial,2,images/Ex3.jpg,left,nonreversed,hard,4,,,,,
,,,,,64217d8202361ad4dbed3596,001,59,Male,UK (Scotland),BSc (Hons),2024-03-06_15h04.29.507,CRL1h,2023.2.3,Win32,60.24096386,65e67470ae2fbf2172c317b2,65e885b1163b66c815b71f11,,,,,,,,,,,729.6471,1.1,730.7477,730.7477,731.4149,left,0,0.6535,,731.4149,732.4157,3,14,62,13,1,partial,2,images/Ex6.jpg,right,nonreversed,hard,4,,,,,
,,,,,64217d8202361ad4dbed3596,001,59,Male,UK (Scotland),BSc (Hons),2024-03-06_15h04.29.507,CRL1h,2023.2.3,Win32,60.24096386,65e67470ae2fbf2172c317b2,65e885b1163b66c815b71f11,,,,,,,,,,,732.416,1.3,733.7168,733.7168,734.6177,right,1,0.8884,,734.6177,735.6184,3,15,63,0,1,partial,2,images/Ex1.jpg,right,reversed,hard,4,,,,,
,,,,,64217d8202361ad4dbed3596,001,59,Male,UK (Scotland),BSc (Hons),2024-03-06_15h04.29.507,CRL1h,2023.2.3,Win32,60.24096386,65e67470ae2fbf2172c317b2,65e885b1163b66c815b71f11,,,,,,735.6189,781.7231,space,46.0727,,781.7313,1.1,782.8239,782.8239,783.6913,left,1,0.8648,,783.6913,784.7068,0,0,0,11,1,total,1,images/Ex12.jpg,left,training,hard,4,,,,,
,,,,,64217d8202361ad4dbed3596,001,59,Male,UK (Scotland),BSc (Hons),2024-03-06_15h04.29.507,CRL1h,2023.2.3,Win32,60.24096386,65e67470ae2fbf2172c317b2,65e885b1163b66c815b71f11,,,,,,,,,,,784.707,1.5,786.1964,786.1964,787.361,right,1,1.1523,,787.3611,788.3618,0,1,1,13,1,total,1,images/Ex14.jpg,right,training,hard,4,,,,,
,,,,,64217d8202361ad4dbed3596,001,59,Male,UK (Scotland),BSc (Hons),2024-03-06_15h04.29.507,CRL1h,2023.2.3,Win32,60.24096386,65e67470ae2fbf2172c317b2,65e885b1163b66c815b71f11,,,,,,,,,,,788.362,0.5,788.8641,788.8641,789.7797,left,0,0.9022,,789.7797,790.7709,0,2,2,14,1,total,1,images/Ex15.jpg,right,training,hard,4,,,,,
,,,,,64217d8202361ad4dbed3596,001,59,Male,UK (Scotland),BSc (Hons),2024-03-06_15h04.29.507,CRL1h,2023.2.3,Win32,60.24096386,65e67470ae2fbf2172c317b2,65e885b1163b66c815b71f11,,,,,,,,,,,790.771,0.5,791.2693,791.2693,792.1562,right,0,0.8864,,792.1563,793.1492,0,3,3,9,1,total,1,images/Ex10.jpg,left,training,hard,4,,,,,
,,,,,64217d8202361ad4dbed3596,001,59,Male,UK (Scotland),BSc (Hons),2024-03-06_15h04.29.507,CRL1h,2023.2.3,Win32,60.24096386,65e67470ae2fbf2172c317b2,65e885b1163b66c815b71f11,,,,,,,,,,,793.1496,0.8,793.9571,793.9571,795.154,left,0,1.1963,,795.154,796.1516,0,4,4,12,1,total,1,images/Ex13.jpg,right,training,hard,4,,,,,
,,,,,64217d8202361ad4dbed3596,001,59,Male,UK (Scotland),BSc (Hons),2024-03-06_15h04.29.507,CRL1h,2023.2.3,Win32,60.24096386,65e67470ae2fbf2172c317b2,65e885b1163b66c815b71f11,,,,,,,,,,,796.1519,0.9,797.0406,797.0406,798.0366,left,0,0.9945,,798.0366,799.0372,0,5,5,15,1,total,1,images/Ex16.jpg,right,training,hard,4,,,,,
,,,,,64217d8202361ad4dbed3596,001,59,Male,UK (Scotland),BSc (Hons),2024-03-06_15h04.29.507,CRL1h,2023.2.3,Win32,60.24096386,65e67470ae2fbf2172c317b2,65e885b1163b66c815b71f11,,,,,,,,,,,799.0374,1.2,800.2383,800.2383,801.3893,left,1,1.1371,,801.3894,802.39,0,6,6,3,1,total,1,images/Ex12.jpg,left,training,hard,4,,,,,
,,,,,64217d8202361ad4dbed3596,001,59,Male,UK (Scotland),BSc (Hons),2024-03-06_15h04.29.507,CRL1h,2023.2.3,Win32,60.24096386,65e67470ae2fbf2172c317b2,65e885b1163b66c815b71f11,,,,,,,,,,,802.3902,0.6,802.9905,802.9905,804.1081,right,0,1.1153,,804.1081,805.1089,0,7,7,0,1,total,1,images/Ex9.jpg,left,training,hard,4,,,,,
,,,,,64217d8202361ad4dbed3596,001,59,Male,UK (Scotland),BSc (Hons),2024-03-06_15h04.29.507,CRL1h,2023.2.3,Win32,60.24096386,65e67470ae2fbf2172c317b2,65e885b1163b66c815b71f11,,,,,,,,,,,805.1092,0.9,806.0096,806.0096,807.4111,left,1,1.3924,,807.4111,808.3987,0,8,8,1,1,total,1,images/Ex10.jpg,left,training,hard,4,,,,,
,,,,,64217d8202361ad4dbed3596,001,59,Male,UK (Scotland),BSc (Hons),2024-03-06_15h04.29.507,CRL1h,2023.2.3,Win32,60.24096386,65e67470ae2fbf2172c317b2,65e885b1163b66c815b71f11,,,,,,,,,,,808.3989,1.2,809.5964,809.5964,810.6636,right,1,1.0556,,810.6636,811.6643,0,9,9,5,1,total,1,images/Ex14.jpg,right,training,hard,4,,,,,
,,,,,64217d8202361ad4dbed3596,001,59,Male,UK (Scotland),BSc (Hons),2024-03-06_15h04.29.507,CRL1h,2023.2.3,Win32,60.24096386,65e67470ae2fbf2172c317b2,65e885b1163b66c815b71f11,,,,,,,,,,,811.6647,0.7,812.3649,812.3649,813.3991,left,0,1.0241,,813.3991,814.3999,0,10,10,6,1,total,1,images/Ex15.jpg,right,training,hard,4,,,,,
,,,,,64217d8202361ad4dbed3596,001,59,Male,UK (Scotland),BSc (Hons),2024-03-06_15h04.29.507,CRL1h,2023.2.3,Win32,60.24096386,65e67470ae2fbf2172c317b2,65e885b1163b66c815b71f11,,,,,,,,,,,814.4001,1.4,815.8011,815.8011,817.0043,left,0,1.2027,,817.0043,818.0029,0,11,11,4,1,total,1,images/Ex13.jpg,right,training,hard,4,,,,,
,,,,,64217d8202361ad4dbed3596,001,59,Male,UK (Scotland),BSc (Hons),2024-03-06_15h04.29.507,CRL1h,2023.2.3,Win32,60.24096386,65e67470ae2fbf2172c317b2,65e885b1163b66c815b71f11,,,,,,,,,,,818.0031,0.8,818.8047,818.8047,819.9212,left,1,1.1094,,819.9212,820.922,0,12,12,2,1,total,1,images/Ex11.jpg,left,training,hard,4,,,,,
,,,,,64217d8202361ad4dbed3596,001,59,Male,UK (Scotland),BSc (Hons),2024-03-06_15h04.29.507,CRL1h,2023.2.3,Win32,60.24096386,65e67470ae2fbf2172c317b2,65e885b1163b66c815b71f11,,,,,,,,,,,820.9224,1.4,822.3232,822.3232,823.0239,left,1,0.693,,823.024,824.0246,0,13,13,10,1,total,1,images/Ex11.jpg,left,training,hard,4,,,,,
,,,,,64217d8202361ad4dbed3596,001,59,Male,UK (Scotland),BSc (Hons),2024-03-06_15h04.29.507,CRL1h,2023.2.3,Win32,60.24096386,65e67470ae2fbf2172c317b2,65e885b1163b66c815b71f11,,,,,,,,,,,824.0248,1.1,825.1255,825.1255,826.0763,right,1,0.9487,,826.0763,827.077,0,14,14,7,1,total,1,images/Ex16.jpg,right,training,hard,4,,,,,
,,,,,64217d8202361ad4dbed3596,001,59,Male,UK (Scotland),BSc (Hons),2024-03-06_15h04.29.507,CRL1h,2023.2.3,Win32,60.24096386,65e67470ae2fbf2172c317b2,65e885b1163b66c815b71f11,,,,,,,,,,,827.0772,0.6,827.6775,827.6775,828.8119,right,0,1.1297,,828.8119,829.813,0,15,15,8,1,total,1,images/Ex9.jpg,left,training,hard,4,,,,,
,,,,,64217d8202361ad4dbed3596,001,59,Male,UK (Scotland),BSc (Hons),2024-03-06_15h04.29.507,CRL1h,2023.2.3,Win32,60.24096386,65e67470ae2fbf2172c317b2,65e885b1163b66c815b71f11,,,,,,,,,,,829.8183,0.6,830.413,830.413,831.5309,right,0,1.1074,,831.5309,832.5315,1,0,16,1,1,total,1,images/Ex10.jpg,left,training,hard,4,,,,,
,,,,,64217d8202361ad4dbed3596,001,59,Male,UK (Scotland),BSc (Hons),2024-03-06_15h04.29.507,CRL1h,2023.2.3,Win32,60.24096386,65e67470ae2fbf2172c317b2,65e885b1163b66c815b71f11,,,,,,,,,,,832.5317,1.3,833.8326,833.8326,835.117,left,0,1.2714,,835.1171,836.1178,1,1,17,12,1,total,1,images/Ex13.jpg,right,training,hard,4,,,,,
,,,,,64217d8202361ad4dbed3596,001,59,Male,UK (Scotland),BSc (Hons),2024-03-06_15h04.29.507,CRL1h,2023.2.3,Win32,60.24096386,65e67470ae2fbf2172c317b2,65e885b1163b66c815b71f11,,,,,,,,,,,836.118,1.3,837.4188,837.4189,838.4033,right,1,0.9825,,838.4034,839.404,1,2,18,7,1,total,1,images/Ex16.jpg,right,training,hard,4,,,,,
,,,,,64217d8202361ad4dbed3596,001,59,Male,UK (Scotland),BSc (Hons),2024-03-06_15h04.29.507,CRL1h,2023.2.3,Win32,60.24096386,65e67470ae2fbf2172c317b2,65e885b1163b66c815b71f11,,,,,,,,,,,839.4042,0.7,840.1045,840.1045,841.4062,left,1,1.2881,,841.4063,842.4064,1,3,19,9,1,total,1,images/Ex10.jpg,left,training,hard,4,,,,,
,,,,,64217d8202361ad4dbed3596,001,59,Male,UK (Scotland),BSc (Hons),2024-03-06_15h04.29.507,CRL1h,2023.2.3,Win32,60.24096386,65e67470ae2fbf2172c317b2,65e885b1163b66c815b71f11,,,,,,,,,,,842.4067,1.3,843.7076,843.7076,844.4253,right,1,0.7117,,844.4253,845.4257,1,4,20,5,1,total,1,images/Ex14.jpg,right,training,hard,4,,,,,
,,,,,64217d8202361ad4dbed3596,001,59,Male,UK (Scotland),BSc (Hons),2024-03-06_15h04.29.507,CRL1h,2023.2.3,Win32,60.24096386,65e67470ae2fbf2172c317b2,65e885b1163b66c815b71f11,,,,,,,,,,,845.4261,0.9,846.3262,846.3262,847.3442,left,1,1.0132,,847.3442,848.3462,1,5,21,3,1,total,1,images/Ex12.jpg,left,training,hard,4,,,,,
,,,,,64217d8202361ad4dbed3596,001,59,Male,UK (Scotland),BSc (Hons),2024-03-06_15h04.29.507,CRL1h,2023.2.3,Win32,60.24096386,65e67470ae2fbf2172c317b2,65e885b1163b66c815b71f11,,,,,,,,,,,848.3465,0.9,849.2476,849.2477,850.2668,left,1,1.0186,,850.2668,851.26,1,6,22,10,1,total,1,images/Ex11.jpg,left,training,hard,4,,,,,
,,,,,64217d8202361ad4dbed3596,001,59,Male,UK (Scotland),BSc (Hons),2024-03-06_15h04.29.507,CRL1h,2023.2.3,Win32,60.24096386,65e67470ae2fbf2172c317b2,65e885b1163b66c815b71f11,,,,,,,,,,,851.2602,1,852.2493,852.2493,852.9343,right,0,0.6845,,852.9344,853.9367,1,7,23,8,1,total,1,images/Ex9.jpg,left,training,hard,4,,,,,
,,,,,64217d8202361ad4dbed3596,001,59,Male,UK (Scotland),BSc (Hons),2024-03-06_15h04.29.507,CRL1h,2023.2.3,Win32,60.24096386,65e67470ae2fbf2172c317b2,65e885b1163b66c815b71f11,,,,,,,,,,,853.9368,1.1,855.0335,855.0335,856.1677,left,0,1.1219,,856.1678,857.1733,1,8,24,6,1,total,1,images/Ex15.jpg,right,training,hard,4,,,,,
,,,,,64217d8202361ad4dbed3596,001,59,Male,UK (Scotland),BSc (Hons),2024-03-06_15h04.29.507,CRL1h,2023.2.3,Win32,60.24096386,65e67470ae2fbf2172c317b2,65e885b1163b66c815b71f11,,,,,,,,,,,857.1735,1,858.1693,858.1693,859.3205,left,0,1.1422,,859.3206,860.3257,1,9,25,4,1,total,1,images/Ex13.jpg,right,training,hard,4,,,,,
,,,,,64217d8202361ad4dbed3596,001,59,Male,UK (Scotland),BSc (Hons),2024-03-06_15h04.29.507,CRL1h,2023.2.3,Win32,60.24096386,65e67470ae2fbf2172c317b2,65e885b1163b66c815b71f11,,,,,,,,,,,860.3259,1.3,861.6221,861.6221,862.7231,left,0,1.095,,862.7231,863.7264,1,10,26,14,1,total,1,images/Ex15.jpg,right,training,hard,4,,,,,
,,,,,64217d8202361ad4dbed3596,001,59,Male,UK (Scotland),BSc (Hons),2024-03-06_15h04.29.507,CRL1h,2023.2.3,Win32,60.24096386,65e67470ae2fbf2172c317b2,65e885b1163b66c815b71f11,,,,,,,,,,,863.7266,0.7,864.4267,864.4268,865.4087,right,1,0.9699,,865.4087,866.4094,1,11,27,15,1,total,1,images/Ex16.jpg,right,training,hard,4,,,,,
,,,,,64217d8202361ad4dbed3596,001,59,Male,UK (Scotland),BSc (Hons),2024-03-06_15h04.29.507,CRL1h,2023.2.3,Win32,60.24096386,65e67470ae2fbf2172c317b2,65e885b1163b66c815b71f11,,,,,,,,,,,866.4096,1,867.4124,867.4124,868.7246,left,1,1.3117,,868.7247,869.7288,1,12,28,0,1,total,1,images/Ex9.jpg,left,training,hard,4,,,,,
,,,,,64217d8202361ad4dbed3596,001,59,Male,UK (Scotland),BSc (Hons),2024-03-06_15h04.29.507,CRL1h,2023.2.3,Win32,60.24096386,65e67470ae2fbf2172c317b2,65e885b1163b66c815b71f11,,,,,,,,,,,869.729,1.1,870.8298,870.8298,872.2977,right,1,1.4583,,872.2977,873.2984,1,13,29,13,1,total,1,images/Ex14.jpg,right,training,hard,4,,,,,
,,,,,64217d8202361ad4dbed3596,001,59,Male,UK (Scotland),BSc (Hons),2024-03-06_15h04.29.507,CRL1h,2023.2.3,Win32,60.24096386,65e67470ae2fbf2172c317b2,65e885b1163b66c815b71f11,,,,,,,,,,,873.2987,1.1,874.3993,874.3993,875.5337,left,1,1.1303,,875.5337,876.5215,1,14,30,2,1,total,1,images/Ex11.jpg,left,training,hard,4,,,,,
,,,,,64217d8202361ad4dbed3596,001,59,Male,UK (Scotland),BSc (Hons),2024-03-06_15h04.29.507,CRL1h,2023.2.3,Win32,60.24096386,65e67470ae2fbf2172c317b2,65e885b1163b66c815b71f11,,,,,,,,,,,876.5217,0.7,877.2184,877.2184,878.1526,right,0,0.9337,,878.1526,879.1533,1,15,31,11,1,total,1,images/Ex12.jpg,left,training,hard,4,,,,,
,,,,,64217d8202361ad4dbed3596,001,59,Male,UK (Scotland),BSc (Hons),2024-03-06_15h04.29.507,CRL1h,2023.2.3,Win32,60.24096386,65e67470ae2fbf2172c317b2,65e885b1163b66c815b71f11,,,,,,,,,,,879.1535,0.7,879.8538,879.8538,881.5057,right,1,1.642,,881.5057,882.506,2,0,32,13,1,total,1,images/Ex14.jpg,right,training,hard,4,,,,,
,,,,,64217d8202361ad4dbed3596,001,59,Male,UK (Scotland),BSc (Hons),2024-03-06_15h04.29.507,CRL1h,2023.2.3,Win32,60.24096386,65e67470ae2fbf2172c317b2,65e885b1163b66c815b71f11,,,,,,,,,,,882.5111,1.2,883.707,883.707,884.9101,left,1,1.2026,,884.9101,885.8995,2,1,33,11,1,total,1,images/Ex12.jpg,left,training,hard,4,,,,,
,,,,,64217d8202361ad4dbed3596,001,59,Male,UK (Scotland),BSc (Hons),2024-03-06_15h04.29.507,CRL1h,2023.2.3,Win32,60.24096386,65e67470ae2fbf2172c317b2,65e885b1163b66c815b71f11,,,,,,,,,,,885.8997,1.4,887.2973,887.2973,888.6796,left,0,1.3817,,888.6797,889.6785,2,2,34,14,1,total,1,images/Ex15.jpg,right,training,hard,4,,,,,
,,,,,64217d8202361ad4dbed3596,001,59,Male,UK (Scotland),BSc (Hons),2024-03-06_15h04.29.507,CRL1h,2023.2.3,Win32,60.24096386,65e67470ae2fbf2172c317b2,65e885b1163b66c815b71f11,,,,,,,,,,,889.6788,1.3,890.98,890.9801,892.3744,right,1,1.3936,,892.3744,893.365,2,3,35,15,1,total,1,images/Ex16.jpg,right,training,hard,4,,,,,
,,,,,64217d8202361ad4dbed3596,001,59,Male,UK (Scotland),BSc (Hons),2024-03-06_15h04.29.507,CRL1h,2023.2.3,Win32,60.24096386,65e67470ae2fbf2172c317b2,65e885b1163b66c815b71f11,,,,,,,,,,,893.3652,0.9,894.2657,894.2657,895.1998,left,1,0.9292,,895.1999,896.2006,2,4,36,1,1,total,1,images/Ex10.jpg,left,training,hard,4,,,,,
,,,,,64217d8202361ad4dbed3596,001,59,Male,UK (Scotland),BSc (Hons),2024-03-06_15h04.29.507,CRL1h,2023.2.3,Win32,60.24096386,65e67470ae2fbf2172c317b2,65e885b1163b66c815b71f11,,,,,,,,,,,896.2008,1,897.189,897.1891,898.1355,right,0,0.9451,,898.1355,899.1363,2,5,37,2,1,total,1,images/Ex11.jpg,left,training,hard,4,,,,,
,,,,,64217d8202361ad4dbed3596,001,59,Male,UK (Scotland),BSc (Hons),2024-03-06_15h04.29.507,CRL1h,2023.2.3,Win32,60.24096386,65e67470ae2fbf2172c317b2,65e885b1163b66c815b71f11,,,,,,,,,,,899.1365,1.1,900.2372,900.2372,901.2883,right,1,1.0402,,901.2883,902.2891,2,6,38,6,1,total,1,images/Ex15.jpg,right,training,hard,4,,,,,
,,,,,64217d8202361ad4dbed3596,001,59,Male,UK (Scotland),BSc (Hons),2024-03-06_15h04.29.507,CRL1h,2023.2.3,Win32,60.24096386,65e67470ae2fbf2172c317b2,65e885b1163b66c815b71f11,,,,,,,,,,,902.2894,0.7,902.9895,902.9895,904.4743,left,0,1.4756,,904.4743,905.4749,2,7,39,4,1,total,1,images/Ex13.jpg,right,training,hard,4,,,,,
,,,,,64217d8202361ad4dbed3596,001,59,Male,UK (Scotland),BSc (Hons),2024-03-06_15h04.29.507,CRL1h,2023.2.3,Win32,60.24096386,65e67470ae2fbf2172c317b2,65e885b1163b66c815b71f11,,,,,,,,,,,905.4751,1.3,906.7759,906.7759,907.8269,left,1,1.0359,,907.827,908.8196,2,8,40,8,1,total,1,images/Ex9.jpg,left,training,hard,4,,,,,
,,,,,64217d8202361ad4dbed3596,001,59,Male,UK (Scotland),BSc (Hons),2024-03-06_15h04.29.507,CRL1h,2023.2.3,Win32,60.24096386,65e67470ae2fbf2172c317b2,65e885b1163b66c815b71f11,,,,,,,,,,,908.8198,0.9,909.7117,909.7117,911.0964,left,1,1.3738,,911.0965,912.097,2,9,41,10,1,total,1,images/Ex11.jpg,left,training,hard,4,,,,,
,,,,,64217d8202361ad4dbed3596,001,59,Male,UK (Scotland),BSc (Hons),2024-03-06_15h04.29.507,CRL1h,2023.2.3,Win32,60.24096386,65e67470ae2fbf2172c317b2,65e885b1163b66c815b71f11,,,,,,,,,,,912.0972,1.3,913.3981,913.3982,914.6326,right,1,1.231,,914.6326,915.6361,2,10,42,5,1,total,1,images/Ex14.jpg,right,training,hard,4,,,,,
,,,,,64217d8202361ad4dbed3596,001,59,Male,UK (Scotland),BSc (Hons),2024-03-06_15h04.29.507,CRL1h,2023.2.3,Win32,60.24096386,65e67470ae2fbf2172c317b2,65e885b1163b66c815b71f11,,,,,,,,,,,915.6363,0.7,916.3338,916.3338,917.7017,left,1,1.3663,,917.7017,918.6897,2,11,43,3,1,total,1,images/Ex12.jpg,left,training,hard,4,,,,,
,,,,,64217d8202361ad4dbed3596,001,59,Male,UK (Scotland),BSc (Hons),2024-03-06_15h04.29.507,CRL1h,2023.2.3,Win32,60.24096386,65e67470ae2fbf2172c317b2,65e885b1163b66c815b71f11,,,,,,,,,,,918.6899,1.4,920.0869,920.0869,921.1379,right,0,1.0367,,921.1379,922.1387,2,12,44,0,1,total,1,images/Ex9.jpg,left,training,hard,4,,,,,
,,,,,64217d8202361ad4dbed3596,001,59,Male,UK (Scotland),BSc (Hons),2024-03-06_15h04.29.507,CRL1h,2023.2.3,Win32,60.24096386,65e67470ae2fbf2172c317b2,65e885b1163b66c815b71f11,,,,,,,,,,,922.1389,1.2,923.3397,923.3397,924.4239,right,1,1.0835,,924.4239,925.4247,2,13,45,12,1,total,1,images/Ex13.jpg,right,training,hard,4,,,,,
,,,,,64217d8202361ad4dbed3596,001,59,Male,UK (Scotland),BSc (Hons),2024-03-06_15h04.29.507,CRL1h,2023.2.3,Win32,60.24096386,65e67470ae2fbf2172c317b2,65e885b1163b66c815b71f11,,,,,,,,,,,925.425,0.8,926.2255,926.2255,927.5265,left,0,1.2999,,927.5266,928.5273,2,14,46,7,1,total,1,images/Ex16.jpg,right,training,hard,4,,,,,
,,,,,64217d8202361ad4dbed3596,001,59,Male,UK (Scotland),BSc (Hons),2024-03-06_15h04.29.507,CRL1h,2023.2.3,Win32,60.24096386,65e67470ae2fbf2172c317b2,65e885b1163b66c815b71f11,,,,,,,,,,,928.5276,1.2,929.7282,929.7282,930.7792,left,1,1.0481,,930.7792,931.7799,2,15,47,9,1,total,1,images/Ex10.jpg,left,training,hard,4,,,,,
,,,,,64217d8202361ad4dbed3596,001,59,Male,UK (Scotland),BSc (Hons),2024-03-06_15h04.29.507,CRL1h,2023.2.3,Win32,60.24096386,65e67470ae2fbf2172c317b2,65e885b1163b66c815b71f11,,,,,,,,,,,931.7802,1,932.7808,932.7808,933.3349,right,1,0.5535,,933.3349,934.3321,3,0,48,5,1,total,1,images/Ex14.jpg,right,training,hard,4,,,,,
,,,,,64217d8202361ad4dbed3596,001,59,Male,UK (Scotland),BSc (Hons),2024-03-06_15h04.29.507,CRL1h,2023.2.3,Win32,60.24096386,65e67470ae2fbf2172c317b2,65e885b1163b66c815b71f11,,,,,,,,,,,934.3323,1,935.3328,935.3328,936.4672,right,0,1.1298,,936.4672,937.4679,3,1,49,10,1,total,1,images/Ex11.jpg,left,training,hard,4,,,,,
,,,,,64217d8202361ad4dbed3596,001,59,Male,UK (Scotland),BSc (Hons),2024-03-06_15h04.29.507,CRL1h,2023.2.3,Win32,60.24096386,65e67470ae2fbf2172c317b2,65e885b1163b66c815b71f11,,,,,,,,,,,937.4681,0.9,938.3689,938.3689,939.3528,left,1,0.976,,939.3528,940.3536,3,2,50,3,1,total,1,images/Ex12.jpg,left,training,hard,4,,,,,
,,,,,64217d8202361ad4dbed3596,001,59,Male,UK (Scotland),BSc (Hons),2024-03-06_15h04.29.507,CRL1h,2023.2.3,Win32,60.24096386,65e67470ae2fbf2172c317b2,65e885b1163b66c815b71f11,,,,,,,,,,,940.3539,0.7,941.0543,941.0543,942.1219,left,1,1.0592,,942.1219,943.1225,3,3,51,1,1,total,1,images/Ex10.jpg,left,training,hard,4,,,,,
,,,,,64217d8202361ad4dbed3596,001,59,Male,UK (Scotland),BSc (Hons),2024-03-06_15h04.29.507,CRL1h,2023.2.3,Win32,60.24096386,65e67470ae2fbf2172c317b2,65e885b1163b66c815b71f11,,,,,,,,,,,943.1228,0.6,943.7232,943.7232,944.3752,left,1,0.6515,,944.3753,945.3745,3,4,52,9,1,total,1,images/Ex10.jpg,left,training,hard,4,,,,,
,,,,,64217d8202361ad4dbed3596,001,59,Male,UK (Scotland),BSc (Hons),2024-03-06_15h04.29.507,CRL1h,2023.2.3,Win32,60.24096386,65e67470ae2fbf2172c317b2,65e885b1163b66c815b71f11,,,,,,,,,,,945.3748,1.3,946.6755,946.6755,947.806,right,1,1.1299,,947.8061,948.7939,3,5,53,7,1,total,1,images/Ex16.jpg,right,training,hard,4,,,,,
,,,,,64217d8202361ad4dbed3596,001,59,Male,UK (Scotland),BSc (Hons),2024-03-06_15h04.29.507,CRL1h,2023.2.3,Win32,60.24096386,65e67470ae2fbf2172c317b2,65e885b1163b66c815b71f11,,,,,,,,,,,948.7942,1,949.7986,949.7986,950.6844,right,0,0.8853,,950.6844,951.6828,3,6,54,0,1,total,1,images/Ex9.jpg,left,training,hard,4,,,,,
,,,,,64217d8202361ad4dbed3596,001,59,Male,UK (Scotland),BSc (Hons),2024-03-06_15h04.29.507,CRL1h,2023.2.3,Win32,60.24096386,65e67470ae2fbf2172c317b2,65e885b1163b66c815b71f11,,,,,,,,,,,951.683,1.2,952.8806,952.8806,953.8982,right,1,1.008,,953.8982,954.899,3,7,55,6,1,total,1,images/Ex15.jpg,right,training,hard,4,,,,,
,,,,,64217d8202361ad4dbed3596,001,59,Male,UK (Scotland),BSc (Hons),2024-03-06_15h04.29.507,CRL1h,2023.2.3,Win32,60.24096386,65e67470ae2fbf2172c317b2,65e885b1163b66c815b71f11,,,,,,,,,,,954.8992,0.9,955.7996,955.7996,956.9841,right,1,1.1691,,956.9841,957.9848,3,8,56,12,1,total,1,images/Ex13.jpg,right,training,hard,4,,,,,
,,,,,64217d8202361ad4dbed3596,001,59,Male,UK (Scotland),BSc (Hons),2024-03-06_15h04.29.507,CRL1h,2023.2.3,Win32,60.24096386,65e67470ae2fbf2172c317b2,65e885b1163b66c815b71f11,,,,,,,,,,,957.9851,0.5,958.4853,958.4853,959.6529,right,0,1.1637,,959.6529,960.6537,3,9,57,11,1,total,1,images/Ex12.jpg,left,training,hard,4,,,,,
,,,,,64217d8202361ad4dbed3596,001,59,Male,UK (Scotland),BSc (Hons),2024-03-06_15h04.29.507,CRL1h,2023.2.3,Win32,60.24096386,65e67470ae2fbf2172c317b2,65e885b1163b66c815b71f11,,,,,,,,,,,960.6539,0.9,961.5543,961.5544,962.8723,right,1,1.3152,,962.8723,963.873,3,10,58,13,1,total,1,images/Ex14.jpg,right,training,hard,4,,,,,
,,,,,64217d8202361ad4dbed3596,001,59,Male,UK (Scotland),BSc (Hons),2024-03-06_15h04.29.507,CRL1h,2023.2.3,Win32,60.24096386,65e67470ae2fbf2172c317b2,65e885b1163b66c815b71f11,,,,,,,,,,,963.8732,0.5,964.3769,964.3769,965.7583,left,0,1.372,,965.7583,966.7588,3,11,59,15,1,total,1,images/Ex16.jpg,right,training,hard,4,,,,,
,,,,,64217d8202361ad4dbed3596,001,59,Male,UK (Scotland),BSc (Hons),2024-03-06_15h04.29.507,CRL1h,2023.2.3,Win32,60.24096386,65e67470ae2fbf2172c317b2,65e885b1163b66c815b71f11,,,,,,,,,,,966.759,0.7,967.4618,967.4618,968.9939,left,1,1.5242,,968.9939,969.9947,3,12,60,2,1,total,1,images/Ex11.jpg,left,training,hard,4,,,,,
,,,,,64217d8202361ad4dbed3596,001,59,Male,UK (Scotland),BSc (Hons),2024-03-06_15h04.29.507,CRL1h,2023.2.3,Win32,60.24096386,65e67470ae2fbf2172c317b2,65e885b1163b66c815b71f11,,,,,,,,,,,969.9949,1,970.9956,970.9956,972.0799,right,1,1.0763,,972.0799,973.0807,3,13,61,4,1,total,1,images/Ex13.jpg,right,training,hard,4,,,,,
,,,,,64217d8202361ad4dbed3596,001,59,Male,UK (Scotland),BSc (Hons),2024-03-06_15h04.29.507,CRL1h,2023.2.3,Win32,60.24096386,65e67470ae2fbf2172c317b2,65e885b1163b66c815b71f11,,,,,,,,,,,973.0808,1.2,974.2815,974.2816,975.6995,right,1,1.4125,,975.6996,976.7051,3,14,62,14,1,total,1,images/Ex15.jpg,right,training,hard,4,,,,,
,,,,,64217d8202361ad4dbed3596,001,59,Male,UK (Scotland),BSc (Hons),2024-03-06_15h04.29.507,CRL1h,2023.2.3,Win32,60.24096386,65e67470ae2fbf2172c317b2,65e885b1163b66c815b71f11,,,,,,,,,,,976.7096,0.7,977.4007,977.4008,978.3355,right,0,0.9282,,978.3355,979.3358,3,15,63,8,1,total,1,images/Ex9.jpg,left,training,hard,4,,,,,
,,,,,64217d8202361ad4dbed3596,001,59,Male,UK (Scotland),BSc (Hons),2024-03-06_15h04.29.507,CRL1h,2023.2.3,Win32,60.24096386,65e67470ae2fbf2172c317b2,65e885b1163b66c815b71f11,,,,,,,,,,,979.336,0.8,980.1364,980.1364,981.1706,left,1,1.0218,,981.1706,982.1714,4,0,64,8,1,total,1,images/Ex9.jpg,left,training,hard,4,,,,,
,,,,,64217d8202361ad4dbed3596,001,59,Male,UK (Scotland),BSc (Hons),2024-03-06_15h04.29.507,CRL1h,2023.2.3,Win32,60.24096386,65e67470ae2fbf2172c317b2,65e885b1163b66c815b71f11,,,,,,,,,,,982.1716,1.1,983.2724,983.2724,984.6571,left,1,1.3756,,984.6571,985.6576,4,1,65,11,1,total,1,images/Ex12.jpg,left,training,hard,4,,,,,
,,,,,64217d8202361ad4dbed3596,001,59,Male,UK (Scotland),BSc (Hons),2024-03-06_15h04.29.507,CRL1h,2023.2.3,Win32,60.24096386,65e67470ae2fbf2172c317b2,65e885b1163b66c815b71f11,,,,,,,,,,,985.6579,1.2,986.8466,986.8467,987.7265,right,1,0.8763,,987.7265,988.7269,4,2,66,6,1,total,1,images/Ex15.jpg,right,training,hard,4,,,,,
,,,,,64217d8202361ad4dbed3596,001,59,Male,UK (Scotland),BSc (Hons),2024-03-06_15h04.29.507,CRL1h,2023.2.3,Win32,60.24096386,65e67470ae2fbf2172c317b2,65e885b1163b66c815b71f11,,,,,,,,,,,988.7272,0.7,989.436,989.436,989.8778,left,1,0.4381,,989.8778,990.8786,4,3,67,10,1,total,1,images/Ex11.jpg,left,training,hard,4,,,,,
,,,,,64217d8202361ad4dbed3596,001,59,Male,UK (Scotland),BSc (Hons),2024-03-06_15h04.29.507,CRL1h,2023.2.3,Win32,60.24096386,65e67470ae2fbf2172c317b2,65e885b1163b66c815b71f11,,,,,,,,,,,990.8788,0.7,991.5818,991.5818,992.6468,left,0,1.0532,,992.6468,993.6528,4,4,68,12,1,total,1,images/Ex13.jpg,right,training,hard,4,,,,,
,,,,,64217d8202361ad4dbed3596,001,59,Male,UK (Scotland),BSc (Hons),2024-03-06_15h04.29.507,CRL1h,2023.2.3,Win32,60.24096386,65e67470ae2fbf2172c317b2,65e885b1163b66c815b71f11,,,,,,,,,,,993.6531,1.2,994.8485,994.8485,995.7993,right,1,0.9475,,995.7993,996.8001,4,5,69,5,1,total,1,images/Ex14.jpg,right,training,hard,4,,,,,
,,,,,64217d8202361ad4dbed3596,001,59,Male,UK (Scotland),BSc (Hons),2024-03-06_15h04.29.507,CRL1h,2023.2.3,Win32,60.24096386,65e67470ae2fbf2172c317b2,65e885b1163b66c815b71f11,,,,,,,,,,,996.8003,1.5,998.3014,998.3014,999.5717,left,0,1.2698,,999.5718,1000.57,4,6,70,7,1,total,1,images/Ex16.jpg,right,training,hard,4,,,,,
,,,,,64217d8202361ad4dbed3596,001,59,Male,UK (Scotland),BSc (Hons),2024-03-06_15h04.29.507,CRL1h,2023.2.3,Win32,60.24096386,65e67470ae2fbf2172c317b2,65e885b1163b66c815b71f11,,,,,,,,,,,1000.5751,0.7,1001.2704,1001.2705,1002.3548,right,1,1.0779,,1002.3548,1003.3556,4,7,71,4,1,total,1,images/Ex13.jpg,right,training,hard,4,,,,,
,,,,,64217d8202361ad4dbed3596,001,59,Male,UK (Scotland),BSc (Hons),2024-03-06_15h04.29.507,CRL1h,2023.2.3,Win32,60.24096386,65e67470ae2fbf2172c317b2,65e885b1163b66c815b71f11,,,,,,,,,,,1003.3558,1.4,1004.7567,1004.7567,1005.5741,left,1,0.8089,,1005.5741,1006.5703,4,8,72,0,1,total,1,images/Ex9.jpg,left,training,hard,4,,,,,
,,,,,64217d8202361ad4dbed3596,001,59,Male,UK (Scotland),BSc (Hons),2024-03-06_15h04.29.507,CRL1h,2023.2.3,Win32,60.24096386,65e67470ae2fbf2172c317b2,65e885b1163b66c815b71f11,,,,,,,,,,,1006.5705,1.4,1007.9594,1007.9594,1008.8435,right,1,0.8715,,1008.8435,1009.8442,4,9,73,13,1,total,1,images/Ex14.jpg,right,training,hard,4,,,,,
,,,,,64217d8202361ad4dbed3596,001,59,Male,UK (Scotland),BSc (Hons),2024-03-06_15h04.29.507,CRL1h,2023.2.3,Win32,60.24096386,65e67470ae2fbf2172c317b2,65e885b1163b66c815b71f11,,,,,,,,,,,1009.8444,1,1010.845,1010.8451,1011.8792,right,1,1.0284,,1011.8792,1012.8901,4,10,74,14,1,total,1,images/Ex15.jpg,right,training,hard,4,,,,,
,,,,,64217d8202361ad4dbed3596,001,59,Male,UK (Scotland),BSc (Hons),2024-03-06_15h04.29.507,CRL1h,2023.2.3,Win32,60.24096386,65e67470ae2fbf2172c317b2,65e885b1163b66c815b71f11,,,,,,,,,,,1012.8903,1.5,1014.3813,1014.3813,1015.2654,right,0,0.881,,1015.2654,1016.2662,4,11,75,3,1,total,1,images/Ex12.jpg,left,training,hard,4,,,,,
,,,,,64217d8202361ad4dbed3596,001,59,Male,UK (Scotland),BSc (Hons),2024-03-06_15h04.29.507,CRL1h,2023.2.3,Win32,60.24096386,65e67470ae2fbf2172c317b2,65e885b1163b66c815b71f11,,,,,,,,,,,1016.2664,0.8,1017.0668,1017.0668,1017.9532,left,1,0.8857,,1017.9532,1018.9533,4,12,76,1,1,total,1,images/Ex10.jpg,left,training,hard,4,,,,,
,,,,,64217d8202361ad4dbed3596,001,59,Male,UK (Scotland),BSc (Hons),2024-03-06_15h04.29.507,CRL1h,2023.2.3,Win32,60.24096386,65e67470ae2fbf2172c317b2,65e885b1163b66c815b71f11,,,,,,,,,,,1018.9535,1.1,1020.0527,1020.0527,1021.1202,left,0,1.0544,,1021.1202,1022.121,4,13,77,15,1,total,1,images/Ex16.jpg,right,training,hard,4,,,,,
,,,,,64217d8202361ad4dbed3596,001,59,Male,UK (Scotland),BSc (Hons),2024-03-06_15h04.29.507,CRL1h,2023.2.3,Win32,60.24096386,65e67470ae2fbf2172c317b2,65e885b1163b66c815b71f11,,,,,,,,,,,1022.1212,1.2,1023.3312,1023.3312,1024.2729,left,1,0.937,,1024.2729,1025.2736,4,14,78,2,1,total,1,images/Ex11.jpg,left,training,hard,4,,,,,
,,,,,64217d8202361ad4dbed3596,001,59,Male,UK (Scotland),BSc (Hons),2024-03-06_15h04.29.507,CRL1h,2023.2.3,Win32,60.24096386,65e67470ae2fbf2172c317b2,65e885b1163b66c815b71f11,,,,,,,,,,,1025.2738,1.4,1026.6747,1026.6747,1027.6423,left,1,0.966,,1027.6423,1028.643,4,15,79,9,1,total,1,images/Ex10.jpg,left,training,hard,4,,,,,
,,,,,64217d8202361ad4dbed3596,001,59,Male,UK (Scotland),BSc (Hons),2024-03-06_15h04.29.507,CRL1h,2023.2.3,Win32,60.24096386,65e67470ae2fbf2172c317b2,65e885b1163b66c815b71f11,,,,,,,,,,,1028.6432,0.7,1029.3436,1029.3437,1030.2778,right,1,0.9242,,1030.2778,1031.2661,5,0,80,14,1,total,1,images/Ex15.jpg,right,training,hard,4,,,,,
,,,,,64217d8202361ad4dbed3596,001,59,Male,UK (Scotland),BSc (Hons),2024-03-06_15h04.29.507,CRL1h,2023.2.3,Win32,60.24096386,65e67470ae2fbf2172c317b2,65e885b1163b66c815b71f11,,,,,,,,,,,1031.2663,1.4,1032.6631,1032.6631,1033.4304,left,1,0.7654,,1033.4304,1034.4311,5,1,81,9,1,total,1,images/Ex10.jpg,left,training,hard,4,,,,,
,,,,,64217d8202361ad4dbed3596,001,59,Male,UK (Scotland),BSc (Hons),2024-03-06_15h04.29.507,CRL1h,2023.2.3,Win32,60.24096386,65e67470ae2fbf2172c317b2,65e885b1163b66c815b71f11,,,,,,,,,,,1034.4314,1,1035.4319,1035.4319,1036.3828,left,1,0.9388,,1036.3828,1037.3836,5,2,82,2,1,total,1,images/Ex11.jpg,left,training,hard,4,,,,,
,,,,,64217d8202361ad4dbed3596,001,59,Male,UK (Scotland),BSc (Hons),2024-03-06_15h04.29.507,CRL1h,2023.2.3,Win32,60.24096386,65e67470ae2fbf2172c317b2,65e885b1163b66c815b71f11,,,,,,,,,,,1037.3838,0.7,1038.0841,1038.0841,1039.4856,left,1,1.3867,,1039.4856,1040.4861,5,3,83,11,1,total,1,images/Ex12.jpg,left,training,hard,4,,,,,
,,,,,64217d8202361ad4dbed3596,001,59,Male,UK (Scotland),BSc (Hons),2024-03-06_15h04.29.507,CRL1h,2023.2.3,Win32,60.24096386,65e67470ae2fbf2172c317b2,65e885b1163b66c815b71f11,,,,,,,,,,,1040.4864,1.2,1041.6769,1041.677,1042.5881,right,1,0.9085,,1042.5882,1043.5887,5,4,84,15,1,total,1,images/Ex16.jpg,right,training,hard,4,,,,,
,,,,,64217d8202361ad4dbed3596,001,59,Male,UK (Scotland),BSc (Hons),2024-03-06_15h04.29.507,CRL1h,2023.2.3,Win32,60.24096386,65e67470ae2fbf2172c317b2,65e885b1163b66c815b71f11,,,,,,,,,,,1043.589,0.6,1044.1892,1044.1892,1045.3576,left,1,1.1676,,1045.3576,1046.3576,5,5,85,0,1,total,1,images/Ex9.jpg,left,training,hard,4,,,,,
,,,,,64217d8202361ad4dbed3596,001,59,Male,UK (Scotland),BSc (Hons),2024-03-06_15h04.29.507,CRL1h,2023.2.3,Win32,60.24096386,65e67470ae2fbf2172c317b2,65e885b1163b66c815b71f11,,,,,,,,,,,1046.3579,1,1047.3584,1047.3585,1048.0596,left,1,0.7003,,1048.0596,1049.0598,5,6,86,1,1,total,1,images/Ex10.jpg,left,training,hard,4,,,,,
,,,,,64217d8202361ad4dbed3596,001,59,Male,UK (Scotland),BSc (Hons),2024-03-06_15h04.29.507,CRL1h,2023.2.3,Win32,60.24096386,65e67470ae2fbf2172c317b2,65e885b1163b66c815b71f11,,,,,,,,,,,1049.06,0.6,1049.6603,1049.6604,1050.9951,right,1,1.3233,,1050.9951,1051.9957,5,7,87,7,1,total,1,images/Ex16.jpg,right,training,hard,4,,,,,
,,,,,64217d8202361ad4dbed3596,001,59,Male,UK (Scotland),BSc (Hons),2024-03-06_15h04.29.507,CRL1h,2023.2.3,Win32,60.24096386,65e67470ae2fbf2172c317b2,65e885b1163b66c815b71f11,,,,,,,,,,,1051.9961,1.5,1053.4969,1053.4969,1054.3145,left,1,0.8117,,1054.3145,1055.315,5,8,88,10,1,total,1,images/Ex11.jpg,left,training,hard,4,,,,,
,,,,,64217d8202361ad4dbed3596,001,59,Male,UK (Scotland),BSc (Hons),2024-03-06_15h04.29.507,CRL1h,2023.2.3,Win32,60.24096386,65e67470ae2fbf2172c317b2,65e885b1163b66c815b71f11,,,,,,,,,,,1055.3153,1.1,1056.4159,1056.416,1057.7839,left,1,1.3541,,1057.784,1058.7845,5,9,89,3,1,total,1,images/Ex12.jpg,left,training,hard,4,,,,,
,,,,,64217d8202361ad4dbed3596,001,59,Male,UK (Scotland),BSc (Hons),2024-03-06_15h04.29.507,CRL1h,2023.2.3,Win32,60.24096386,65e67470ae2fbf2172c317b2,65e885b1163b66c815b71f11,,,,,,,,,,,1058.7894,1.2,1059.9855,1059.9855,1061.4967,right,1,1.5107,,1061.4967,1062.4896,5,10,90,4,1,total,1,images/Ex13.jpg,right,training,hard,4,,,,,
,,,,,64217d8202361ad4dbed3596,001,59,Male,UK (Scotland),BSc (Hons),2024-03-06_15h04.29.507,CRL1h,2023.2.3,Win32,60.24096386,65e67470ae2fbf2172c317b2,65e885b1163b66c815b71f11,,,,,,,,,,,1062.4899,0.7,1063.2028,1063.2028,1064.4992,right,1,1.2958,,1064.4992,1065.4949,5,11,91,12,1,total,1,images/Ex13.jpg,right,training,hard,4,,,,,
,,,,,64217d8202361ad4dbed3596,001,59,Male,UK (Scotland),BSc (Hons),2024-03-06_15h04.29.507,CRL1h,2023.2.3,Win32,60.24096386,65e67470ae2fbf2172c317b2,65e885b1163b66c815b71f11,,,,,,,,,,,1065.4951,0.9,1066.3931,1066.3932,1067.5137,right,1,1.1199,,1067.5137,1068.5031,5,12,92,5,1,total,1,images/Ex14.jpg,right,training,hard,4,,,,,
,,,,,64217d8202361ad4dbed3596,001,59,Male,UK (Scotland),BSc (Hons),2024-03-06_15h04.29.507,CRL1h,2023.2.3,Win32,60.24096386,65e67470ae2fbf2172c317b2,65e885b1163b66c815b71f11,,,,,,,,,,,1068.5033,1.1,1069.5935,1069.5935,1070.361,right,1,0.7636,,1070.3611,1071.3616,5,13,93,13,1,total,1,images/Ex14.jpg,right,training,hard,4,,,,,
,,,,,64217d8202361ad4dbed3596,001,59,Male,UK (Scotland),BSc (Hons),2024-03-06_15h04.29.507,CRL1h,2023.2.3,Win32,60.24096386,65e67470ae2fbf2172c317b2,65e885b1163b66c815b71f11,,,,,,,,,,,1071.3618,1,1072.3623,1072.3623,1073.2968,left,1,0.9308,,1073.2968,1074.3003,5,14,94,8,1,total,1,images/Ex9.jpg,left,training,hard,4,,,,,
,,,,,64217d8202361ad4dbed3596,001,59,Male,UK (Scotland),BSc (Hons),2024-03-06_15h04.29.507,CRL1h,2023.2.3,Win32,60.24096386,65e67470ae2fbf2172c317b2,65e885b1163b66c815b71f11,,,,,,,,,,,1074.3005,1.2,1075.4982,1075.4982,1076.3343,right,1,0.8356,,1076.3344,1077.3331,5,15,95,6,1,total,1,images/Ex15.jpg,right,training,hard,4,,,,,
,,,,,64217d8202361ad4dbed3596,001,59,Male,UK (Scotland),BSc (Hons),2024-03-06_15h04.29.507,CRL1h,2023.2.3,Win32,60.24096386,65e67470ae2fbf2172c317b2,65e885b1163b66c815b71f11,,,,,,,,,,,1077.3333,1.1,1078.4345,1078.4345,1079.1181,left,1,0.6723,,1079.1181,1080.1187,6,0,96,9,1,total,1,images/Ex10.jpg,left,training,hard,4,,,,,
,,,,,64217d8202361ad4dbed3596,001,59,Male,UK (Scotland),BSc (Hons),2024-03-06_15h04.29.507,CRL1h,2023.2.3,Win32,60.24096386,65e67470ae2fbf2172c317b2,65e885b1163b66c815b71f11,,,,,,,,,,,1080.119,0.6,1080.7192,1080.7192,1081.5915,right,0,0.8718,,1081.5915,1082.5876,6,1,97,8,1,total,1,images/Ex9.jpg,left,training,hard,4,,,,,
,,,,,64217d8202361ad4dbed3596,001,59,Male,UK (Scotland),BSc (Hons),2024-03-06_15h04.29.507,CRL1h,2023.2.3,Win32,60.24096386,65e67470ae2fbf2172c317b2,65e885b1163b66c815b71f11,,,,,,,,,,,1082.588,0.9,1083.4884,1083.4885,1084.1076,left,1,0.6186,,1084.1076,1085.1062,6,2,98,1,1,total,1,images/Ex10.jpg,left,training,hard,4,,,,,
,,,,,64217d8202361ad4dbed3596,001,59,Male,UK (Scotland),BSc (Hons),2024-03-06_15h04.29.507,CRL1h,2023.2.3,Win32,60.24096386,65e67470ae2fbf2172c317b2,65e885b1163b66c815b71f11,,,,,,,,,,,1085.1065,1.1,1086.2071,1086.2071,1086.9578,right,1,0.7431,,1086.9578,1087.9692,6,3,99,5,1,total,1,images/Ex14.jpg,right,training,hard,4,,,,,
,,,,,64217d8202361ad4dbed3596,001,59,Male,UK (Scotland),BSc (Hons),2024-03-06_15h04.29.507,CRL1h,2023.2.3,Win32,60.24096386,65e67470ae2fbf2172c317b2,65e885b1163b66c815b71f11,,,,,,,,,,,1087.9694,1.4,1089.3597,1089.3597,1090.5441,left,1,1.1769,,1090.5441,1091.5451,6,4,100,3,1,total,1,images/Ex12.jpg,left,training,hard,4,,,,,
,,,,,64217d8202361ad4dbed3596,001,59,Male,UK (Scotland),BSc (Hons),2024-03-06_15h04.29.507,CRL1h,2023.2.3,Win32,60.24096386,65e67470ae2fbf2172c317b2,65e885b1163b66c815b71f11,,,,,,,,,,,1091.5454,0.6,1092.1474,1092.1474,1093.0462,right,1,0.8834,,1093.0462,1094.0469,6,5,101,13,1,total,1,images/Ex14.jpg,right,training,hard,4,,,,,
,,,,,64217d8202361ad4dbed3596,001,59,Male,UK (Scotland),BSc (Hons),2024-03-06_15h04.29.507,CRL1h,2023.2.3,Win32,60.24096386,65e67470ae2fbf2172c317b2,65e885b1163b66c815b71f11,,,,,,,,,,,1094.0471,1.2,1095.2478,1095.2478,1096.0819,right,1,0.8291,,1096.0819,1097.0827,6,6,102,14,1,total,1,images/Ex15.jpg,right,training,hard,4,,,,,
,,,,,64217d8202361ad4dbed3596,001,59,Male,UK (Scotland),BSc (Hons),2024-03-06_15h04.29.507,CRL1h,2023.2.3,Win32,60.24096386,65e67470ae2fbf2172c317b2,65e885b1163b66c815b71f11,,,,,,,,,,,1097.0829,0.8,1097.89,1097.89,1098.5891,left,1,0.6982,,1098.5891,1099.5866,6,7,103,10,1,total,1,images/Ex11.jpg,left,training,hard,4,,,,,
,,,,,64217d8202361ad4dbed3596,001,59,Male,UK (Scotland),BSc (Hons),2024-03-06_15h04.29.507,CRL1h,2023.2.3,Win32,60.24096386,65e67470ae2fbf2172c317b2,65e885b1163b66c815b71f11,,,,,,,,,,,1099.5868,1.5,1101.086,1101.086,1101.7367,right,1,0.6414,,1101.7367,1102.7374,6,8,104,7,1,total,1,images/Ex16.jpg,right,training,hard,4,,,,,
,,,,,64217d8202361ad4dbed3596,001,59,Male,UK (Scotland),BSc (Hons),2024-03-06_15h04.29.507,CRL1h,2023.2.3,Win32,60.24096386,65e67470ae2fbf2172c317b2,65e885b1163b66c815b71f11,,,,,,,,,,,1102.7377,0.8,1103.538,1103.538,1104.4389,left,1,0.8923,,1104.4389,1105.4396,6,9,105,2,1,total,1,images/Ex11.jpg,left,training,hard,4,,,,,
,,,,,64217d8202361ad4dbed3596,001,59,Male,UK (Scotland),BSc (Hons),2024-03-06_15h04.29.507,CRL1h,2023.2.3,Win32,60.24096386,65e67470ae2fbf2172c317b2,65e885b1163b66c815b71f11,,,,,,,,,,,1105.4399,0.6,1106.0401,1106.0401,1106.6415,right,1,0.6008,,1106.6416,1107.6323,6,10,106,6,1,total,1,images/Ex15.jpg,right,training,hard,4,,,,,
,,,,,64217d8202361ad4dbed3596,001,59,Male,UK (Scotland),BSc (Hons),2024-03-06_15h04.29.507,CRL1h,2023.2.3,Win32,60.24096386,65e67470ae2fbf2172c317b2,65e885b1163b66c815b71f11,,,,,,,,,,,1107.6325,0.8,1108.4253,1108.4253,1109.3929,right,0,0.9634,,1109.3929,1110.3953,6,11,107,0,1,total,1,images/Ex9.jpg,left,training,hard,4,,,,,
,,,,,64217d8202361ad4dbed3596,001,59,Male,UK (Scotland),BSc (Hons),2024-03-06_15h04.29.507,CRL1h,2023.2.3,Win32,60.24096386,65e67470ae2fbf2172c317b2,65e885b1163b66c815b71f11,,,,,,,,,,,1110.3954,1,1111.3944,1111.3945,1112.2473,right,1,0.8522,,1112.2473,1113.246,6,12,108,15,1,total,1,images/Ex16.jpg,right,training,hard,4,,,,,
,,,,,64217d8202361ad4dbed3596,001,59,Male,UK (Scotland),BSc (Hons),2024-03-06_15h04.29.507,CRL1h,2023.2.3,Win32,60.24096386,65e67470ae2fbf2172c317b2,65e885b1163b66c815b71f11,,,,,,,,,,,1113.2462,1.3,1114.5471,1114.5471,1115.4645,left,0,0.9089,,1115.4645,1116.4653,6,13,109,4,1,total,1,images/Ex13.jpg,right,training,hard,4,,,,,
,,,,,64217d8202361ad4dbed3596,001,59,Male,UK (Scotland),BSc (Hons),2024-03-06_15h04.29.507,CRL1h,2023.2.3,Win32,60.24096386,65e67470ae2fbf2172c317b2,65e885b1163b66c815b71f11,,,,,,,,,,,1116.4656,0.7,1117.1659,1117.1659,1118.0854,right,0,0.919,,1118.0854,1119.0843,6,14,110,11,1,total,1,images/Ex12.jpg,left,training,hard,4,,,,,
,,,,,64217d8202361ad4dbed3596,001,59,Male,UK (Scotland),BSc (Hons),2024-03-06_15h04.29.507,CRL1h,2023.2.3,Win32,60.24096386,65e67470ae2fbf2172c317b2,65e885b1163b66c815b71f11,,,,,,,,,,,1119.0847,0.6,1119.6848,1119.6848,1120.8024,right,1,1.1107,,1120.8024,1121.8032,6,15,111,12,1,total,1,images/Ex13.jpg,right,training,hard,4,,,,,
,,,,,64217d8202361ad4dbed3596,001,59,Male,UK (Scotland),BSc (Hons),2024-03-06_15h04.29.507,CRL1h,2023.2.3,Win32,60.24096386,65e67470ae2fbf2172c317b2,65e885b1163b66c815b71f11,,,,,,,,,,,1121.8035,0.5,1122.3054,1122.3055,1123.0875,left,1,0.7679,,1123.0875,1124.0903,7,0,112,9,1,total,1,images/Ex10.jpg,left,training,hard,4,,,,,
,,,,,64217d8202361ad4dbed3596,001,59,Male,UK (Scotland),BSc (Hons),2024-03-06_15h04.29.507,CRL1h,2023.2.3,Win32,60.24096386,65e67470ae2fbf2172c317b2,65e885b1163b66c815b71f11,,,,,,,,,,,1124.0906,0.8,1124.8889,1124.8889,1125.8899,right,0,0.9861,,1125.8899,1126.8775,7,1,113,0,1,total,1,images/Ex9.jpg,left,training,hard,4,,,,,
,,,,,64217d8202361ad4dbed3596,001,59,Male,UK (Scotland),BSc (Hons),2024-03-06_15h04.29.507,CRL1h,2023.2.3,Win32,60.24096386,65e67470ae2fbf2172c317b2,65e885b1163b66c815b71f11,,,,,,,,,,,1126.8777,1.3,1128.1749,1128.1749,1128.9423,right,1,0.7665,,1128.9424,1129.9315,7,2,114,6,1,total,1,images/Ex15.jpg,right,training,hard,4,,,,,
