infCons.started,infCons.stopped,resp_consent.keys,resp_consent.rt,resp_consent.duration,participant,session,Age?,Gender?,Nationality?,Highest Educational Degree?,date,expName,psychopyVersion,OS,frameRate,STUDY_ID,SESSION_ID,instructions.started,instructions.stopped,resp_instructions.keys,resp_instructions.rt,resp_instructions.duration,nextTask.started,nextTask.stopped,ready_task.keys,ready_task.rt,ready_task.duration,fixation.started,ITI,fixation.stopped,stim.started,stim.stopped,response.keys,response.corr,response.rt,response.duration,feedback.started,feedback.stopped,trials.thisRepN,trials.thisTrialN,trials.thisN,trials.thisIndex,trials.ran,task,phase,Exemplars,r_correct,condition,difficulty,set,end.started,end.stopped,resp_end.keys,resp_end.rt,resp_end.duration
0.0149,45.7462,space,45.5088,,644940c6c6b71b43c2f0d552,001,56,Female,British,Vocational,2024-03-06_12h18.45.243,CRL1h,2023.2.3,Win32,60.60606061,65e67470ae2fbf2172c317b2,65e85ea8575cfed617fa39f4,,,,,,,,,,,,,,,,,,,,,,,,,,,,,,,,,,,,,,
,,,,,644940c6c6b71b43c2f0d552,001,56,Female,British,Vocational,2024-03-06_12h18.45.243,CRL1h,2023.2.3,Win32,60.60606061,65e67470ae2fbf2172c317b2,65e85ea8575cfed617fa39f4,45.7466,75.4238,space,29.6485,,,,,,,,,,,,,,,,,,,,,,,,,,,,,,,,,,
,,,,,644940c6c6b71b43c2f0d552,001,56,Female,British,Vocational,2024-03-06_12h18.45.243,CRL1h,2023.2.3,Win32,60.60606061,65e67470ae2fbf2172c317b2,65e85ea8575cfed617fa39f4,,,,,,75.4467,101.5674,space,26.1009,,101.5917,0.6,102.1828,102.1831,113.9503,left,1,11.7558,,113.9506,114.9473,0,0,0,0,1,total,1,images/Ex1.jpg,left,training,hard,2,,,,,
,,,,,644940c6c6b71b43c2f0d552,001,56,Female,British,Vocational,2024-03-06_12h18.45.243,CRL1h,2023.2.3,Win32,60.60606061,65e67470ae2fbf2172c317b2,65e85ea8575cfed617fa39f4,,,,,,,,,,,114.9488,0.6,115.5462,115.5462,116.8311,right,0,1.2824,,116.8313,117.8291,0,1,1,1,1,total,1,images/Ex2.jpg,left,training,hard,2,,,,,
,,,,,644940c6c6b71b43c2f0d552,001,56,Female,British,Vocational,2024-03-06_12h18.45.243,CRL1h,2023.2.3,Win32,60.60606061,65e67470ae2fbf2172c317b2,65e85ea8575cfed617fa39f4,,,,,,,,,,,117.8306,1.1,118.9291,118.9292,127.3134,left,0,8.3825,,127.3135,128.3108,0,2,2,4,1,total,1,images/Ex5.jpg,right,training,hard,2,,,,,
,,,,,644940c6c6b71b43c2f0d552,001,56,Female,British,Vocational,2024-03-06_12h18.45.243,CRL1h,2023.2.3,Win32,60.60606061,65e67470ae2fbf2172c317b2,65e85ea8575cfed617fa39f4,,,,,,,,,,,128.3249,0.6,128.9267,128.9267,133.7424,right,1,4.8122,,133.7425,134.7422,0,3,3,15,1,total,1,images/Ex8.jpg,right,training,hard,2,,,,,
,,,,,644940c6c6b71b43c2f0d552,001,56,Female,British,Vocational,2024-03-06_12h18.45.243,CRL1h,2023.2.3,Win32,60.60606061,65e67470ae2fbf2172c317b2,65e85ea8575cfed617fa39f4,,,,,,,,,,,134.755,1.1,135.8584,135.8584,137.2427,right,0,1.3778,,137.2427,138.2379,0,4,4,3,1,total,1,images/Ex4.jpg,left,training,hard,2,,,,,
,,,,,644940c6c6b71b43c2f0d552,001,56,Female,British,Vocational,2024-03-06_12h18.45.243,CRL1h,2023.2.3,Win32,60.60606061,65e67470ae2fbf2172c317b2,65e85ea8575cfed617fa39f4,,,,,,,,,,,138.2386,0.8,139.0417,139.0418,140.4425,right,1,1.3993,,140.4426,141.4492,0,5,5,13,1,total,1,images/Ex6.jpg,right,training,hard,2,,,,,
,,,,,644940c6c6b71b43c2f0d552,001,56,Female,British,Vocational,2024-03-06_12h18.45.243,CRL1h,2023.2.3,Win32,60.60606061,65e67470ae2fbf2172c317b2,65e85ea8575cfed617fa39f4,,,,,,,,,,,141.4501,1.1,142.5408,142.5408,143.425,right,1,0.8829,,143.425,144.423,0,6,6,5,1,total,1,images/Ex6.jpg,right,training,hard,2,,,,,
,,,,,644940c6c6b71b43c2f0d552,001,56,Female,British,Vocational,2024-03-06_12h18.45.243,CRL1h,2023.2.3,Win32,60.60606061,65e67470ae2fbf2172c317b2,65e85ea8575cfed617fa39f4,,,,,,,,,,,144.4234,1.1,145.5232,145.5233,146.4736,right,0,0.9489,,146.4738,147.4714,0,7,7,9,1,total,1,images/Ex2.jpg,left,training,hard,2,,,,,
,,,,,644940c6c6b71b43c2f0d552,001,56,Female,British,Vocational,2024-03-06_12h18.45.243,CRL1h,2023.2.3,Win32,60.60606061,65e67470ae2fbf2172c317b2,65e85ea8575cfed617fa39f4,,,,,,,,,,,147.4725,0.6,148.0731,148.0733,149.4026,right,1,1.3279,,149.4027,150.4055,0,8,8,14,1,total,1,images/Ex7.jpg,right,training,hard,2,,,,,
,,,,,644940c6c6b71b43c2f0d552,001,56,Female,British,Vocational,2024-03-06_12h18.45.243,CRL1h,2023.2.3,Win32,60.60606061,65e67470ae2fbf2172c317b2,65e85ea8575cfed617fa39f4,,,,,,,,,,,150.406,1,151.4048,151.4048,152.0055,right,1,0.5986,,152.0057,153.0038,0,9,9,12,1,total,1,images/Ex5.jpg,right,training,hard,2,,,,,
,,,,,644940c6c6b71b43c2f0d552,001,56,Female,British,Vocational,2024-03-06_12h18.45.243,CRL1h,2023.2.3,Win32,60.60606061,65e67470ae2fbf2172c317b2,65e85ea8575cfed617fa39f4,,,,,,,,,,,153.0048,1.4,154.4043,154.4044,155.0051,right,0,0.5995,,155.0052,156.0027,0,10,10,10,1,total,1,images/Ex3.jpg,left,training,hard,2,,,,,
,,,,,644940c6c6b71b43c2f0d552,001,56,Female,British,Vocational,2024-03-06_12h18.45.243,CRL1h,2023.2.3,Win32,60.60606061,65e67470ae2fbf2172c317b2,65e85ea8575cfed617fa39f4,,,,,,,,,,,156.0037,1.1,157.1035,157.1035,158.3369,left,1,1.2314,,158.337,159.3353,0,11,11,8,1,total,1,images/Ex1.jpg,left,training,hard,2,,,,,
,,,,,644940c6c6b71b43c2f0d552,001,56,Female,British,Vocational,2024-03-06_12h18.45.243,CRL1h,2023.2.3,Win32,60.60606061,65e67470ae2fbf2172c317b2,65e85ea8575cfed617fa39f4,,,,,,,,,,,159.3364,0.5,159.835,159.835,161.5867,left,0,1.7492,,161.5868,162.5851,0,12,12,6,1,total,1,images/Ex7.jpg,right,training,hard,2,,,,,
,,,,,644940c6c6b71b43c2f0d552,001,56,Female,British,Vocational,2024-03-06_12h18.45.243,CRL1h,2023.2.3,Win32,60.60606061,65e67470ae2fbf2172c317b2,65e85ea8575cfed617fa39f4,,,,,,,,,,,162.5977,1.4,164.0015,164.0016,164.9529,right,1,0.9489,,164.953,165.9508,0,13,13,7,1,total,1,images/Ex8.jpg,right,training,hard,2,,,,,
,,,,,644940c6c6b71b43c2f0d552,001,56,Female,British,Vocational,2024-03-06_12h18.45.243,CRL1h,2023.2.3,Win32,60.60606061,65e67470ae2fbf2172c317b2,65e85ea8575cfed617fa39f4,,,,,,,,,,,165.9519,1,166.9505,166.9506,167.6192,right,0,0.6662,,167.6193,168.6173,0,14,14,11,1,total,1,images/Ex4.jpg,left,training,hard,2,,,,,
,,,,,644940c6c6b71b43c2f0d552,001,56,Female,British,Vocational,2024-03-06_12h18.45.243,CRL1h,2023.2.3,Win32,60.60606061,65e67470ae2fbf2172c317b2,65e85ea8575cfed617fa39f4,,,,,,,,,,,168.6178,0.5,169.1171,169.1172,170.3521,left,1,1.2296,,170.3522,171.35,0,15,15,2,1,total,1,images/Ex3.jpg,left,training,hard,2,,,,,
,,,,,644940c6c6b71b43c2f0d552,001,56,Female,British,Vocational,2024-03-06_12h18.45.243,CRL1h,2023.2.3,Win32,60.60606061,65e67470ae2fbf2172c317b2,65e85ea8575cfed617fa39f4,,,,,,,,,,,171.3506,1.4,172.75,172.7501,173.5025,right,0,0.7509,,173.5026,174.4992,1,0,16,11,1,total,1,images/Ex4.jpg,left,training,hard,2,,,,,
,,,,,644940c6c6b71b43c2f0d552,001,56,Female,British,Vocational,2024-03-06_12h18.45.243,CRL1h,2023.2.3,Win32,60.60606061,65e67470ae2fbf2172c317b2,65e85ea8575cfed617fa39f4,,,,,,,,,,,174.5002,1,175.499,175.4991,176.4669,right,1,0.9661,,176.467,177.4652,1,1,17,7,1,total,1,images/Ex8.jpg,right,training,hard,2,,,,,
,,,,,644940c6c6b71b43c2f0d552,001,56,Female,British,Vocational,2024-03-06_12h18.45.243,CRL1h,2023.2.3,Win32,60.60606061,65e67470ae2fbf2172c317b2,65e85ea8575cfed617fa39f4,,,,,,,,,,,177.4657,1.2,178.6653,178.6654,179.4487,right,0,0.7819,,179.4487,180.4479,1,2,18,1,1,total,1,images/Ex2.jpg,left,training,hard,2,,,,,
,,,,,644940c6c6b71b43c2f0d552,001,56,Female,British,Vocational,2024-03-06_12h18.45.243,CRL1h,2023.2.3,Win32,60.60606061,65e67470ae2fbf2172c317b2,65e85ea8575cfed617fa39f4,,,,,,,,,,,180.4484,0.6,181.0491,181.0492,182.0281,right,1,0.9765,,182.0282,183.0313,1,3,19,12,1,total,1,images/Ex5.jpg,right,training,hard,2,,,,,
,,,,,644940c6c6b71b43c2f0d552,001,56,Female,British,Vocational,2024-03-06_12h18.45.243,CRL1h,2023.2.3,Win32,60.60606061,65e67470ae2fbf2172c317b2,65e85ea8575cfed617fa39f4,,,,,,,,,,,183.0319,0.8,183.831,183.831,184.6843,left,0,0.8513,,184.6843,185.676,1,4,20,6,1,total,1,images/Ex7.jpg,right,training,hard,2,,,,,
,,,,,644940c6c6b71b43c2f0d552,001,56,Female,British,Vocational,2024-03-06_12h18.45.243,CRL1h,2023.2.3,Win32,60.60606061,65e67470ae2fbf2172c317b2,65e85ea8575cfed617fa39f4,,,,,,,,,,,185.6765,1.1,186.7627,186.7627,187.479,left,1,0.7127,,187.4792,188.4768,1,5,21,0,1,total,1,images/Ex1.jpg,left,training,hard,2,,,,,
,,,,,644940c6c6b71b43c2f0d552,001,56,Female,British,Vocational,2024-03-06_12h18.45.243,CRL1h,2023.2.3,Win32,60.60606061,65e67470ae2fbf2172c317b2,65e85ea8575cfed617fa39f4,,,,,,,,,,,188.4786,1.5,189.9796,189.9797,190.8132,right,1,0.8314,,190.8133,191.8123,1,6,22,5,1,total,1,images/Ex6.jpg,right,training,hard,2,,,,,
,,,,,644940c6c6b71b43c2f0d552,001,56,Female,British,Vocational,2024-03-06_12h18.45.243,CRL1h,2023.2.3,Win32,60.60606061,65e67470ae2fbf2172c317b2,65e85ea8575cfed617fa39f4,,,,,,,,,,,191.8128,0.8,192.6122,192.6122,193.8965,right,0,1.2829,,193.8965,194.8958,1,7,23,10,1,total,1,images/Ex3.jpg,left,training,hard,2,,,,,
,,,,,644940c6c6b71b43c2f0d552,001,56,Female,British,Vocational,2024-03-06_12h18.45.243,CRL1h,2023.2.3,Win32,60.60606061,65e67470ae2fbf2172c317b2,65e85ea8575cfed617fa39f4,,,,,,,,,,,194.9086,1.2,196.1129,196.1129,197.4119,right,1,1.2972,,197.412,198.4112,1,8,24,4,1,total,1,images/Ex5.jpg,right,training,hard,2,,,,,
,,,,,644940c6c6b71b43c2f0d552,001,56,Female,British,Vocational,2024-03-06_12h18.45.243,CRL1h,2023.2.3,Win32,60.60606061,65e67470ae2fbf2172c317b2,65e85ea8575cfed617fa39f4,,,,,,,,,,,198.4117,1.2,199.6102,199.6102,200.878,right,1,1.2645,,200.878,201.8763,1,9,25,13,1,total,1,images/Ex6.jpg,right,training,hard,2,,,,,
,,,,,644940c6c6b71b43c2f0d552,001,56,Female,British,Vocational,2024-03-06_12h18.45.243,CRL1h,2023.2.3,Win32,60.60606061,65e67470ae2fbf2172c317b2,65e85ea8575cfed617fa39f4,,,,,,,,,,,201.8768,0.5,202.3763,202.3763,203.2937,left,1,0.916,,203.2938,204.2928,1,10,26,8,1,total,1,images/Ex1.jpg,left,training,hard,2,,,,,
,,,,,644940c6c6b71b43c2f0d552,001,56,Female,British,Vocational,2024-03-06_12h18.45.243,CRL1h,2023.2.3,Win32,60.60606061,65e67470ae2fbf2172c317b2,65e85ea8575cfed617fa39f4,,,,,,,,,,,204.2933,0.9,205.1925,205.1926,205.8222,right,0,0.6282,,205.8225,206.8242,1,11,27,9,1,total,1,images/Ex2.jpg,left,training,hard,2,,,,,
,,,,,644940c6c6b71b43c2f0d552,001,56,Female,British,Vocational,2024-03-06_12h18.45.243,CRL1h,2023.2.3,Win32,60.60606061,65e67470ae2fbf2172c317b2,65e85ea8575cfed617fa39f4,,,,,,,,,,,206.8253,0.7,207.5246,207.5247,208.5433,left,1,1.0175,,208.5433,209.5411,1,12,28,2,1,total,1,images/Ex3.jpg,left,training,hard,2,,,,,
,,,,,644940c6c6b71b43c2f0d552,001,56,Female,British,Vocational,2024-03-06_12h18.45.243,CRL1h,2023.2.3,Win32,60.60606061,65e67470ae2fbf2172c317b2,65e85ea8575cfed617fa39f4,,,,,,,,,,,209.5419,1,210.5408,210.5408,211.4735,right,1,0.9313,,211.4735,212.4752,1,13,29,15,1,total,1,images/Ex8.jpg,right,training,hard,2,,,,,
,,,,,644940c6c6b71b43c2f0d552,001,56,Female,British,Vocational,2024-03-06_12h18.45.243,CRL1h,2023.2.3,Win32,60.60606061,65e67470ae2fbf2172c317b2,65e85ea8575cfed617fa39f4,,,,,,,,,,,212.4762,1.2,213.6731,213.6731,214.4576,right,0,0.7826,,214.4577,215.4696,1,14,30,3,1,total,1,images/Ex4.jpg,left,training,hard,2,,,,,
,,,,,644940c6c6b71b43c2f0d552,001,56,Female,British,Vocational,2024-03-06_12h18.45.243,CRL1h,2023.2.3,Win32,60.60606061,65e67470ae2fbf2172c317b2,65e85ea8575cfed617fa39f4,,,,,,,,,,,215.4705,0.8,216.2729,216.273,217.449,left,0,1.1746,,217.449,218.4386,1,15,31,14,1,total,1,images/Ex7.jpg,right,training,hard,2,,,,,
,,,,,644940c6c6b71b43c2f0d552,001,56,Female,British,Vocational,2024-03-06_12h18.45.243,CRL1h,2023.2.3,Win32,60.60606061,65e67470ae2fbf2172c317b2,65e85ea8575cfed617fa39f4,,,,,,,,,,,218.4391,0.9,219.3385,219.3386,220.1856,right,0,0.8456,,220.1857,221.187,2,0,32,9,1,total,1,images/Ex2.jpg,left,training,hard,2,,,,,
,,,,,644940c6c6b71b43c2f0d552,001,56,Female,British,Vocational,2024-03-06_12h18.45.243,CRL1h,2023.2.3,Win32,60.60606061,65e67470ae2fbf2172c317b2,65e85ea8575cfed617fa39f4,,,,,,,,,,,221.188,0.5,221.6873,221.6873,222.824,left,0,1.135,,222.824,223.8212,2,1,33,6,1,total,1,images/Ex7.jpg,right,training,hard,2,,,,,
,,,,,644940c6c6b71b43c2f0d552,001,56,Female,British,Vocational,2024-03-06_12h18.45.243,CRL1h,2023.2.3,Win32,60.60606061,65e67470ae2fbf2172c317b2,65e85ea8575cfed617fa39f4,,,,,,,,,,,223.8222,0.6,224.4212,224.4212,225.1379,left,1,0.7145,,225.1379,226.1359,2,2,34,8,1,total,1,images/Ex1.jpg,left,training,hard,2,,,,,
,,,,,644940c6c6b71b43c2f0d552,001,56,Female,British,Vocational,2024-03-06_12h18.45.243,CRL1h,2023.2.3,Win32,60.60606061,65e67470ae2fbf2172c317b2,65e85ea8575cfed617fa39f4,,,,,,,,,,,226.1369,0.6,226.738,226.7381,227.5693,left,1,0.829,,227.5693,228.5699,2,3,35,2,1,total,1,images/Ex3.jpg,left,training,hard,2,,,,,
,,,,,644940c6c6b71b43c2f0d552,001,56,Female,British,Vocational,2024-03-06_12h18.45.243,CRL1h,2023.2.3,Win32,60.60606061,65e67470ae2fbf2172c317b2,65e85ea8575cfed617fa39f4,,,,,,,,,,,228.5705,0.8,229.3693,229.3694,230.3214,right,1,0.9501,,230.3215,231.3203,2,4,36,15,1,total,1,images/Ex8.jpg,right,training,hard,2,,,,,
,,,,,644940c6c6b71b43c2f0d552,001,56,Female,British,Vocational,2024-03-06_12h18.45.243,CRL1h,2023.2.3,Win32,60.60606061,65e67470ae2fbf2172c317b2,65e85ea8575cfed617fa39f4,,,,,,,,,,,231.3208,0.6,231.9198,231.9199,232.8858,right,1,0.9615,,232.8859,233.8849,2,5,37,12,1,total,1,images/Ex5.jpg,right,training,hard,2,,,,,
,,,,,644940c6c6b71b43c2f0d552,001,56,Female,British,Vocational,2024-03-06_12h18.45.243,CRL1h,2023.2.3,Win32,60.60606061,65e67470ae2fbf2172c317b2,65e85ea8575cfed617fa39f4,,,,,,,,,,,233.8854,0.6,234.4852,234.4853,235.5358,left,0,1.0488,,235.5359,236.5338,2,6,38,13,1,total,1,images/Ex6.jpg,right,training,hard,2,,,,,
,,,,,644940c6c6b71b43c2f0d552,001,56,Female,British,Vocational,2024-03-06_12h18.45.243,CRL1h,2023.2.3,Win32,60.60606061,65e67470ae2fbf2172c317b2,65e85ea8575cfed617fa39f4,,,,,,,,,,,236.5349,1.1,237.6306,237.6307,238.8144,right,0,1.1819,,238.8145,239.8169,2,7,39,3,1,total,1,images/Ex4.jpg,left,training,hard,2,,,,,
,,,,,644940c6c6b71b43c2f0d552,001,56,Female,British,Vocational,2024-03-06_12h18.45.243,CRL1h,2023.2.3,Win32,60.60606061,65e67470ae2fbf2172c317b2,65e85ea8575cfed617fa39f4,,,,,,,,,,,239.8174,1.1,240.917,240.9171,241.5463,right,0,0.6279,,241.5463,242.5491,2,8,40,1,1,total,1,images/Ex2.jpg,left,training,hard,2,,,,,
,,,,,644940c6c6b71b43c2f0d552,001,56,Female,British,Vocational,2024-03-06_12h18.45.243,CRL1h,2023.2.3,Win32,60.60606061,65e67470ae2fbf2172c317b2,65e85ea8575cfed617fa39f4,,,,,,,,,,,242.5502,1,243.5482,243.5482,244.5835,right,1,1.0268,,244.5836,245.582,2,9,41,14,1,total,1,images/Ex7.jpg,right,training,hard,2,,,,,
,,,,,644940c6c6b71b43c2f0d552,001,56,Female,British,Vocational,2024-03-06_12h18.45.243,CRL1h,2023.2.3,Win32,60.60606061,65e67470ae2fbf2172c317b2,65e85ea8575cfed617fa39f4,,,,,,,,,,,245.5824,0.7,246.2823,246.2824,247.2175,right,0,0.9333,,247.2177,248.2162,2,10,42,11,1,total,1,images/Ex4.jpg,left,training,hard,2,,,,,
,,,,,644940c6c6b71b43c2f0d552,001,56,Female,British,Vocational,2024-03-06_12h18.45.243,CRL1h,2023.2.3,Win32,60.60606061,65e67470ae2fbf2172c317b2,65e85ea8575cfed617fa39f4,,,,,,,,,,,248.2168,1.1,249.3157,249.3157,250.1511,left,1,0.8335,,250.1512,251.1479,2,11,43,10,1,total,1,images/Ex3.jpg,left,training,hard,2,,,,,
,,,,,644940c6c6b71b43c2f0d552,001,56,Female,British,Vocational,2024-03-06_12h18.45.243,CRL1h,2023.2.3,Win32,60.60606061,65e67470ae2fbf2172c317b2,65e85ea8575cfed617fa39f4,,,,,,,,,,,251.149,0.5,251.6483,251.6483,252.5304,left,0,0.8774,,252.5305,253.5293,2,12,44,4,1,total,1,images/Ex5.jpg,right,training,hard,2,,,,,
,,,,,644940c6c6b71b43c2f0d552,001,56,Female,British,Vocational,2024-03-06_12h18.45.243,CRL1h,2023.2.3,Win32,60.60606061,65e67470ae2fbf2172c317b2,65e85ea8575cfed617fa39f4,,,,,,,,,,,253.5304,1,254.5299,254.5299,255.2977,left,1,0.7663,,255.2977,256.2963,2,13,45,0,1,total,1,images/Ex1.jpg,left,training,hard,2,,,,,
,,,,,644940c6c6b71b43c2f0d552,001,56,Female,British,Vocational,2024-03-06_12h18.45.243,CRL1h,2023.2.3,Win32,60.60606061,65e67470ae2fbf2172c317b2,65e85ea8575cfed617fa39f4,,,,,,,,,,,256.2973,1.5,257.7959,257.796,258.9433,left,0,1.1461,,258.9434,259.9473,2,14,46,5,1,total,1,images/Ex6.jpg,right,training,hard,2,,,,,
,,,,,644940c6c6b71b43c2f0d552,001,56,Female,British,Vocational,2024-03-06_12h18.45.243,CRL1h,2023.2.3,Win32,60.60606061,65e67470ae2fbf2172c317b2,65e85ea8575cfed617fa39f4,,,,,,,,,,,259.9482,0.8,260.7453,260.7453,261.4444,right,1,0.697,,261.4445,262.4448,2,15,47,7,1,total,1,images/Ex8.jpg,right,training,hard,2,,,,,
,,,,,644940c6c6b71b43c2f0d552,001,56,Female,British,Vocational,2024-03-06_12h18.45.243,CRL1h,2023.2.3,Win32,60.60606061,65e67470ae2fbf2172c317b2,65e85ea8575cfed617fa39f4,,,,,,,,,,,262.4453,0.9,263.3446,263.3447,264.112,left,1,0.7657,,264.1121,265.1115,3,0,48,0,1,total,1,images/Ex1.jpg,left,training,hard,2,,,,,
,,,,,644940c6c6b71b43c2f0d552,001,56,Female,British,Vocational,2024-03-06_12h18.45.243,CRL1h,2023.2.3,Win32,60.60606061,65e67470ae2fbf2172c317b2,65e85ea8575cfed617fa39f4,,,,,,,,,,,265.112,0.6,265.7113,265.7114,266.6621,right,1,0.9492,,266.6622,267.661,3,1,49,7,1,total,1,images/Ex8.jpg,right,training,hard,2,,,,,
,,,,,644940c6c6b71b43c2f0d552,001,56,Female,British,Vocational,2024-03-06_12h18.45.243,CRL1h,2023.2.3,Win32,60.60606061,65e67470ae2fbf2172c317b2,65e85ea8575cfed617fa39f4,,,,,,,,,,,267.6616,0.7,268.3605,268.3605,269.5109,left,0,1.1482,,269.511,270.509,3,2,50,14,1,total,1,images/Ex7.jpg,right,training,hard,2,,,,,
,,,,,644940c6c6b71b43c2f0d552,001,56,Female,British,Vocational,2024-03-06_12h18.45.243,CRL1h,2023.2.3,Win32,60.60606061,65e67470ae2fbf2172c317b2,65e85ea8575cfed617fa39f4,,,,,,,,,,,270.5115,1.3,271.823,271.823,272.5274,right,0,0.7023,,272.5275,273.525,3,3,51,1,1,total,1,images/Ex2.jpg,left,training,hard,2,,,,,
,,,,,644940c6c6b71b43c2f0d552,001,56,Female,British,Vocational,2024-03-06_12h18.45.243,CRL1h,2023.2.3,Win32,60.60606061,65e67470ae2fbf2172c317b2,65e85ea8575cfed617fa39f4,,,,,,,,,,,273.5259,1.4,274.9211,274.9211,276.1058,left,0,1.1832,,276.1058,277.1082,3,4,52,15,1,total,1,images/Ex8.jpg,right,training,hard,2,,,,,
,,,,,644940c6c6b71b43c2f0d552,001,56,Female,British,Vocational,2024-03-06_12h18.45.243,CRL1h,2023.2.3,Win32,60.60606061,65e67470ae2fbf2172c317b2,65e85ea8575cfed617fa39f4,,,,,,,,,,,277.1087,1,278.1077,278.1077,279.0956,right,0,0.9867,,279.0956,280.0867,3,5,53,2,1,total,1,images/Ex3.jpg,left,training,hard,2,,,,,
,,,,,644940c6c6b71b43c2f0d552,001,56,Female,British,Vocational,2024-03-06_12h18.45.243,CRL1h,2023.2.3,Win32,60.60606061,65e67470ae2fbf2172c317b2,65e85ea8575cfed617fa39f4,,,,,,,,,,,280.0877,1.3,281.3906,281.3906,282.4748,left,1,1.0824,,282.4748,283.4731,3,6,54,10,1,total,1,images/Ex3.jpg,left,training,hard,2,,,,,
,,,,,644940c6c6b71b43c2f0d552,001,56,Female,British,Vocational,2024-03-06_12h18.45.243,CRL1h,2023.2.3,Win32,60.60606061,65e67470ae2fbf2172c317b2,65e85ea8575cfed617fa39f4,,,,,,,,,,,283.4735,1,284.4729,284.473,285.3892,right,0,0.9148,,285.3892,286.3889,3,7,55,11,1,total,1,images/Ex4.jpg,left,training,hard,2,,,,,
,,,,,644940c6c6b71b43c2f0d552,001,56,Female,British,Vocational,2024-03-06_12h18.45.243,CRL1h,2023.2.3,Win32,60.60606061,65e67470ae2fbf2172c317b2,65e85ea8575cfed617fa39f4,,,,,,,,,,,286.3894,1.2,287.5883,287.5883,289.0061,right,1,1.4163,,289.0062,290.0043,3,8,56,5,1,total,1,images/Ex6.jpg,right,training,hard,2,,,,,
,,,,,644940c6c6b71b43c2f0d552,001,56,Female,British,Vocational,2024-03-06_12h18.45.243,CRL1h,2023.2.3,Win32,60.60606061,65e67470ae2fbf2172c317b2,65e85ea8575cfed617fa39f4,,,,,,,,,,,290.0053,0.7,290.704,290.704,291.5875,right,0,0.8763,,291.5875,292.5877,3,9,57,9,1,total,1,images/Ex2.jpg,left,training,hard,2,,,,,
,,,,,644940c6c6b71b43c2f0d552,001,56,Female,British,Vocational,2024-03-06_12h18.45.243,CRL1h,2023.2.3,Win32,60.60606061,65e67470ae2fbf2172c317b2,65e85ea8575cfed617fa39f4,,,,,,,,,,,292.5881,1.2,293.7872,293.7873,295.3869,right,0,1.5977,,295.387,296.3866,3,10,58,3,1,total,1,images/Ex4.jpg,left,training,hard,2,,,,,
,,,,,644940c6c6b71b43c2f0d552,001,56,Female,British,Vocational,2024-03-06_12h18.45.243,CRL1h,2023.2.3,Win32,60.60606061,65e67470ae2fbf2172c317b2,65e85ea8575cfed617fa39f4,,,,,,,,,,,296.3871,1.2,297.5863,297.5864,298.6372,left,1,1.0489,,298.6373,299.6364,3,11,59,8,1,total,1,images/Ex1.jpg,left,training,hard,2,,,,,
,,,,,644940c6c6b71b43c2f0d552,001,56,Female,British,Vocational,2024-03-06_12h18.45.243,CRL1h,2023.2.3,Win32,60.60606061,65e67470ae2fbf2172c317b2,65e85ea8575cfed617fa39f4,,,,,,,,,,,299.6374,0.9,300.5315,300.5316,302.2689,right,1,1.735,,302.2689,303.2684,3,12,60,4,1,total,1,images/Ex5.jpg,right,training,hard,2,,,,,
,,,,,644940c6c6b71b43c2f0d552,001,56,Female,British,Vocational,2024-03-06_12h18.45.243,CRL1h,2023.2.3,Win32,60.60606061,65e67470ae2fbf2172c317b2,65e85ea8575cfed617fa39f4,,,,,,,,,,,303.2688,1.2,304.4687,304.4687,305.3317,left,0,0.8614,,305.3318,306.3346,3,13,61,6,1,total,1,images/Ex7.jpg,right,training,hard,2,,,,,
,,,,,644940c6c6b71b43c2f0d552,001,56,Female,British,Vocational,2024-03-06_12h18.45.243,CRL1h,2023.2.3,Win32,60.60606061,65e67470ae2fbf2172c317b2,65e85ea8575cfed617fa39f4,,,,,,,,,,,306.3351,1.2,307.5338,307.5339,308.918,right,1,1.3827,,308.9181,309.9164,3,14,62,12,1,total,1,images/Ex5.jpg,right,training,hard,2,,,,,
,,,,,644940c6c6b71b43c2f0d552,001,56,Female,British,Vocational,2024-03-06_12h18.45.243,CRL1h,2023.2.3,Win32,60.60606061,65e67470ae2fbf2172c317b2,65e85ea8575cfed617fa39f4,,,,,,,,,,,309.9307,1.4,311.3331,311.3331,312.5175,right,1,1.183,,312.5176,313.5152,3,15,63,13,1,total,1,images/Ex6.jpg,right,training,hard,2,,,,,
,,,,,644940c6c6b71b43c2f0d552,001,56,Female,British,Vocational,2024-03-06_12h18.45.243,CRL1h,2023.2.3,Win32,60.60606061,65e67470ae2fbf2172c317b2,65e85ea8575cfed617fa39f4,,,,,,,,,,,313.5165,1.1,314.6154,314.6154,315.9663,right,1,1.3496,,315.9664,316.9643,4,0,64,12,1,total,1,images/Ex5.jpg,right,training,hard,2,,,,,
,,,,,644940c6c6b71b43c2f0d552,001,56,Female,British,Vocational,2024-03-06_12h18.45.243,CRL1h,2023.2.3,Win32,60.60606061,65e67470ae2fbf2172c317b2,65e85ea8575cfed617fa39f4,,,,,,,,,,,316.9653,1.2,318.1642,318.1643,319.2485,right,1,1.0822,,319.2486,320.2466,4,1,65,6,1,total,1,images/Ex7.jpg,right,training,hard,2,,,,,
,,,,,644940c6c6b71b43c2f0d552,001,56,Female,British,Vocational,2024-03-06_12h18.45.243,CRL1h,2023.2.3,Win32,60.60606061,65e67470ae2fbf2172c317b2,65e85ea8575cfed617fa39f4,,,,,,,,,,,320.2476,1.4,321.6467,321.6468,323.2135,right,0,1.5633,,323.2135,324.2136,4,2,66,9,1,total,1,images/Ex2.jpg,left,training,hard,2,,,,,
,,,,,644940c6c6b71b43c2f0d552,001,56,Female,British,Vocational,2024-03-06_12h18.45.243,CRL1h,2023.2.3,Win32,60.60606061,65e67470ae2fbf2172c317b2,65e85ea8575cfed617fa39f4,,,,,,,,,,,324.2266,1.3,325.5299,325.5299,326.7325,left,0,1.2012,,326.7326,327.7285,4,3,67,13,1,total,1,images/Ex6.jpg,right,training,hard,2,,,,,
,,,,,644940c6c6b71b43c2f0d552,001,56,Female,British,Vocational,2024-03-06_12h18.45.243,CRL1h,2023.2.3,Win32,60.60606061,65e67470ae2fbf2172c317b2,65e85ea8575cfed617fa39f4,,,,,,,,,,,327.7291,1.5,329.2282,329.2282,330.2737,right,1,1.0436,,330.2738,331.2642,4,4,68,14,1,total,1,images/Ex7.jpg,right,training,hard,2,,,,,
,,,,,644940c6c6b71b43c2f0d552,001,56,Female,British,Vocational,2024-03-06_12h18.45.243,CRL1h,2023.2.3,Win32,60.60606061,65e67470ae2fbf2172c317b2,65e85ea8575cfed617fa39f4,,,,,,,,,,,331.2652,0.7,331.9574,331.9574,332.9917,right,1,1.0328,,332.9921,333.9948,4,5,69,15,1,total,1,images/Ex8.jpg,right,training,hard,2,,,,,
,,,,,644940c6c6b71b43c2f0d552,001,56,Female,British,Vocational,2024-03-06_12h18.45.243,CRL1h,2023.2.3,Win32,60.60606061,65e67470ae2fbf2172c317b2,65e85ea8575cfed617fa39f4,,,,,,,,,,,333.9952,0.8,334.794,334.794,335.6791,right,1,0.8838,,335.6792,336.6769,4,6,70,7,1,total,1,images/Ex8.jpg,right,training,hard,2,,,,,
,,,,,644940c6c6b71b43c2f0d552,001,56,Female,British,Vocational,2024-03-06_12h18.45.243,CRL1h,2023.2.3,Win32,60.60606061,65e67470ae2fbf2172c317b2,65e85ea8575cfed617fa39f4,,,,,,,,,,,336.6774,0.8,337.4774,337.4774,338.7241,left,1,1.2452,,338.7243,339.727,4,7,71,2,1,total,1,images/Ex3.jpg,left,training,hard,2,,,,,
,,,,,644940c6c6b71b43c2f0d552,001,56,Female,British,Vocational,2024-03-06_12h18.45.243,CRL1h,2023.2.3,Win32,60.60606061,65e67470ae2fbf2172c317b2,65e85ea8575cfed617fa39f4,,,,,,,,,,,339.7277,1.2,340.9253,340.9254,341.8261,left,1,0.8984,,341.8261,342.8256,4,8,72,8,1,total,1,images/Ex1.jpg,left,training,hard,2,,,,,
,,,,,644940c6c6b71b43c2f0d552,001,56,Female,British,Vocational,2024-03-06_12h18.45.243,CRL1h,2023.2.3,Win32,60.60606061,65e67470ae2fbf2172c317b2,65e85ea8575cfed617fa39f4,,,,,,,,,,,342.826,0.6,343.4254,343.4255,344.4782,left,1,1.0508,,344.4783,345.475,4,9,73,1,1,total,1,images/Ex2.jpg,left,training,hard,2,,,,,
,,,,,644940c6c6b71b43c2f0d552,001,56,Female,British,Vocational,2024-03-06_12h18.45.243,CRL1h,2023.2.3,Win32,60.60606061,65e67470ae2fbf2172c317b2,65e85ea8575cfed617fa39f4,,,,,,,,,,,345.4755,0.8,346.2747,346.2747,347.7271,left,0,1.4506,,347.7273,348.7243,4,10,74,5,1,total,1,images/Ex6.jpg,right,training,hard,2,,,,,
,,,,,644940c6c6b71b43c2f0d552,001,56,Female,British,Vocational,2024-03-06_12h18.45.243,CRL1h,2023.2.3,Win32,60.60606061,65e67470ae2fbf2172c317b2,65e85ea8575cfed617fa39f4,,,,,,,,,,,348.7248,1.5,350.2245,350.2246,351.3412,left,1,1.1151,,351.3416,352.3397,4,11,75,10,1,total,1,images/Ex3.jpg,left,training,hard,2,,,,,
,,,,,644940c6c6b71b43c2f0d552,001,56,Female,British,Vocational,2024-03-06_12h18.45.243,CRL1h,2023.2.3,Win32,60.60606061,65e67470ae2fbf2172c317b2,65e85ea8575cfed617fa39f4,,,,,,,,,,,352.3407,0.6,352.9397,352.9398,354.041,right,0,1.098,,354.041,355.0398,4,12,76,3,1,total,1,images/Ex4.jpg,left,training,hard,2,,,,,
,,,,,644940c6c6b71b43c2f0d552,001,56,Female,British,Vocational,2024-03-06_12h18.45.243,CRL1h,2023.2.3,Win32,60.60606061,65e67470ae2fbf2172c317b2,65e85ea8575cfed617fa39f4,,,,,,,,,,,355.0404,1.3,356.339,356.339,358.1897,right,1,1.848,,358.1899,359.188,4,13,77,4,1,total,1,images/Ex5.jpg,right,training,hard,2,,,,,
,,,,,644940c6c6b71b43c2f0d552,001,56,Female,British,Vocational,2024-03-06_12h18.45.243,CRL1h,2023.2.3,Win32,60.60606061,65e67470ae2fbf2172c317b2,65e85ea8575cfed617fa39f4,,,,,,,,,,,359.1891,0.9,360.0883,360.0884,361.1225,left,1,1.0327,,361.1226,362.1213,4,14,78,11,1,total,1,images/Ex4.jpg,left,training,hard,2,,,,,
,,,,,644940c6c6b71b43c2f0d552,001,56,Female,British,Vocational,2024-03-06_12h18.45.243,CRL1h,2023.2.3,Win32,60.60606061,65e67470ae2fbf2172c317b2,65e85ea8575cfed617fa39f4,,,,,,,,,,,362.1223,0.8,362.9214,362.9214,363.7535,left,1,0.8309,,363.7536,364.7527,4,15,79,0,1,total,1,images/Ex1.jpg,left,training,hard,2,,,,,
,,,,,644940c6c6b71b43c2f0d552,001,56,Female,British,Vocational,2024-03-06_12h18.45.243,CRL1h,2023.2.3,Win32,60.60606061,65e67470ae2fbf2172c317b2,65e85ea8575cfed617fa39f4,,,,,,,,,,,364.7538,0.7,365.4538,365.4539,366.2845,left,1,0.8289,,366.2846,367.2861,5,0,80,1,1,total,1,images/Ex2.jpg,left,training,hard,2,,,,,
,,,,,644940c6c6b71b43c2f0d552,001,56,Female,British,Vocational,2024-03-06_12h18.45.243,CRL1h,2023.2.3,Win32,60.60606061,65e67470ae2fbf2172c317b2,65e85ea8575cfed617fa39f4,,,,,,,,,,,367.2866,1,368.2849,368.2849,369.3991,left,0,1.1124,,369.3991,370.4012,5,1,81,13,1,total,1,images/Ex6.jpg,right,training,hard,2,,,,,
,,,,,644940c6c6b71b43c2f0d552,001,56,Female,British,Vocational,2024-03-06_12h18.45.243,CRL1h,2023.2.3,Win32,60.60606061,65e67470ae2fbf2172c317b2,65e85ea8575cfed617fa39f4,,,,,,,,,,,370.4022,1.1,371.5015,371.5015,372.4191,left,1,0.9158,,372.4192,373.4176,5,2,82,0,1,total,1,images/Ex1.jpg,left,training,hard,2,,,,,
,,,,,644940c6c6b71b43c2f0d552,001,56,Female,British,Vocational,2024-03-06_12h18.45.243,CRL1h,2023.2.3,Win32,60.60606061,65e67470ae2fbf2172c317b2,65e85ea8575cfed617fa39f4,,,,,,,,,,,373.4188,1.2,374.6178,374.6178,376.0053,right,1,1.3856,,376.0053,377.0009,5,3,83,14,1,total,1,images/Ex7.jpg,right,training,hard,2,,,,,
,,,,,644940c6c6b71b43c2f0d552,001,56,Female,British,Vocational,2024-03-06_12h18.45.243,CRL1h,2023.2.3,Win32,60.60606061,65e67470ae2fbf2172c317b2,65e85ea8575cfed617fa39f4,,,,,,,,,,,377.0014,1.2,378.2004,378.2005,379.58,right,1,1.3781,,379.58,380.579,5,4,84,5,1,total,1,images/Ex6.jpg,right,training,hard,2,,,,,
,,,,,644940c6c6b71b43c2f0d552,001,56,Female,British,Vocational,2024-03-06_12h18.45.243,CRL1h,2023.2.3,Win32,60.60606061,65e67470ae2fbf2172c317b2,65e85ea8575cfed617fa39f4,,,,,,,,,,,380.5802,0.7,381.2827,381.2828,382.182,left,0,0.8977,,382.182,383.1818,5,5,85,6,1,total,1,images/Ex7.jpg,right,training,hard,2,,,,,
,,,,,644940c6c6b71b43c2f0d552,001,56,Female,British,Vocational,2024-03-06_12h18.45.243,CRL1h,2023.2.3,Win32,60.60606061,65e67470ae2fbf2172c317b2,65e85ea8575cfed617fa39f4,,,,,,,,,,,383.1829,1.1,384.2827,384.2827,385.2999,right,1,1.0142,,385.3,386.2985,5,6,86,15,1,total,1,images/Ex8.jpg,right,training,hard,2,,,,,
,,,,,644940c6c6b71b43c2f0d552,001,56,Female,British,Vocational,2024-03-06_12h18.45.243,CRL1h,2023.2.3,Win32,60.60606061,65e67470ae2fbf2172c317b2,65e85ea8575cfed617fa39f4,,,,,,,,,,,386.299,0.7,386.9983,386.9983,388.162,left,1,1.1622,,388.1621,389.1642,5,7,87,3,1,total,1,images/Ex4.jpg,left,training,hard,2,,,,,
,,,,,644940c6c6b71b43c2f0d552,001,56,Female,British,Vocational,2024-03-06_12h18.45.243,CRL1h,2023.2.3,Win32,60.60606061,65e67470ae2fbf2172c317b2,65e85ea8575cfed617fa39f4,,,,,,,,,,,389.1647,1.4,390.5645,390.5646,391.4977,left,1,0.9295,,391.4978,392.497,5,8,88,10,1,total,1,images/Ex3.jpg,left,training,hard,2,,,,,
,,,,,644940c6c6b71b43c2f0d552,001,56,Female,British,Vocational,2024-03-06_12h18.45.243,CRL1h,2023.2.3,Win32,60.60606061,65e67470ae2fbf2172c317b2,65e85ea8575cfed617fa39f4,,,,,,,,,,,392.4975,1.4,393.8966,393.8966,396.2306,right,1,2.3324,,396.2307,397.2292,5,9,89,4,1,total,1,images/Ex5.jpg,right,training,hard,2,,,,,
,,,,,644940c6c6b71b43c2f0d552,001,56,Female,British,Vocational,2024-03-06_12h18.45.243,CRL1h,2023.2.3,Win32,60.60606061,65e67470ae2fbf2172c317b2,65e85ea8575cfed617fa39f4,,,,,,,,,,,397.2417,0.9,398.1455,398.1456,399.1621,right,0,1.015,,399.1624,400.1615,5,10,90,9,1,total,1,images/Ex2.jpg,left,training,hard,2,,,,,
,,,,,644940c6c6b71b43c2f0d552,001,56,Female,British,Vocational,2024-03-06_12h18.45.243,CRL1h,2023.2.3,Win32,60.60606061,65e67470ae2fbf2172c317b2,65e85ea8575cfed617fa39f4,,,,,,,,,,,400.162,1.3,401.4621,401.4622,402.3478,left,1,0.8842,,402.3479,403.3458,5,11,91,8,1,total,1,images/Ex1.jpg,left,training,hard,2,,,,,
,,,,,644940c6c6b71b43c2f0d552,001,56,Female,British,Vocational,2024-03-06_12h18.45.243,CRL1h,2023.2.3,Win32,60.60606061,65e67470ae2fbf2172c317b2,65e85ea8575cfed617fa39f4,,,,,,,,,,,403.3468,1.2,404.5434,404.5434,405.7138,left,0,1.1685,,405.7139,406.7107,5,12,92,12,1,total,1,images/Ex5.jpg,right,training,hard,2,,,,,
,,,,,644940c6c6b71b43c2f0d552,001,56,Female,British,Vocational,2024-03-06_12h18.45.243,CRL1h,2023.2.3,Win32,60.60606061,65e67470ae2fbf2172c317b2,65e85ea8575cfed617fa39f4,,,,,,,,,,,406.7113,0.9,407.6109,407.6109,408.8764,right,1,1.2587,,408.8764,409.8762,5,13,93,7,1,total,1,images/Ex8.jpg,right,training,hard,2,,,,,
,,,,,644940c6c6b71b43c2f0d552,001,56,Female,British,Vocational,2024-03-06_12h18.45.243,CRL1h,2023.2.3,Win32,60.60606061,65e67470ae2fbf2172c317b2,65e85ea8575cfed617fa39f4,,,,,,,,,,,409.8766,1.4,411.2757,411.2758,412.173,left,1,0.8956,,412.173,413.1746,5,14,94,2,1,total,1,images/Ex3.jpg,left,training,hard,2,,,,,
,,,,,644940c6c6b71b43c2f0d552,001,56,Female,British,Vocational,2024-03-06_12h18.45.243,CRL1h,2023.2.3,Win32,60.60606061,65e67470ae2fbf2172c317b2,65e85ea8575cfed617fa39f4,,,,,,,,,,,413.1756,1.4,414.5752,414.5752,416.3917,right,0,1.8147,,416.3918,417.392,5,15,95,11,1,total,1,images/Ex4.jpg,left,training,hard,2,,,,,
,,,,,644940c6c6b71b43c2f0d552,001,56,Female,British,Vocational,2024-03-06_12h18.45.243,CRL1h,2023.2.3,Win32,60.60606061,65e67470ae2fbf2172c317b2,65e85ea8575cfed617fa39f4,,,,,,,,,,,417.3925,1.4,418.791,418.791,420.9407,right,1,2.1457,,420.9407,421.9401,6,0,96,5,1,total,1,images/Ex6.jpg,right,training,hard,2,,,,,
,,,,,644940c6c6b71b43c2f0d552,001,56,Female,British,Vocational,2024-03-06_12h18.45.243,CRL1h,2023.2.3,Win32,60.60606061,65e67470ae2fbf2172c317b2,65e85ea8575cfed617fa39f4,,,,,,,,,,,421.9406,1.4,423.3396,423.3396,424.2912,left,1,0.9496,,424.2913,425.2891,6,1,97,8,1,total,1,images/Ex1.jpg,left,training,hard,2,,,,,
,,,,,644940c6c6b71b43c2f0d552,001,56,Female,British,Vocational,2024-03-06_12h18.45.243,CRL1h,2023.2.3,Win32,60.60606061,65e67470ae2fbf2172c317b2,65e85ea8575cfed617fa39f4,,,,,,,,,,,425.2904,1.1,426.3897,426.3898,427.3402,left,1,0.9478,,427.3402,428.3383,6,2,98,2,1,total,1,images/Ex3.jpg,left,training,hard,2,,,,,
,,,,,644940c6c6b71b43c2f0d552,001,56,Female,British,Vocational,2024-03-06_12h18.45.243,CRL1h,2023.2.3,Win32,60.60606061,65e67470ae2fbf2172c317b2,65e85ea8575cfed617fa39f4,,,,,,,,,,,428.3388,1.2,429.5382,429.5382,430.6221,left,0,1.0825,,430.6221,431.6232,6,3,99,6,1,total,1,images/Ex7.jpg,right,training,hard,2,,,,,
,,,,,644940c6c6b71b43c2f0d552,001,56,Female,British,Vocational,2024-03-06_12h18.45.243,CRL1h,2023.2.3,Win32,60.60606061,65e67470ae2fbf2172c317b2,65e85ea8575cfed617fa39f4,,,,,,,,,,,431.624,0.8,432.4217,432.4218,435.5066,right,1,3.0835,,435.5067,436.5044,6,4,100,4,1,total,1,images/Ex5.jpg,right,training,hard,2,,,,,
,,,,,644940c6c6b71b43c2f0d552,001,56,Female,British,Vocational,2024-03-06_12h18.45.243,CRL1h,2023.2.3,Win32,60.60606061,65e67470ae2fbf2172c317b2,65e85ea8575cfed617fa39f4,,,,,,,,,,,436.5205,1.2,437.7198,437.7199,438.7374,right,1,1.0158,,438.7374,439.7376,6,5,101,12,1,total,1,images/Ex5.jpg,right,training,hard,2,,,,,
,,,,,644940c6c6b71b43c2f0d552,001,56,Female,British,Vocational,2024-03-06_12h18.45.243,CRL1h,2023.2.3,Win32,60.60606061,65e67470ae2fbf2172c317b2,65e85ea8575cfed617fa39f4,,,,,,,,,,,439.7385,1,440.7358,440.7358,442.0198,right,0,1.2817,,442.02,443.0175,6,6,102,3,1,total,1,images/Ex4.jpg,left,training,hard,2,,,,,
,,,,,644940c6c6b71b43c2f0d552,001,56,Female,British,Vocational,2024-03-06_12h18.45.243,CRL1h,2023.2.3,Win32,60.60606061,65e67470ae2fbf2172c317b2,65e85ea8575cfed617fa39f4,,,,,,,,,,,443.0185,0.7,443.7178,443.7178,444.949,left,1,1.2292,,444.949,445.9516,6,7,103,1,1,total,1,images/Ex2.jpg,left,training,hard,2,,,,,
,,,,,644940c6c6b71b43c2f0d552,001,56,Female,British,Vocational,2024-03-06_12h18.45.243,CRL1h,2023.2.3,Win32,60.60606061,65e67470ae2fbf2172c317b2,65e85ea8575cfed617fa39f4,,,,,,,,,,,445.952,1.4,447.3507,447.3507,448.2848,left,1,0.9322,,448.2848,449.2827,6,8,104,10,1,total,1,images/Ex3.jpg,left,training,hard,2,,,,,
,,,,,644940c6c6b71b43c2f0d552,001,56,Female,British,Vocational,2024-03-06_12h18.45.243,CRL1h,2023.2.3,Win32,60.60606061,65e67470ae2fbf2172c317b2,65e85ea8575cfed617fa39f4,,,,,,,,,,,449.2837,1,450.2836,450.2836,451.2675,left,1,0.9826,,451.2675,452.2654,6,9,105,0,1,total,1,images/Ex1.jpg,left,training,hard,2,,,,,
,,,,,644940c6c6b71b43c2f0d552,001,56,Female,British,Vocational,2024-03-06_12h18.45.243,CRL1h,2023.2.3,Win32,60.60606061,65e67470ae2fbf2172c317b2,65e85ea8575cfed617fa39f4,,,,,,,,,,,452.2664,0.5,452.7656,452.7656,454.683,left,1,1.9144,,454.683,455.6818,6,10,106,9,1,total,1,images/Ex2.jpg,left,training,hard,2,,,,,
,,,,,644940c6c6b71b43c2f0d552,001,56,Female,British,Vocational,2024-03-06_12h18.45.243,CRL1h,2023.2.3,Win32,60.60606061,65e67470ae2fbf2172c317b2,65e85ea8575cfed617fa39f4,,,,,,,,,,,455.6832,0.6,456.2819,456.2819,458.1655,left,1,1.882,,458.1655,459.1643,6,11,107,11,1,total,1,images/Ex4.jpg,left,training,hard,2,,,,,
,,,,,644940c6c6b71b43c2f0d552,001,56,Female,British,Vocational,2024-03-06_12h18.45.243,CRL1h,2023.2.3,Win32,60.60606061,65e67470ae2fbf2172c317b2,65e85ea8575cfed617fa39f4,,,,,,,,,,,459.1772,1.2,460.3811,460.3811,461.9985,left,0,1.6157,,461.9986,462.9961,6,12,108,7,1,total,1,images/Ex8.jpg,right,training,hard,2,,,,,
,,,,,644940c6c6b71b43c2f0d552,001,56,Female,British,Vocational,2024-03-06_12h18.45.243,CRL1h,2023.2.3,Win32,60.60606061,65e67470ae2fbf2172c317b2,65e85ea8575cfed617fa39f4,,,,,,,,,,,463.0097,1.2,464.1958,464.1959,466.024,left,0,1.8262,,466.024,467.0122,6,13,109,13,1,total,1,images/Ex6.jpg,right,training,hard,2,,,,,
,,,,,644940c6c6b71b43c2f0d552,001,56,Female,British,Vocational,2024-03-06_12h18.45.243,CRL1h,2023.2.3,Win32,60.60606061,65e67470ae2fbf2172c317b2,65e85ea8575cfed617fa39f4,,,,,,,,,,,467.025,1.4,468.4289,468.4289,469.6462,left,0,1.2092,,469.6462,470.6445,6,14,110,15,1,total,1,images/Ex8.jpg,right,training,hard,2,,,,,
,,,,,644940c6c6b71b43c2f0d552,001,56,Female,British,Vocational,2024-03-06_12h18.45.243,CRL1h,2023.2.3,Win32,60.60606061,65e67470ae2fbf2172c317b2,65e85ea8575cfed617fa39f4,,,,,,,,,,,470.6454,0.9,471.545,471.5451,472.802,left,0,1.2555,,472.8021,473.793,6,15,111,14,1,total,1,images/Ex7.jpg,right,training,hard,2,,,,,
,,,,,644940c6c6b71b43c2f0d552,001,56,Female,British,Vocational,2024-03-06_12h18.45.243,CRL1h,2023.2.3,Win32,60.60606061,65e67470ae2fbf2172c317b2,65e85ea8575cfed617fa39f4,,,,,,,,,,,473.794,0.8,474.6013,474.6013,475.5117,right,1,0.9084,,475.5118,476.5115,7,0,112,5,1,total,1,images/Ex6.jpg,right,training,hard,2,,,,,
,,,,,644940c6c6b71b43c2f0d552,001,56,Female,British,Vocational,2024-03-06_12h18.45.243,CRL1h,2023.2.3,Win32,60.60606061,65e67470ae2fbf2172c317b2,65e85ea8575cfed617fa39f4,,,,,,,,,,,476.512,1.3,477.8087,477.8088,478.7787,right,1,0.9686,,478.7788,479.776,7,1,113,13,1,total,1,images/Ex6.jpg,right,training,hard,2,,,,,
,,,,,644940c6c6b71b43c2f0d552,001,56,Female,British,Vocational,2024-03-06_12h18.45.243,CRL1h,2023.2.3,Win32,60.60606061,65e67470ae2fbf2172c317b2,65e85ea8575cfed617fa39f4,,,,,,,,,,,479.7765,1,480.7774,480.7775,481.9096,right,1,1.1299,,481.9096,482.9087,7,2,114,6,1,total,1,images/Ex7.jpg,right,training,hard,2,,,,,
,,,,,644940c6c6b71b43c2f0d552,001,56,Female,British,Vocational,2024-03-06_12h18.45.243,CRL1h,2023.2.3,Win32,60.60606061,65e67470ae2fbf2172c317b2,65e85ea8575cfed617fa39f4,,,,,,,,,,,482.9218,0.6,483.5255,483.5256,484.4151,left,1,0.8883,,484.4151,485.4074,7,3,115,10,1,total,1,images/Ex3.jpg,left,training,hard,2,,,,,
,,,,,644940c6c6b71b43c2f0d552,001,56,Female,British,Vocational,2024-03-06_12h18.45.243,CRL1h,2023.2.3,Win32,60.60606061,65e67470ae2fbf2172c317b2,65e85ea8575cfed617fa39f4,,,,,,,,,,,485.408,0.9,486.3078,486.3079,486.9105,right,1,0.6009,,486.9108,487.9075,7,4,116,4,1,total,1,images/Ex5.jpg,right,training,hard,2,,,,,
,,,,,644940c6c6b71b43c2f0d552,001,56,Female,British,Vocational,2024-03-06_12h18.45.243,CRL1h,2023.2.3,Win32,60.60606061,65e67470ae2fbf2172c317b2,65e85ea8575cfed617fa39f4,,,,,,,,,,,487.9079,1.2,489.1071,489.1072,490.0912,left,1,0.9801,,490.0912,491.0906,7,5,117,2,1,total,1,images/Ex3.jpg,left,training,hard,2,,,,,
,,,,,644940c6c6b71b43c2f0d552,001,56,Female,British,Vocational,2024-03-06_12h18.45.243,CRL1h,2023.2.3,Win32,60.60606061,65e67470ae2fbf2172c317b2,65e85ea8575cfed617fa39f4,,,,,,,,,,,491.0912,0.9,491.99,491.99,493.0215,right,1,1.0294,,493.0215,494.022,7,6,118,15,1,total,1,images/Ex8.jpg,right,training,hard,2,,,,,
,,,,,644940c6c6b71b43c2f0d552,001,56,Female,British,Vocational,2024-03-06_12h18.45.243,CRL1h,2023.2.3,Win32,60.60606061,65e67470ae2fbf2172c317b2,65e85ea8575cfed617fa39f4,,,,,,,,,,,494.023,0.8,494.8232,494.8232,496.6899,right,0,1.8639,,496.6899,497.6884,7,7,119,11,1,total,1,images/Ex4.jpg,left,training,hard,2,,,,,
,,,,,644940c6c6b71b43c2f0d552,001,56,Female,British,Vocational,2024-03-06_12h18.45.243,CRL1h,2023.2.3,Win32,60.60606061,65e67470ae2fbf2172c317b2,65e85ea8575cfed617fa39f4,,,,,,,,,,,497.7017,1.4,499.105,499.105,499.9883,left,1,0.8816,,499.9884,500.9876,7,8,120,0,1,total,1,images/Ex1.jpg,left,training,hard,2,,,,,
,,,,,644940c6c6b71b43c2f0d552,001,56,Female,British,Vocational,2024-03-06_12h18.45.243,CRL1h,2023.2.3,Win32,60.60606061,65e67470ae2fbf2172c317b2,65e85ea8575cfed617fa39f4,,,,,,,,,,,500.9881,0.8,501.7874,501.7874,503.055,right,1,1.2663,,503.0551,504.0547,7,9,121,7,1,total,1,images/Ex8.jpg,right,training,hard,2,,,,,
,,,,,644940c6c6b71b43c2f0d552,001,56,Female,British,Vocational,2024-03-06_12h18.45.243,CRL1h,2023.2.3,Win32,60.60606061,65e67470ae2fbf2172c317b2,65e85ea8575cfed617fa39f4,,,,,,,,,,,504.0556,1.2,505.2538,505.2539,506.0839,left,1,0.8286,,506.084,507.0866,7,10,122,8,1,total,1,images/Ex1.jpg,left,training,hard,2,,,,,
,,,,,644940c6c6b71b43c2f0d552,001,56,Female,British,Vocational,2024-03-06_12h18.45.243,CRL1h,2023.2.3,Win32,60.60606061,65e67470ae2fbf2172c317b2,65e85ea8575cfed617fa39f4,,,,,,,,,,,507.0871,1,508.0859,508.0859,509.6521,right,1,1.5646,,509.6524,510.6517,7,11,123,14,1,total,1,images/Ex7.jpg,right,training,hard,2,,,,,
,,,,,644940c6c6b71b43c2f0d552,001,56,Female,British,Vocational,2024-03-06_12h18.45.243,CRL1h,2023.2.3,Win32,60.60606061,65e67470ae2fbf2172c317b2,65e85ea8575cfed617fa39f4,,,,,,,,,,,510.6522,1.2,511.8516,511.8516,512.9513,left,1,1.0984,,512.9515,513.9513,7,12,124,1,1,total,1,images/Ex2.jpg,left,training,hard,2,,,,,
,,,,,644940c6c6b71b43c2f0d552,001,56,Female,British,Vocational,2024-03-06_12h18.45.243,CRL1h,2023.2.3,Win32,60.60606061,65e67470ae2fbf2172c317b2,65e85ea8575cfed617fa39f4,,,,,,,,,,,513.9518,1,514.9522,514.9522,517.2689,left,1,2.3152,,517.2695,518.2668,7,13,125,3,1,total,1,images/Ex4.jpg,left,training,hard,2,,,,,
,,,,,644940c6c6b71b43c2f0d552,001,56,Female,British,Vocational,2024-03-06_12h18.45.243,CRL1h,2023.2.3,Win32,60.60606061,65e67470ae2fbf2172c317b2,65e85ea8575cfed617fa39f4,,,,,,,,,,,518.2798,0.5,518.7833,518.7833,519.9507,left,1,1.1644,,519.9508,520.9495,7,14,126,9,1,total,1,images/Ex2.jpg,left,training,hard,2,,,,,
,,,,,644940c6c6b71b43c2f0d552,001,56,Female,British,Vocational,2024-03-06_12h18.45.243,CRL1h,2023.2.3,Win32,60.60606061,65e67470ae2fbf2172c317b2,65e85ea8575cfed617fa39f4,,,,,,,,,,,520.9502,0.9,521.8493,521.8493,522.8341,right,1,0.9825,,522.8342,523.8316,7,15,127,12,1,total,1,images/Ex5.jpg,right,training,hard,2,,,,,
,,,,,644940c6c6b71b43c2f0d552,001,56,Female,British,Vocational,2024-03-06_12h18.45.243,CRL1h,2023.2.3,Win32,60.60606061,65e67470ae2fbf2172c317b2,65e85ea8575cfed617fa39f4,,,,,,,,,,,523.8407,1.3,525.1308,525.1309,526.3665,left,1,1.2329,,526.3667,527.3647,0,0,0,15,1,total,2,images/Ex8.jpg,left,reversed,hard,2,,,,,
,,,,,644940c6c6b71b43c2f0d552,001,56,Female,British,Vocational,2024-03-06_12h18.45.243,CRL1h,2023.2.3,Win32,60.60606061,65e67470ae2fbf2172c317b2,65e85ea8575cfed617fa39f4,,,,,,,,,,,527.3775,0.9,528.2807,528.2808,529.2017,right,0,0.9191,,529.2017,530.1966,0,1,1,4,1,total,2,images/Ex5.jpg,left,reversed,hard,2,,,,,
,,,,,644940c6c6b71b43c2f0d552,001,56,Female,British,Vocational,2024-03-06_12h18.45.243,CRL1h,2023.2.3,Win32,60.60606061,65e67470ae2fbf2172c317b2,65e85ea8575cfed617fa39f4,,,,,,,,,,,530.1976,1.2,531.3965,531.3965,532.9936,left,0,1.595,,532.9937,533.9965,0,2,2,0,1,total,2,images/Ex1.jpg,right,reversed,hard,2,,,,,
,,,,,644940c6c6b71b43c2f0d552,001,56,Female,British,Vocational,2024-03-06_12h18.45.243,CRL1h,2023.2.3,Win32,60.60606061,65e67470ae2fbf2172c317b2,65e85ea8575cfed617fa39f4,,,,,,,,,,,533.9975,1.3,535.2962,535.2962,536.6763,right,0,1.3786,,536.6763,537.6781,0,3,3,5,1,total,2,images/Ex6.jpg,left,reversed,hard,2,,,,,
,,,,,644940c6c6b71b43c2f0d552,001,56,Female,British,Vocational,2024-03-06_12h18.45.243,CRL1h,2023.2.3,Win32,60.60606061,65e67470ae2fbf2172c317b2,65e85ea8575cfed617fa39f4,,,,,,,,,,,537.6791,1.5,539.1776,539.1777,540.5447,left,0,1.3631,,540.5447,541.5445,0,4,4,2,1,total,2,images/Ex3.jpg,right,reversed,hard,2,,,,,
,,,,,644940c6c6b71b43c2f0d552,001,56,Female,British,Vocational,2024-03-06_12h18.45.243,CRL1h,2023.2.3,Win32,60.60606061,65e67470ae2fbf2172c317b2,65e85ea8575cfed617fa39f4,,,,,,,,,,,541.5571,0.8,542.3623,542.3624,543.4746,left,0,1.1108,,543.4747,544.4761,0,5,5,8,1,total,2,images/Ex1.jpg,right,reversed,hard,2,,,,,
,,,,,644940c6c6b71b43c2f0d552,001,56,Female,British,Vocational,2024-03-06_12h18.45.243,CRL1h,2023.2.3,Win32,60.60606061,65e67470ae2fbf2172c317b2,65e85ea8575cfed617fa39f4,,,,,,,,,,,544.4771,1.2,545.6774,545.6775,546.7772,left,0,1.097,,546.7772,547.7768,0,6,6,11,1,total,2,images/Ex4.jpg,right,reversed,hard,2,,,,,
,,,,,644940c6c6b71b43c2f0d552,001,56,Female,British,Vocational,2024-03-06_12h18.45.243,CRL1h,2023.2.3,Win32,60.60606061,65e67470ae2fbf2172c317b2,65e85ea8575cfed617fa39f4,,,,,,,,,,,547.7773,1.5,549.2761,549.2761,550.6587,right,1,1.3808,,550.6588,551.6581,0,7,7,10,1,total,2,images/Ex3.jpg,right,reversed,hard,2,,,,,
,,,,,644940c6c6b71b43c2f0d552,001,56,Female,British,Vocational,2024-03-06_12h18.45.243,CRL1h,2023.2.3,Win32,60.60606061,65e67470ae2fbf2172c317b2,65e85ea8575cfed617fa39f4,,,,,,,,,,,551.6715,0.5,552.1747,552.1748,553.0574,right,1,0.8801,,553.0575,554.0619,0,8,8,1,1,total,2,images/Ex2.jpg,right,reversed,hard,2,,,,,
,,,,,644940c6c6b71b43c2f0d552,001,56,Female,British,Vocational,2024-03-06_12h18.45.243,CRL1h,2023.2.3,Win32,60.60606061,65e67470ae2fbf2172c317b2,65e85ea8575cfed617fa39f4,,,,,,,,,,,554.0628,1.1,555.158,555.158,556.7082,right,1,1.5475,,556.7082,557.7072,0,9,9,3,1,total,2,images/Ex4.jpg,right,reversed,hard,2,,,,,
,,,,,644940c6c6b71b43c2f0d552,001,56,Female,British,Vocational,2024-03-06_12h18.45.243,CRL1h,2023.2.3,Win32,60.60606061,65e67470ae2fbf2172c317b2,65e85ea8575cfed617fa39f4,,,,,,,,,,,557.7205,0.8,558.5242,558.5242,559.5086,right,0,0.9824,,559.5087,560.5066,0,10,10,7,1,total,2,images/Ex8.jpg,left,reversed,hard,2,,,,,
,,,,,644940c6c6b71b43c2f0d552,001,56,Female,British,Vocational,2024-03-06_12h18.45.243,CRL1h,2023.2.3,Win32,60.60606061,65e67470ae2fbf2172c317b2,65e85ea8575cfed617fa39f4,,,,,,,,,,,560.5071,1.2,561.7063,561.7063,563.0904,right,1,1.3809,,563.0905,564.0898,0,11,11,9,1,total,2,images/Ex2.jpg,right,reversed,hard,2,,,,,
,,,,,644940c6c6b71b43c2f0d552,001,56,Female,British,Vocational,2024-03-06_12h18.45.243,CRL1h,2023.2.3,Win32,60.60606061,65e67470ae2fbf2172c317b2,65e85ea8575cfed617fa39f4,,,,,,,,,,,564.0905,1.5,565.5888,565.5889,566.6062,right,0,1.0154,,566.6062,567.6048,0,12,12,13,1,total,2,images/Ex6.jpg,left,reversed,hard,2,,,,,
,,,,,644940c6c6b71b43c2f0d552,001,56,Female,British,Vocational,2024-03-06_12h18.45.243,CRL1h,2023.2.3,Win32,60.60606061,65e67470ae2fbf2172c317b2,65e85ea8575cfed617fa39f4,,,,,,,,,,,567.6059,0.7,568.3062,568.3063,570.6949,right,0,2.3868,,570.695,571.6875,0,13,13,6,1,total,2,images/Ex7.jpg,left,reversed,hard,2,,,,,
,,,,,644940c6c6b71b43c2f0d552,001,56,Female,British,Vocational,2024-03-06_12h18.45.243,CRL1h,2023.2.3,Win32,60.60606061,65e67470ae2fbf2172c317b2,65e85ea8575cfed617fa39f4,,,,,,,,,,,571.7,0.8,572.5037,572.5038,573.6564,right,0,1.1511,,573.6564,574.6532,0,14,14,12,1,total,2,images/Ex5.jpg,left,reversed,hard,2,,,,,
,,,,,644940c6c6b71b43c2f0d552,001,56,Female,British,Vocational,2024-03-06_12h18.45.243,CRL1h,2023.2.3,Win32,60.60606061,65e67470ae2fbf2172c317b2,65e85ea8575cfed617fa39f4,,,,,,,,,,,574.6536,1.2,575.8533,575.8533,577.5696,left,1,1.7142,,577.5697,578.5683,0,15,15,14,1,total,2,images/Ex7.jpg,left,reversed,hard,2,,,,,
,,,,,644940c6c6b71b43c2f0d552,001,56,Female,British,Vocational,2024-03-06_12h18.45.243,CRL1h,2023.2.3,Win32,60.60606061,65e67470ae2fbf2172c317b2,65e85ea8575cfed617fa39f4,,,,,,,,,,,578.5694,0.6,579.1681,579.1681,580.5703,left,0,1.3997,,580.5704,581.568,1,0,16,8,1,total,2,images/Ex1.jpg,right,reversed,hard,2,,,,,
,,,,,644940c6c6b71b43c2f0d552,001,56,Female,British,Vocational,2024-03-06_12h18.45.243,CRL1h,2023.2.3,Win32,60.60606061,65e67470ae2fbf2172c317b2,65e85ea8575cfed617fa39f4,,,,,,,,,,,581.5684,0.5,582.0678,582.0679,583.5013,left,0,1.4317,,583.5014,584.501,1,1,17,10,1,total,2,images/Ex3.jpg,right,reversed,hard,2,,,,,
,,,,,644940c6c6b71b43c2f0d552,001,56,Female,British,Vocational,2024-03-06_12h18.45.243,CRL1h,2023.2.3,Win32,60.60606061,65e67470ae2fbf2172c317b2,65e85ea8575cfed617fa39f4,,,,,,,,,,,584.502,0.9,585.4003,585.4003,586.3174,left,1,0.915,,586.3175,587.3166,1,2,18,6,1,total,2,images/Ex7.jpg,left,reversed,hard,2,,,,,
,,,,,644940c6c6b71b43c2f0d552,001,56,Female,British,Vocational,2024-03-06_12h18.45.243,CRL1h,2023.2.3,Win32,60.60606061,65e67470ae2fbf2172c317b2,65e85ea8575cfed617fa39f4,,,,,,,,,,,587.3174,1,588.3157,588.3158,589.2505,left,1,0.9329,,589.2506,590.2486,1,3,19,7,1,total,2,images/Ex8.jpg,left,reversed,hard,2,,,,,
,,,,,644940c6c6b71b43c2f0d552,001,56,Female,British,Vocational,2024-03-06_12h18.45.243,CRL1h,2023.2.3,Win32,60.60606061,65e67470ae2fbf2172c317b2,65e85ea8575cfed617fa39f4,,,,,,,,,,,590.2501,0.5,590.7489,590.749,592.0159,right,0,1.2645,,592.0159,593.0155,1,4,20,13,1,total,2,images/Ex6.jpg,left,reversed,hard,2,,,,,
,,,,,644940c6c6b71b43c2f0d552,001,56,Female,British,Vocational,2024-03-06_12h18.45.243,CRL1h,2023.2.3,Win32,60.60606061,65e67470ae2fbf2172c317b2,65e85ea8575cfed617fa39f4,,,,,,,,,,,593.0161,0.6,593.6154,593.6154,594.7989,right,1,1.1801,,594.7989,595.7983,1,5,21,1,1,total,2,images/Ex2.jpg,right,reversed,hard,2,,,,,
,,,,,644940c6c6b71b43c2f0d552,001,56,Female,British,Vocational,2024-03-06_12h18.45.243,CRL1h,2023.2.3,Win32,60.60606061,65e67470ae2fbf2172c317b2,65e85ea8575cfed617fa39f4,,,,,,,,,,,595.8105,0.8,596.6152,596.6153,597.7483,left,0,1.1314,,597.7484,598.7468,1,6,22,11,1,total,2,images/Ex4.jpg,right,reversed,hard,2,,,,,
,,,,,644940c6c6b71b43c2f0d552,001,56,Female,British,Vocational,2024-03-06_12h18.45.243,CRL1h,2023.2.3,Win32,60.60606061,65e67470ae2fbf2172c317b2,65e85ea8575cfed617fa39f4,,,,,,,,,,,598.7479,1.1,599.8471,599.8471,600.9476,right,0,1.0969,,600.9476,601.9473,1,7,23,5,1,total,2,images/Ex6.jpg,left,reversed,hard,2,,,,,
,,,,,644940c6c6b71b43c2f0d552,001,56,Female,British,Vocational,2024-03-06_12h18.45.243,CRL1h,2023.2.3,Win32,60.60606061,65e67470ae2fbf2172c317b2,65e85ea8575cfed617fa39f4,,,,,,,,,,,601.9478,1.2,603.1463,603.1466,603.8969,right,0,0.7487,,603.8969,604.8953,1,8,24,12,1,total,2,images/Ex5.jpg,left,reversed,hard,2,,,,,
,,,,,644940c6c6b71b43c2f0d552,001,56,Female,British,Vocational,2024-03-06_12h18.45.243,CRL1h,2023.2.3,Win32,60.60606061,65e67470ae2fbf2172c317b2,65e85ea8575cfed617fa39f4,,,,,,,,,,,604.8964,1.4,606.2789,606.279,607.2966,left,0,1.0154,,607.2966,608.2952,1,9,25,0,1,total,2,images/Ex1.jpg,right,reversed,hard,2,,,,,
,,,,,644940c6c6b71b43c2f0d552,001,56,Female,British,Vocational,2024-03-06_12h18.45.243,CRL1h,2023.2.3,Win32,60.60606061,65e67470ae2fbf2172c317b2,65e85ea8575cfed617fa39f4,,,,,,,,,,,608.2957,0.9,609.1954,609.1954,610.1785,left,1,0.9799,,610.1786,611.1777,1,10,26,15,1,total,2,images/Ex8.jpg,left,reversed,hard,2,,,,,
,,,,,644940c6c6b71b43c2f0d552,001,56,Female,British,Vocational,2024-03-06_12h18.45.243,CRL1h,2023.2.3,Win32,60.60606061,65e67470ae2fbf2172c317b2,65e85ea8575cfed617fa39f4,,,,,,,,,,,611.1783,1,612.1781,612.1782,613.1131,left,0,0.9333,,613.1132,614.1107,1,11,27,3,1,total,2,images/Ex4.jpg,right,reversed,hard,2,,,,,
,,,,,644940c6c6b71b43c2f0d552,001,56,Female,British,Vocational,2024-03-06_12h18.45.243,CRL1h,2023.2.3,Win32,60.60606061,65e67470ae2fbf2172c317b2,65e85ea8575cfed617fa39f4,,,,,,,,,,,614.1113,1.2,615.3104,615.3105,617.3262,right,0,2.014,,617.3263,618.3259,1,12,28,14,1,total,2,images/Ex7.jpg,left,reversed,hard,2,,,,,
,,,,,644940c6c6b71b43c2f0d552,001,56,Female,British,Vocational,2024-03-06_12h18.45.243,CRL1h,2023.2.3,Win32,60.60606061,65e67470ae2fbf2172c317b2,65e85ea8575cfed617fa39f4,,,,,,,,,,,618.338,1.2,619.542,619.542,620.7104,right,1,1.1662,,620.7105,621.7082,1,13,29,2,1,total,2,images/Ex3.jpg,right,reversed,hard,2,,,,,
,,,,,644940c6c6b71b43c2f0d552,001,56,Female,British,Vocational,2024-03-06_12h18.45.243,CRL1h,2023.2.3,Win32,60.60606061,65e67470ae2fbf2172c317b2,65e85ea8575cfed617fa39f4,,,,,,,,,,,621.7096,0.6,622.3078,622.3078,623.3598,right,1,1.0496,,623.3599,624.3588,1,14,30,9,1,total,2,images/Ex2.jpg,right,reversed,hard,2,,,,,
,,,,,644940c6c6b71b43c2f0d552,001,56,Female,British,Vocational,2024-03-06_12h18.45.243,CRL1h,2023.2.3,Win32,60.60606061,65e67470ae2fbf2172c317b2,65e85ea8575cfed617fa39f4,,,,,,,,,,,624.3594,1.1,625.4578,625.4579,627.0878,left,1,1.6286,,627.0879,628.0846,1,15,31,4,1,total,2,images/Ex5.jpg,left,reversed,hard,2,,,,,
,,,,,644940c6c6b71b43c2f0d552,001,56,Female,British,Vocational,2024-03-06_12h18.45.243,CRL1h,2023.2.3,Win32,60.60606061,65e67470ae2fbf2172c317b2,65e85ea8575cfed617fa39f4,,,,,,,,,,,628.0974,0.5,628.59,628.59,629.7233,left,1,1.131,,629.7234,630.725,2,0,32,13,1,total,2,images/Ex6.jpg,left,reversed,hard,2,,,,,
,,,,,644940c6c6b71b43c2f0d552,001,56,Female,British,Vocational,2024-03-06_12h18.45.243,CRL1h,2023.2.3,Win32,60.60606061,65e67470ae2fbf2172c317b2,65e85ea8575cfed617fa39f4,,,,,,,,,,,630.726,0.6,631.3222,631.3222,632.4246,left,0,1.1004,,632.4247,633.4224,2,1,33,0,1,total,2,images/Ex1.jpg,right,reversed,hard,2,,,,,
,,,,,644940c6c6b71b43c2f0d552,001,56,Female,British,Vocational,2024-03-06_12h18.45.243,CRL1h,2023.2.3,Win32,60.60606061,65e67470ae2fbf2172c317b2,65e85ea8575cfed617fa39f4,,,,,,,,,,,633.4229,1.5,634.9222,634.9222,635.9068,left,1,0.9831,,635.9068,636.9052,2,2,34,15,1,total,2,images/Ex8.jpg,left,reversed,hard,2,,,,,
,,,,,644940c6c6b71b43c2f0d552,001,56,Female,British,Vocational,2024-03-06_12h18.45.243,CRL1h,2023.2.3,Win32,60.60606061,65e67470ae2fbf2172c317b2,65e85ea8575cfed617fa39f4,,,,,,,,,,,636.9062,0.8,637.7048,637.7048,638.4717,left,1,0.7637,,638.4718,639.4713,2,3,35,7,1,total,2,images/Ex8.jpg,left,reversed,hard,2,,,,,
,,,,,644940c6c6b71b43c2f0d552,001,56,Female,British,Vocational,2024-03-06_12h18.45.243,CRL1h,2023.2.3,Win32,60.60606061,65e67470ae2fbf2172c317b2,65e85ea8575cfed617fa39f4,,,,,,,,,,,639.4718,1.3,640.7725,640.7725,642.403,right,0,1.6278,,642.4031,643.4041,2,4,36,6,1,total,2,images/Ex7.jpg,left,reversed,hard,2,,,,,
,,,,,644940c6c6b71b43c2f0d552,001,56,Female,British,Vocational,2024-03-06_12h18.45.243,CRL1h,2023.2.3,Win32,60.60606061,65e67470ae2fbf2172c317b2,65e85ea8575cfed617fa39f4,,,,,,,,,,,643.4045,1.2,644.6032,644.6032,646.0546,left,1,1.4498,,646.0547,647.0525,2,5,37,5,1,total,2,images/Ex6.jpg,left,reversed,hard,2,,,,,
,,,,,644940c6c6b71b43c2f0d552,001,56,Female,British,Vocational,2024-03-06_12h18.45.243,CRL1h,2023.2.3,Win32,60.60606061,65e67470ae2fbf2172c317b2,65e85ea8575cfed617fa39f4,,,,,,,,,,,647.053,0.9,647.9528,647.9528,649.0891,left,0,1.1347,,649.0892,650.0853,2,6,38,1,1,total,2,images/Ex2.jpg,right,reversed,hard,2,,,,,
,,,,,644940c6c6b71b43c2f0d552,001,56,Female,British,Vocational,2024-03-06_12h18.45.243,CRL1h,2023.2.3,Win32,60.60606061,65e67470ae2fbf2172c317b2,65e85ea8575cfed617fa39f4,,,,,,,,,,,650.0985,0.5,650.6016,650.6017,651.5865,left,0,0.9835,,651.5866,652.5845,2,7,39,8,1,total,2,images/Ex1.jpg,right,reversed,hard,2,,,,,
,,,,,644940c6c6b71b43c2f0d552,001,56,Female,British,Vocational,2024-03-06_12h18.45.243,CRL1h,2023.2.3,Win32,60.60606061,65e67470ae2fbf2172c317b2,65e85ea8575cfed617fa39f4,,,,,,,,,,,652.585,0.6,653.1845,653.1846,654.9847,left,0,1.7973,,654.9848,655.9837,2,8,40,9,1,total,2,images/Ex2.jpg,right,reversed,hard,2,,,,,
,,,,,644940c6c6b71b43c2f0d552,001,56,Female,British,Vocational,2024-03-06_12h18.45.243,CRL1h,2023.2.3,Win32,60.60606061,65e67470ae2fbf2172c317b2,65e85ea8575cfed617fa39f4,,,,,,,,,,,655.9842,0.6,656.5836,656.5837,657.5165,left,1,0.9313,,657.5166,658.5155,2,9,41,12,1,total,2,images/Ex5.jpg,left,reversed,hard,2,,,,,
,,,,,644940c6c6b71b43c2f0d552,001,56,Female,British,Vocational,2024-03-06_12h18.45.243,CRL1h,2023.2.3,Win32,60.60606061,65e67470ae2fbf2172c317b2,65e85ea8575cfed617fa39f4,,,,,,,,,,,658.5165,1.5,660.0158,660.0158,661.2677,right,1,1.25,,661.2681,662.2664,2,10,42,2,1,total,2,images/Ex3.jpg,right,reversed,hard,2,,,,,
,,,,,644940c6c6b71b43c2f0d552,001,56,Female,British,Vocational,2024-03-06_12h18.45.243,CRL1h,2023.2.3,Win32,60.60606061,65e67470ae2fbf2172c317b2,65e85ea8575cfed617fa39f4,,,,,,,,,,,662.2788,0.7,662.9818,662.9819,663.9335,right,1,0.9494,,663.9335,664.9319,2,11,43,3,1,total,2,images/Ex4.jpg,right,reversed,hard,2,,,,,
,,,,,644940c6c6b71b43c2f0d552,001,56,Female,British,Vocational,2024-03-06_12h18.45.243,CRL1h,2023.2.3,Win32,60.60606061,65e67470ae2fbf2172c317b2,65e85ea8575cfed617fa39f4,,,,,,,,,,,664.9324,1.4,666.3322,666.3322,666.9997,right,1,0.6653,,666.9998,667.998,2,12,44,11,1,total,2,images/Ex4.jpg,right,reversed,hard,2,,,,,
,,,,,644940c6c6b71b43c2f0d552,001,56,Female,British,Vocational,2024-03-06_12h18.45.243,CRL1h,2023.2.3,Win32,60.60606061,65e67470ae2fbf2172c317b2,65e85ea8575cfed617fa39f4,,,,,,,,,,,667.9985,0.7,668.6973,668.6973,669.9646,right,0,1.2659,,669.9647,670.9629,2,13,45,4,1,total,2,images/Ex5.jpg,left,reversed,hard,2,,,,,
,,,,,644940c6c6b71b43c2f0d552,001,56,Female,British,Vocational,2024-03-06_12h18.45.243,CRL1h,2023.2.3,Win32,60.60606061,65e67470ae2fbf2172c317b2,65e85ea8575cfed617fa39f4,,,,,,,,,,,670.9638,1,671.9591,671.9591,672.9135,right,1,0.9521,,672.9136,673.912,2,14,46,10,1,total,2,images/Ex3.jpg,right,reversed,hard,2,,,,,
,,,,,644940c6c6b71b43c2f0d552,001,56,Female,British,Vocational,2024-03-06_12h18.45.243,CRL1h,2023.2.3,Win32,60.60606061,65e67470ae2fbf2172c317b2,65e85ea8575cfed617fa39f4,,,,,,,,,,,673.913,0.8,674.7094,674.7095,675.8964,left,1,1.1834,,675.8965,676.8954,2,15,47,14,1,total,2,images/Ex7.jpg,left,reversed,hard,2,,,,,
,,,,,644940c6c6b71b43c2f0d552,001,56,Female,British,Vocational,2024-03-06_12h18.45.243,CRL1h,2023.2.3,Win32,60.60606061,65e67470ae2fbf2172c317b2,65e85ea8575cfed617fa39f4,,,,,,,,,,,676.8959,1.4,678.2955,678.2956,679.5915,right,1,1.2942,,679.5915,680.5935,3,0,48,3,1,total,2,images/Ex4.jpg,right,reversed,hard,2,,,,,
,,,,,644940c6c6b71b43c2f0d552,001,56,Female,British,Vocational,2024-03-06_12h18.45.243,CRL1h,2023.2.3,Win32,60.60606061,65e67470ae2fbf2172c317b2,65e85ea8575cfed617fa39f4,,,,,,,,,,,680.5944,1.1,681.6947,681.6947,682.4114,right,1,0.715,,682.4115,683.41,3,1,49,11,1,total,2,images/Ex4.jpg,right,reversed,hard,2,,,,,
,,,,,644940c6c6b71b43c2f0d552,001,56,Female,British,Vocational,2024-03-06_12h18.45.243,CRL1h,2023.2.3,Win32,60.60606061,65e67470ae2fbf2172c317b2,65e85ea8575cfed617fa39f4,,,,,,,,,,,683.411,0.8,684.2108,684.2108,685.1944,right,0,0.9821,,685.1944,686.1834,3,2,50,5,1,total,2,images/Ex6.jpg,left,reversed,hard,2,,,,,
,,,,,644940c6c6b71b43c2f0d552,001,56,Female,British,Vocational,2024-03-06_12h18.45.243,CRL1h,2023.2.3,Win32,60.60606061,65e67470ae2fbf2172c317b2,65e85ea8575cfed617fa39f4,,,,,,,,,,,686.1844,0.6,686.7757,686.7758,687.7092,left,1,0.9316,,687.7092,688.7082,3,3,51,7,1,total,2,images/Ex8.jpg,left,reversed,hard,2,,,,,
,,,,,644940c6c6b71b43c2f0d552,001,56,Female,British,Vocational,2024-03-06_12h18.45.243,CRL1h,2023.2.3,Win32,60.60606061,65e67470ae2fbf2172c317b2,65e85ea8575cfed617fa39f4,,,,,,,,,,,688.7091,1.2,689.9083,689.9083,692.7932,right,1,2.8822,,692.7933,693.7917,3,4,52,8,1,total,2,images/Ex1.jpg,right,reversed,hard,2,,,,,
,,,,,644940c6c6b71b43c2f0d552,001,56,Female,British,Vocational,2024-03-06_12h18.45.243,CRL1h,2023.2.3,Win32,60.60606061,65e67470ae2fbf2172c317b2,65e85ea8575cfed617fa39f4,,,,,,,,,,,693.8043,1,694.8071,694.8073,695.6438,right,1,0.8347,,695.6439,696.6411,3,5,53,2,1,total,2,images/Ex3.jpg,right,reversed,hard,2,,,,,
,,,,,644940c6c6b71b43c2f0d552,001,56,Female,British,Vocational,2024-03-06_12h18.45.243,CRL1h,2023.2.3,Win32,60.60606061,65e67470ae2fbf2172c317b2,65e85ea8575cfed617fa39f4,,,,,,,,,,,696.6415,0.8,697.4406,697.4407,698.4592,right,1,1.0169,,698.4592,699.4567,3,6,54,0,1,total,2,images/Ex1.jpg,right,reversed,hard,2,,,,,
,,,,,644940c6c6b71b43c2f0d552,001,56,Female,British,Vocational,2024-03-06_12h18.45.243,CRL1h,2023.2.3,Win32,60.60606061,65e67470ae2fbf2172c317b2,65e85ea8575cfed617fa39f4,,,,,,,,,,,699.4572,0.5,699.9565,699.9566,700.9739,left,1,1.0153,,700.9739,701.9725,3,7,55,13,1,total,2,images/Ex6.jpg,left,reversed,hard,2,,,,,
,,,,,644940c6c6b71b43c2f0d552,001,56,Female,British,Vocational,2024-03-06_12h18.45.243,CRL1h,2023.2.3,Win32,60.60606061,65e67470ae2fbf2172c317b2,65e85ea8575cfed617fa39f4,,,,,,,,,,,701.9729,0.7,702.6728,702.6729,703.5388,left,1,0.8619,,703.5389,704.538,3,8,56,14,1,total,2,images/Ex7.jpg,left,reversed,hard,2,,,,,
,,,,,644940c6c6b71b43c2f0d552,001,56,Female,British,Vocational,2024-03-06_12h18.45.243,CRL1h,2023.2.3,Win32,60.60606061,65e67470ae2fbf2172c317b2,65e85ea8575cfed617fa39f4,,,,,,,,,,,704.5394,0.6,705.1393,705.1393,705.8855,left,0,0.7448,,705.8856,706.8876,3,9,57,9,1,total,2,images/Ex2.jpg,right,reversed,hard,2,,,,,
,,,,,644940c6c6b71b43c2f0d552,001,56,Female,British,Vocational,2024-03-06_12h18.45.243,CRL1h,2023.2.3,Win32,60.60606061,65e67470ae2fbf2172c317b2,65e85ea8575cfed617fa39f4,,,,,,,,,,,706.8886,1.2,708.0883,708.0884,708.8728,left,1,0.7822,,708.8731,709.8708,3,10,58,15,1,total,2,images/Ex8.jpg,left,reversed,hard,2,,,,,
,,,,,644940c6c6b71b43c2f0d552,001,56,Female,British,Vocational,2024-03-06_12h18.45.243,CRL1h,2023.2.3,Win32,60.60606061,65e67470ae2fbf2172c317b2,65e85ea8575cfed617fa39f4,,,,,,,,,,,709.8715,1.3,711.1704,711.1706,713.2199,right,0,2.0473,,713.2199,714.2191,3,11,59,6,1,total,2,images/Ex7.jpg,left,reversed,hard,2,,,,,
,,,,,644940c6c6b71b43c2f0d552,001,56,Female,British,Vocational,2024-03-06_12h18.45.243,CRL1h,2023.2.3,Win32,60.60606061,65e67470ae2fbf2172c317b2,65e85ea8575cfed617fa39f4,,,,,,,,,,,714.2201,1,715.2162,715.2163,716.206,right,0,0.9884,,716.2061,717.2014,3,12,60,12,1,total,2,images/Ex5.jpg,left,reversed,hard,2,,,,,
,,,,,644940c6c6b71b43c2f0d552,001,56,Female,British,Vocational,2024-03-06_12h18.45.243,CRL1h,2023.2.3,Win32,60.60606061,65e67470ae2fbf2172c317b2,65e85ea8575cfed617fa39f4,,,,,,,,,,,717.2024,0.6,717.8011,717.8012,718.8391,right,1,1.0355,,718.8391,719.8345,3,13,61,1,1,total,2,images/Ex2.jpg,right,reversed,hard,2,,,,,
,,,,,644940c6c6b71b43c2f0d552,001,56,Female,British,Vocational,2024-03-06_12h18.45.243,CRL1h,2023.2.3,Win32,60.60606061,65e67470ae2fbf2172c317b2,65e85ea8575cfed617fa39f4,,,,,,,,,,,719.8356,1.4,721.234,721.234,722.036,left,1,0.7995,,722.036,723.0345,3,14,62,4,1,total,2,images/Ex5.jpg,left,reversed,hard,2,,,,,
,,,,,644940c6c6b71b43c2f0d552,001,56,Female,British,Vocational,2024-03-06_12h18.45.243,CRL1h,2023.2.3,Win32,60.60606061,65e67470ae2fbf2172c317b2,65e85ea8575cfed617fa39f4,,,,,,,,,,,723.0349,0.9,723.9345,723.9346,724.9852,right,1,1.0488,,724.9852,725.9836,3,15,63,10,1,total,2,images/Ex3.jpg,right,reversed,hard,2,,,,,
,,,,,644940c6c6b71b43c2f0d552,001,56,Female,British,Vocational,2024-03-06_12h18.45.243,CRL1h,2023.2.3,Win32,60.60606061,65e67470ae2fbf2172c317b2,65e85ea8575cfed617fa39f4,,,,,,725.9848,770.1897,space,44.1914,,770.2114,1.2,771.4053,771.4053,774.4555,right,0,3.046,,774.4555,775.4554,0,0,0,2,1,partial,1,images/Ex11.jpg,left,training,hard,2,,,,,
,,,,,644940c6c6b71b43c2f0d552,001,56,Female,British,Vocational,2024-03-06_12h18.45.243,CRL1h,2023.2.3,Win32,60.60606061,65e67470ae2fbf2172c317b2,65e85ea8575cfed617fa39f4,,,,,,,,,,,775.4675,0.6,776.0715,776.0715,777.0541,right,1,0.98,,777.0541,778.0546,0,1,1,4,1,partial,1,images/Ex13.jpg,right,training,hard,2,,,,,
,,,,,644940c6c6b71b43c2f0d552,001,56,Female,British,Vocational,2024-03-06_12h18.45.243,CRL1h,2023.2.3,Win32,60.60606061,65e67470ae2fbf2172c317b2,65e85ea8575cfed617fa39f4,,,,,,,,,,,778.0551,0.6,778.6543,778.6544,779.7216,right,0,1.0588,,779.7216,780.7205,0,2,2,1,1,partial,1,images/Ex10.jpg,left,training,hard,2,,,,,
,,,,,644940c6c6b71b43c2f0d552,001,56,Female,British,Vocational,2024-03-06_12h18.45.243,CRL1h,2023.2.3,Win32,60.60606061,65e67470ae2fbf2172c317b2,65e85ea8575cfed617fa39f4,,,,,,,,,,,780.7209,1.5,782.2207,782.2207,784.0394,left,1,1.8167,,784.0394,785.0356,0,3,3,10,1,partial,1,images/Ex11.jpg,left,training,hard,2,,,,,
,,,,,644940c6c6b71b43c2f0d552,001,56,Female,British,Vocational,2024-03-06_12h18.45.243,CRL1h,2023.2.3,Win32,60.60606061,65e67470ae2fbf2172c317b2,65e85ea8575cfed617fa39f4,,,,,,,,,,,785.048,0.9,785.9522,785.9522,786.9554,left,0,1.0015,,786.9555,787.9513,0,4,4,6,1,partial,1,images/Ex15.jpg,right,training,hard,2,,,,,
,,,,,644940c6c6b71b43c2f0d552,001,56,Female,British,Vocational,2024-03-06_12h18.45.243,CRL1h,2023.2.3,Win32,60.60606061,65e67470ae2fbf2172c317b2,65e85ea8575cfed617fa39f4,,,,,,,,,,,787.9523,0.7,788.6517,788.6517,789.5869,left,1,0.9329,,789.587,790.5849,0,5,5,11,1,partial,1,images/Ex12.jpg,left,training,hard,2,,,,,
,,,,,644940c6c6b71b43c2f0d552,001,56,Female,British,Vocational,2024-03-06_12h18.45.243,CRL1h,2023.2.3,Win32,60.60606061,65e67470ae2fbf2172c317b2,65e85ea8575cfed617fa39f4,,,,,,,,,,,790.5854,0.8,791.3853,791.3853,792.4693,right,1,1.0815,,792.4694,793.4669,0,6,6,13,1,partial,1,images/Ex14.jpg,right,training,hard,2,,,,,
,,,,,644940c6c6b71b43c2f0d552,001,56,Female,British,Vocational,2024-03-06_12h18.45.243,CRL1h,2023.2.3,Win32,60.60606061,65e67470ae2fbf2172c317b2,65e85ea8575cfed617fa39f4,,,,,,,,,,,793.4681,0.8,794.2676,794.2677,794.9173,right,1,0.6481,,794.9174,795.9174,0,7,7,5,1,partial,1,images/Ex14.jpg,right,training,hard,2,,,,,
,,,,,644940c6c6b71b43c2f0d552,001,56,Female,British,Vocational,2024-03-06_12h18.45.243,CRL1h,2023.2.3,Win32,60.60606061,65e67470ae2fbf2172c317b2,65e85ea8575cfed617fa39f4,,,,,,,,,,,795.9182,1,796.917,796.9171,798.2842,right,1,1.3651,,798.2843,799.2824,0,8,8,14,1,partial,1,images/Ex15.jpg,right,training,hard,2,,,,,
,,,,,644940c6c6b71b43c2f0d552,001,56,Female,British,Vocational,2024-03-06_12h18.45.243,CRL1h,2023.2.3,Win32,60.60606061,65e67470ae2fbf2172c317b2,65e85ea8575cfed617fa39f4,,,,,,,,,,,799.2829,1.5,800.7836,800.7836,801.9319,right,1,1.144,,801.9324,802.9329,0,9,9,12,1,partial,1,images/Ex13.jpg,right,training,hard,2,,,,,
,,,,,644940c6c6b71b43c2f0d552,001,56,Female,British,Vocational,2024-03-06_12h18.45.243,CRL1h,2023.2.3,Win32,60.60606061,65e67470ae2fbf2172c317b2,65e85ea8575cfed617fa39f4,,,,,,,,,,,802.9333,1.5,804.4314,804.4315,805.4665,left,0,1.0315,,805.4665,806.4644,0,10,10,7,1,partial,1,images/Ex16.jpg,right,training,hard,2,,,,,
,,,,,644940c6c6b71b43c2f0d552,001,56,Female,British,Vocational,2024-03-06_12h18.45.243,CRL1h,2023.2.3,Win32,60.60606061,65e67470ae2fbf2172c317b2,65e85ea8575cfed617fa39f4,,,,,,,,,,,806.465,0.9,807.3646,807.3646,808.3993,left,1,1.0326,,808.3993,809.3973,0,11,11,0,1,partial,1,images/Ex9.jpg,left,training,hard,2,,,,,
,,,,,644940c6c6b71b43c2f0d552,001,56,Female,British,Vocational,2024-03-06_12h18.45.243,CRL1h,2023.2.3,Win32,60.60606061,65e67470ae2fbf2172c317b2,65e85ea8575cfed617fa39f4,,,,,,,,,,,809.3979,1.3,810.6967,810.6968,811.6611,right,0,0.9629,,811.6611,812.6624,0,12,12,3,1,partial,1,images/Ex12.jpg,left,training,hard,2,,,,,
,,,,,644940c6c6b71b43c2f0d552,001,56,Female,British,Vocational,2024-03-06_12h18.45.243,CRL1h,2023.2.3,Win32,60.60606061,65e67470ae2fbf2172c317b2,65e85ea8575cfed617fa39f4,,,,,,,,,,,812.6629,1.1,813.7624,813.7624,814.7127,right,1,0.9466,,814.7128,815.7119,0,13,13,15,1,partial,1,images/Ex16.jpg,right,training,hard,2,,,,,
,,,,,644940c6c6b71b43c2f0d552,001,56,Female,British,Vocational,2024-03-06_12h18.45.243,CRL1h,2023.2.3,Win32,60.60606061,65e67470ae2fbf2172c317b2,65e85ea8575cfed617fa39f4,,,,,,,,,,,815.7124,1.4,817.1117,817.1118,818.1793,right,0,1.0621,,818.1794,819.1779,0,14,14,8,1,partial,1,images/Ex9.jpg,left,training,hard,2,,,,,
,,,,,644940c6c6b71b43c2f0d552,001,56,Female,British,Vocational,2024-03-06_12h18.45.243,CRL1h,2023.2.3,Win32,60.60606061,65e67470ae2fbf2172c317b2,65e85ea8575cfed617fa39f4,,,,,,,,,,,819.1784,0.8,819.9779,819.9779,820.8626,right,0,0.8828,,820.8627,821.8607,0,15,15,9,1,partial,1,images/Ex10.jpg,left,training,hard,2,,,,,
,,,,,644940c6c6b71b43c2f0d552,001,56,Female,British,Vocational,2024-03-06_12h18.45.243,CRL1h,2023.2.3,Win32,60.60606061,65e67470ae2fbf2172c317b2,65e85ea8575cfed617fa39f4,,,,,,,,,,,821.8612,0.8,822.6603,822.6603,824.0275,right,0,1.3658,,824.0276,825.0265,1,0,16,10,1,partial,1,images/Ex11.jpg,left,training,hard,2,,,,,
,,,,,644940c6c6b71b43c2f0d552,001,56,Female,British,Vocational,2024-03-06_12h18.45.243,CRL1h,2023.2.3,Win32,60.60606061,65e67470ae2fbf2172c317b2,65e85ea8575cfed617fa39f4,,,,,,,,,,,825.0276,1.3,826.3304,826.3305,827.277,right,0,0.9412,,827.2771,828.2767,1,1,17,9,1,partial,1,images/Ex10.jpg,left,training,hard,2,,,,,
,,,,,644940c6c6b71b43c2f0d552,001,56,Female,British,Vocational,2024-03-06_12h18.45.243,CRL1h,2023.2.3,Win32,60.60606061,65e67470ae2fbf2172c317b2,65e85ea8575cfed617fa39f4,,,,,,,,,,,828.2777,0.6,828.8774,828.8775,830.0933,right,1,1.2105,,830.0934,831.0921,1,2,18,7,1,partial,1,images/Ex16.jpg,right,training,hard,2,,,,,
,,,,,644940c6c6b71b43c2f0d552,001,56,Female,British,Vocational,2024-03-06_12h18.45.243,CRL1h,2023.2.3,Win32,60.60606061,65e67470ae2fbf2172c317b2,65e85ea8575cfed617fa39f4,,,,,,,,,,,831.0938,1.2,832.2912,832.2912,834.5586,left,1,2.2653,,834.5587,835.5574,1,3,19,0,1,partial,1,images/Ex9.jpg,left,training,hard,2,,,,,
,,,,,644940c6c6b71b43c2f0d552,001,56,Female,British,Vocational,2024-03-06_12h18.45.243,CRL1h,2023.2.3,Win32,60.60606061,65e67470ae2fbf2172c317b2,65e85ea8575cfed617fa39f4,,,,,,,,,,,835.5699,0.5,836.0596,836.0596,838.1783,right,1,2.1161,,838.1784,839.1866,1,4,20,6,1,partial,1,images/Ex15.jpg,right,training,hard,2,,,,,
,,,,,644940c6c6b71b43c2f0d552,001,56,Female,British,Vocational,2024-03-06_12h18.45.243,CRL1h,2023.2.3,Win32,60.60606061,65e67470ae2fbf2172c317b2,65e85ea8575cfed617fa39f4,,,,,,,,,,,839.2193,1,840.208,840.209,841.4982,right,0,1.2857,,841.4982,842.4916,1,5,21,3,1,partial,1,images/Ex12.jpg,left,training,hard,2,,,,,
,,,,,644940c6c6b71b43c2f0d552,001,56,Female,British,Vocational,2024-03-06_12h18.45.243,CRL1h,2023.2.3,Win32,60.60606061,65e67470ae2fbf2172c317b2,65e85ea8575cfed617fa39f4,,,,,,,,,,,842.4925,1.1,843.5903,843.5905,845.2768,left,1,1.6825,,845.2769,846.2712,1,6,22,8,1,partial,1,images/Ex9.jpg,left,training,hard,2,,,,,
,,,,,644940c6c6b71b43c2f0d552,001,56,Female,British,Vocational,2024-03-06_12h18.45.243,CRL1h,2023.2.3,Win32,60.60606061,65e67470ae2fbf2172c317b2,65e85ea8575cfed617fa39f4,,,,,,,,,,,846.2717,1.5,847.7713,847.7713,848.84,right,1,1.067,,848.84,849.8376,1,7,23,12,1,partial,1,images/Ex13.jpg,right,training,hard,2,,,,,
,,,,,644940c6c6b71b43c2f0d552,001,56,Female,British,Vocational,2024-03-06_12h18.45.243,CRL1h,2023.2.3,Win32,60.60606061,65e67470ae2fbf2172c317b2,65e85ea8575cfed617fa39f4,,,,,,,,,,,849.8381,1.2,851.0372,851.0372,852.6207,right,1,1.5785,,852.6208,853.6203,1,8,24,15,1,partial,1,images/Ex16.jpg,right,training,hard,2,,,,,
,,,,,644940c6c6b71b43c2f0d552,001,56,Female,British,Vocational,2024-03-06_12h18.45.243,CRL1h,2023.2.3,Win32,60.60606061,65e67470ae2fbf2172c317b2,65e85ea8575cfed617fa39f4,,,,,,,,,,,853.6209,0.8,854.4198,854.4199,855.4866,left,1,1.0647,,855.4867,856.4854,1,9,25,11,1,partial,1,images/Ex12.jpg,left,training,hard,2,,,,,
,,,,,644940c6c6b71b43c2f0d552,001,56,Female,British,Vocational,2024-03-06_12h18.45.243,CRL1h,2023.2.3,Win32,60.60606061,65e67470ae2fbf2172c317b2,65e85ea8575cfed617fa39f4,,,,,,,,,,,856.4859,1,857.4852,857.4853,858.4523,right,0,0.9639,,858.4524,859.4516,1,10,26,2,1,partial,1,images/Ex11.jpg,left,training,hard,2,,,,,
,,,,,644940c6c6b71b43c2f0d552,001,56,Female,British,Vocational,2024-03-06_12h18.45.243,CRL1h,2023.2.3,Win32,60.60606061,65e67470ae2fbf2172c317b2,65e85ea8575cfed617fa39f4,,,,,,,,,,,859.452,0.9,860.3514,860.3515,861.086,right,1,0.7329,,861.086,862.0848,1,11,27,13,1,partial,1,images/Ex14.jpg,right,training,hard,2,,,,,
,,,,,644940c6c6b71b43c2f0d552,001,56,Female,British,Vocational,2024-03-06_12h18.45.243,CRL1h,2023.2.3,Win32,60.60606061,65e67470ae2fbf2172c317b2,65e85ea8575cfed617fa39f4,,,,,,,,,,,862.0852,0.7,862.7849,862.7849,863.4008,right,1,0.6122,,863.4008,864.4003,1,12,28,4,1,partial,1,images/Ex13.jpg,right,training,hard,2,,,,,
,,,,,644940c6c6b71b43c2f0d552,001,56,Female,British,Vocational,2024-03-06_12h18.45.243,CRL1h,2023.2.3,Win32,60.60606061,65e67470ae2fbf2172c317b2,65e85ea8575cfed617fa39f4,,,,,,,,,,,864.4008,1.2,865.6003,865.6003,866.5175,right,0,0.9157,,866.5175,867.5158,1,13,29,1,1,partial,1,images/Ex10.jpg,left,training,hard,2,,,,,
,,,,,644940c6c6b71b43c2f0d552,001,56,Female,British,Vocational,2024-03-06_12h18.45.243,CRL1h,2023.2.3,Win32,60.60606061,65e67470ae2fbf2172c317b2,65e85ea8575cfed617fa39f4,,,,,,,,,,,867.5168,1.2,868.7174,868.7175,869.5175,right,1,0.7977,,869.5175,870.5156,1,14,30,14,1,partial,1,images/Ex15.jpg,right,training,hard,2,,,,,
,,,,,644940c6c6b71b43c2f0d552,001,56,Female,British,Vocational,2024-03-06_12h18.45.243,CRL1h,2023.2.3,Win32,60.60606061,65e67470ae2fbf2172c317b2,65e85ea8575cfed617fa39f4,,,,,,,,,,,870.5162,1,871.5167,871.5168,872.2322,right,1,0.712,,872.2322,873.2314,1,15,31,5,1,partial,1,images/Ex14.jpg,right,training,hard,2,,,,,
,,,,,644940c6c6b71b43c2f0d552,001,56,Female,British,Vocational,2024-03-06_12h18.45.243,CRL1h,2023.2.3,Win32,60.60606061,65e67470ae2fbf2172c317b2,65e85ea8575cfed617fa39f4,,,,,,,,,,,873.2318,1.1,874.3313,874.3314,876.0151,right,0,1.6818,,876.0152,877.015,2,0,32,8,1,partial,1,images/Ex9.jpg,left,training,hard,2,,,,,
,,,,,644940c6c6b71b43c2f0d552,001,56,Female,British,Vocational,2024-03-06_12h18.45.243,CRL1h,2023.2.3,Win32,60.60606061,65e67470ae2fbf2172c317b2,65e85ea8575cfed617fa39f4,,,,,,,,,,,877.0306,0.9,877.9306,877.9306,879.331,right,1,1.3959,,879.3311,880.3299,2,1,33,12,1,partial,1,images/Ex13.jpg,right,training,hard,2,,,,,
,,,,,644940c6c6b71b43c2f0d552,001,56,Female,British,Vocational,2024-03-06_12h18.45.243,CRL1h,2023.2.3,Win32,60.60606061,65e67470ae2fbf2172c317b2,65e85ea8575cfed617fa39f4,,,,,,,,,,,880.3304,0.6,880.9306,880.9306,882.0466,left,0,1.1145,,882.0466,883.0408,2,2,34,6,1,partial,1,images/Ex15.jpg,right,training,hard,2,,,,,
,,,,,644940c6c6b71b43c2f0d552,001,56,Female,British,Vocational,2024-03-06_12h18.45.243,CRL1h,2023.2.3,Win32,60.60606061,65e67470ae2fbf2172c317b2,65e85ea8575cfed617fa39f4,,,,,,,,,,,883.0418,0.7,883.7297,883.7297,884.6623,right,1,0.9287,,884.6623,885.6619,2,3,35,4,1,partial,1,images/Ex13.jpg,right,training,hard,2,,,,,
,,,,,644940c6c6b71b43c2f0d552,001,56,Female,British,Vocational,2024-03-06_12h18.45.243,CRL1h,2023.2.3,Win32,60.60606061,65e67470ae2fbf2172c317b2,65e85ea8575cfed617fa39f4,,,,,,,,,,,885.6624,1,886.6617,886.6618,887.5959,left,1,0.9318,,887.5959,888.5948,2,4,36,1,1,partial,1,images/Ex10.jpg,left,training,hard,2,,,,,
,,,,,644940c6c6b71b43c2f0d552,001,56,Female,British,Vocational,2024-03-06_12h18.45.243,CRL1h,2023.2.3,Win32,60.60606061,65e67470ae2fbf2172c317b2,65e85ea8575cfed617fa39f4,,,,,,,,,,,888.5953,0.8,889.3944,889.3944,890.5442,right,1,1.1475,,890.5443,891.5443,2,5,37,15,1,partial,1,images/Ex16.jpg,right,training,hard,2,,,,,
,,,,,644940c6c6b71b43c2f0d552,001,56,Female,British,Vocational,2024-03-06_12h18.45.243,CRL1h,2023.2.3,Win32,60.60606061,65e67470ae2fbf2172c317b2,65e85ea8575cfed617fa39f4,,,,,,,,,,,891.5448,1.5,893.0439,893.044,894.0775,left,1,1.0322,,894.0776,895.0776,2,6,38,3,1,partial,1,images/Ex12.jpg,left,training,hard,2,,,,,
,,,,,644940c6c6b71b43c2f0d552,001,56,Female,British,Vocational,2024-03-06_12h18.45.243,CRL1h,2023.2.3,Win32,60.60606061,65e67470ae2fbf2172c317b2,65e85ea8575cfed617fa39f4,,,,,,,,,,,895.079,1.3,896.376,896.376,897.7103,left,1,1.3302,,897.7104,898.7088,2,7,39,10,1,partial,1,images/Ex11.jpg,left,training,hard,2,,,,,
,,,,,644940c6c6b71b43c2f0d552,001,56,Female,British,Vocational,2024-03-06_12h18.45.243,CRL1h,2023.2.3,Win32,60.60606061,65e67470ae2fbf2172c317b2,65e85ea8575cfed617fa39f4,,,,,,,,,,,898.7095,0.7,899.4086,899.4086,900.2919,right,1,0.8791,,900.2919,901.3018,2,8,40,13,1,partial,1,images/Ex14.jpg,right,training,hard,2,,,,,
,,,,,644940c6c6b71b43c2f0d552,001,56,Female,British,Vocational,2024-03-06_12h18.45.243,CRL1h,2023.2.3,Win32,60.60606061,65e67470ae2fbf2172c317b2,65e85ea8575cfed617fa39f4,,,,,,,,,,,901.3023,0.8,902.0918,902.0919,903.7407,left,1,1.645,,903.7408,904.7404,2,9,41,9,1,partial,1,images/Ex10.jpg,left,training,hard,2,,,,,
,,,,,644940c6c6b71b43c2f0d552,001,56,Female,British,Vocational,2024-03-06_12h18.45.243,CRL1h,2023.2.3,Win32,60.60606061,65e67470ae2fbf2172c317b2,65e85ea8575cfed617fa39f4,,,,,,,,,,,904.7414,1.2,905.9401,905.9402,907.5071,right,0,1.565,,907.5072,908.506,2,10,42,0,1,partial,1,images/Ex9.jpg,left,training,hard,2,,,,,
,,,,,644940c6c6b71b43c2f0d552,001,56,Female,British,Vocational,2024-03-06_12h18.45.243,CRL1h,2023.2.3,Win32,60.60606061,65e67470ae2fbf2172c317b2,65e85ea8575cfed617fa39f4,,,,,,,,,,,908.5065,1.1,909.6061,909.6061,910.574,right,1,0.9631,,910.574,911.576,2,11,43,5,1,partial,1,images/Ex14.jpg,right,training,hard,2,,,,,
,,,,,644940c6c6b71b43c2f0d552,001,56,Female,British,Vocational,2024-03-06_12h18.45.243,CRL1h,2023.2.3,Win32,60.60606061,65e67470ae2fbf2172c317b2,65e85ea8575cfed617fa39f4,,,,,,,,,,,911.5771,0.6,912.1735,912.1737,913.7707,left,1,1.595,,913.7708,914.7713,2,12,44,11,1,partial,1,images/Ex12.jpg,left,training,hard,2,,,,,
,,,,,644940c6c6b71b43c2f0d552,001,56,Female,British,Vocational,2024-03-06_12h18.45.243,CRL1h,2023.2.3,Win32,60.60606061,65e67470ae2fbf2172c317b2,65e85ea8575cfed617fa39f4,,,,,,,,,,,914.7724,0.5,915.272,915.2721,916.5396,right,1,1.2649,,916.5398,917.5377,2,13,45,7,1,partial,1,images/Ex16.jpg,right,training,hard,2,,,,,
,,,,,644940c6c6b71b43c2f0d552,001,56,Female,British,Vocational,2024-03-06_12h18.45.243,CRL1h,2023.2.3,Win32,60.60606061,65e67470ae2fbf2172c317b2,65e85ea8575cfed617fa39f4,,,,,,,,,,,917.5381,1.4,918.9373,918.9374,919.9537,left,1,1.015,,919.9539,920.954,2,14,46,2,1,partial,1,images/Ex11.jpg,left,training,hard,2,,,,,
,,,,,644940c6c6b71b43c2f0d552,001,56,Female,British,Vocational,2024-03-06_12h18.45.243,CRL1h,2023.2.3,Win32,60.60606061,65e67470ae2fbf2172c317b2,65e85ea8575cfed617fa39f4,,,,,,,,,,,920.9544,0.7,921.6534,921.6534,922.421,left,0,0.7656,,922.4211,923.4095,2,15,47,14,1,partial,1,images/Ex15.jpg,right,training,hard,2,,,,,
,,,,,644940c6c6b71b43c2f0d552,001,56,Female,British,Vocational,2024-03-06_12h18.45.243,CRL1h,2023.2.3,Win32,60.60606061,65e67470ae2fbf2172c317b2,65e85ea8575cfed617fa39f4,,,,,,,,,,,923.4107,1.3,924.703,924.703,926.0589,left,1,1.3538,,926.059,927.0536,3,0,48,1,1,partial,1,images/Ex10.jpg,left,training,hard,2,,,,,
,,,,,644940c6c6b71b43c2f0d552,001,56,Female,British,Vocational,2024-03-06_12h18.45.243,CRL1h,2023.2.3,Win32,60.60606061,65e67470ae2fbf2172c317b2,65e85ea8575cfed617fa39f4,,,,,,,,,,,927.0542,1.1,928.1542,928.1543,929.3493,right,1,1.1932,,929.3493,930.3596,3,1,49,15,1,partial,1,images/Ex16.jpg,right,training,hard,2,,,,,
,,,,,644940c6c6b71b43c2f0d552,001,56,Female,British,Vocational,2024-03-06_12h18.45.243,CRL1h,2023.2.3,Win32,60.60606061,65e67470ae2fbf2172c317b2,65e85ea8575cfed617fa39f4,,,,,,,,,,,930.3607,0.5,930.8512,930.8513,931.7603,right,1,0.9069,,931.7603,932.7477,3,2,50,7,1,partial,1,images/Ex16.jpg,right,training,hard,2,,,,,
,,,,,644940c6c6b71b43c2f0d552,001,56,Female,British,Vocational,2024-03-06_12h18.45.243,CRL1h,2023.2.3,Win32,60.60606061,65e67470ae2fbf2172c317b2,65e85ea8575cfed617fa39f4,,,,,,,,,,,932.7486,1.1,933.8412,933.8413,935.4188,right,0,1.5745,,935.419,936.4089,3,3,51,11,1,partial,1,images/Ex12.jpg,left,training,hard,2,,,,,
,,,,,644940c6c6b71b43c2f0d552,001,56,Female,British,Vocational,2024-03-06_12h18.45.243,CRL1h,2023.2.3,Win32,60.60606061,65e67470ae2fbf2172c317b2,65e85ea8575cfed617fa39f4,,,,,,,,,,,936.4101,1,937.4204,937.4204,938.7119,left,0,1.2854,,938.7119,939.694,3,4,52,6,1,partial,1,images/Ex15.jpg,right,training,hard,2,,,,,
,,,,,644940c6c6b71b43c2f0d552,001,56,Female,British,Vocational,2024-03-06_12h18.45.243,CRL1h,2023.2.3,Win32,60.60606061,65e67470ae2fbf2172c317b2,65e85ea8575cfed617fa39f4,,,,,,,,,,,939.6949,1.3,941,941.0001,942.0176,left,1,1.0143,,942.0177,943.0101,3,5,53,2,1,partial,1,images/Ex11.jpg,left,training,hard,2,,,,,
,,,,,644940c6c6b71b43c2f0d552,001,56,Female,British,Vocational,2024-03-06_12h18.45.243,CRL1h,2023.2.3,Win32,60.60606061,65e67470ae2fbf2172c317b2,65e85ea8575cfed617fa39f4,,,,,,,,,,,943.0112,0.6,943.5952,943.5953,944.9844,right,1,1.3861,,944.9844,945.9968,3,6,54,5,1,partial,1,images/Ex14.jpg,right,training,hard,2,,,,,
,,,,,644940c6c6b71b43c2f0d552,001,56,Female,British,Vocational,2024-03-06_12h18.45.243,CRL1h,2023.2.3,Win32,60.60606061,65e67470ae2fbf2172c317b2,65e85ea8575cfed617fa39f4,,,,,,,,,,,945.9974,1.3,947.2854,947.2854,948.2143,right,1,0.9271,,948.2143,949.1946,3,7,55,14,1,partial,1,images/Ex15.jpg,right,training,hard,2,,,,,
,,,,,644940c6c6b71b43c2f0d552,001,56,Female,British,Vocational,2024-03-06_12h18.45.243,CRL1h,2023.2.3,Win32,60.60606061,65e67470ae2fbf2172c317b2,65e85ea8575cfed617fa39f4,,,,,,,,,,,949.1963,1.3,950.4861,950.4861,951.1816,left,1,0.6922,,951.1817,952.1751,3,8,56,8,1,partial,1,images/Ex9.jpg,left,training,hard,2,,,,,
,,,,,644940c6c6b71b43c2f0d552,001,56,Female,British,Vocational,2024-03-06_12h18.45.243,CRL1h,2023.2.3,Win32,60.60606061,65e67470ae2fbf2172c317b2,65e85ea8575cfed617fa39f4,,,,,,,,,,,952.1761,0.5,952.6785,952.6786,953.3629,left,1,0.6801,,953.363,954.3622,3,9,57,0,1,partial,1,images/Ex9.jpg,left,training,hard,2,,,,,
,,,,,644940c6c6b71b43c2f0d552,001,56,Female,British,Vocational,2024-03-06_12h18.45.243,CRL1h,2023.2.3,Win32,60.60606061,65e67470ae2fbf2172c317b2,65e85ea8575cfed617fa39f4,,,,,,,,,,,954.3627,1.1,955.4617,955.4618,956.4495,right,1,0.9832,,956.4496,957.4451,3,10,58,12,1,partial,1,images/Ex13.jpg,right,training,hard,2,,,,,
,,,,,644940c6c6b71b43c2f0d552,001,56,Female,British,Vocational,2024-03-06_12h18.45.243,CRL1h,2023.2.3,Win32,60.60606061,65e67470ae2fbf2172c317b2,65e85ea8575cfed617fa39f4,,,,,,,,,,,957.4457,0.7,958.1462,958.1462,959.163,left,1,1.0145,,959.1632,960.1621,3,11,59,10,1,partial,1,images/Ex11.jpg,left,training,hard,2,,,,,
,,,,,644940c6c6b71b43c2f0d552,001,56,Female,British,Vocational,2024-03-06_12h18.45.243,CRL1h,2023.2.3,Win32,60.60606061,65e67470ae2fbf2172c317b2,65e85ea8575cfed617fa39f4,,,,,,,,,,,960.1627,1.2,961.3622,961.3622,962.9828,right,0,1.6159,,962.9829,963.9768,3,12,60,3,1,partial,1,images/Ex12.jpg,left,training,hard,2,,,,,
,,,,,644940c6c6b71b43c2f0d552,001,56,Female,British,Vocational,2024-03-06_12h18.45.243,CRL1h,2023.2.3,Win32,60.60606061,65e67470ae2fbf2172c317b2,65e85ea8575cfed617fa39f4,,,,,,,,,,,963.9901,1.2,965.193,965.193,965.9114,right,1,0.7169,,965.9114,966.9101,3,13,61,13,1,partial,1,images/Ex14.jpg,right,training,hard,2,,,,,
,,,,,644940c6c6b71b43c2f0d552,001,56,Female,British,Vocational,2024-03-06_12h18.45.243,CRL1h,2023.2.3,Win32,60.60606061,65e67470ae2fbf2172c317b2,65e85ea8575cfed617fa39f4,,,,,,,,,,,966.9106,1,967.9102,967.9103,968.6107,left,1,0.6992,,968.6109,969.6087,3,14,62,9,1,partial,1,images/Ex10.jpg,left,training,hard,2,,,,,
,,,,,644940c6c6b71b43c2f0d552,001,56,Female,British,Vocational,2024-03-06_12h18.45.243,CRL1h,2023.2.3,Win32,60.60606061,65e67470ae2fbf2172c317b2,65e85ea8575cfed617fa39f4,,,,,,,,,,,969.6093,1.5,971.1091,971.1091,971.9439,right,1,0.8331,,971.9439,972.9416,3,15,63,4,1,partial,1,images/Ex13.jpg,right,training,hard,2,,,,,
,,,,,644940c6c6b71b43c2f0d552,001,56,Female,British,Vocational,2024-03-06_12h18.45.243,CRL1h,2023.2.3,Win32,60.60606061,65e67470ae2fbf2172c317b2,65e85ea8575cfed617fa39f4,,,,,,,,,,,972.9421,0.6,973.541,973.541,974.0409,left,1,0.494,,974.041,975.0409,4,0,64,8,1,partial,1,images/Ex9.jpg,left,training,hard,2,,,,,
,,,,,644940c6c6b71b43c2f0d552,001,56,Female,British,Vocational,2024-03-06_12h18.45.243,CRL1h,2023.2.3,Win32,60.60606061,65e67470ae2fbf2172c317b2,65e85ea8575cfed617fa39f4,,,,,,,,,,,975.0413,0.8,975.8408,975.8408,976.7073,left,1,0.8647,,976.7074,977.7078,4,1,65,3,1,partial,1,images/Ex12.jpg,left,training,hard,2,,,,,
,,,,,644940c6c6b71b43c2f0d552,001,56,Female,British,Vocational,2024-03-06_12h18.45.243,CRL1h,2023.2.3,Win32,60.60606061,65e67470ae2fbf2172c317b2,65e85ea8575cfed617fa39f4,,,,,,,,,,,977.7082,1.1,978.8063,978.8063,979.8569,right,1,1.0491,,979.8569,980.8576,4,2,66,15,1,partial,1,images/Ex16.jpg,right,training,hard,2,,,,,
,,,,,644940c6c6b71b43c2f0d552,001,56,Female,British,Vocational,2024-03-06_12h18.45.243,CRL1h,2023.2.3,Win32,60.60606061,65e67470ae2fbf2172c317b2,65e85ea8575cfed617fa39f4,,,,,,,,,,,980.8586,1.1,981.9561,981.9562,983.689,right,0,1.7289,,983.6891,984.6895,4,3,67,10,1,partial,1,images/Ex11.jpg,left,training,hard,2,,,,,
,,,,,644940c6c6b71b43c2f0d552,001,56,Female,British,Vocational,2024-03-06_12h18.45.243,CRL1h,2023.2.3,Win32,60.60606061,65e67470ae2fbf2172c317b2,65e85ea8575cfed617fa39f4,,,,,,,,,,,984.6901,0.7,985.3898,985.3898,986.3557,right,1,0.9633,,986.3558,987.3542,4,4,68,4,1,partial,1,images/Ex13.jpg,right,training,hard,2,,,,,
,,,,,644940c6c6b71b43c2f0d552,001,56,Female,British,Vocational,2024-03-06_12h18.45.243,CRL1h,2023.2.3,Win32,60.60606061,65e67470ae2fbf2172c317b2,65e85ea8575cfed617fa39f4,,,,,,,,,,,987.3546,0.9,988.2539,988.2539,989.0735,left,1,0.8177,,989.0736,990.0711,4,5,69,0,1,partial,1,images/Ex9.jpg,left,training,hard,2,,,,,
,,,,,644940c6c6b71b43c2f0d552,001,56,Female,British,Vocational,2024-03-06_12h18.45.243,CRL1h,2023.2.3,Win32,60.60606061,65e67470ae2fbf2172c317b2,65e85ea8575cfed617fa39f4,,,,,,,,,,,990.0716,0.5,990.5722,990.5723,991.4032,left,1,0.8259,,991.4032,992.4032,4,6,70,1,1,partial,1,images/Ex10.jpg,left,training,hard,2,,,,,
,,,,,644940c6c6b71b43c2f0d552,001,56,Female,British,Vocational,2024-03-06_12h18.45.243,CRL1h,2023.2.3,Win32,60.60606061,65e67470ae2fbf2172c317b2,65e85ea8575cfed617fa39f4,,,,,,,,,,,992.4037,1.4,993.8028,993.8029,995.2388,left,0,1.4341,,995.2389,996.2355,4,7,71,6,1,partial,1,images/Ex15.jpg,right,training,hard,2,,,,,
,,,,,644940c6c6b71b43c2f0d552,001,56,Female,British,Vocational,2024-03-06_12h18.45.243,CRL1h,2023.2.3,Win32,60.60606061,65e67470ae2fbf2172c317b2,65e85ea8575cfed617fa39f4,,,,,,,,,,,996.236,0.7,996.9353,996.9353,997.8518,right,1,0.9132,,997.8519,998.8518,4,8,72,13,1,partial,1,images/Ex14.jpg,right,training,hard,2,,,,,
,,,,,644940c6c6b71b43c2f0d552,001,56,Female,British,Vocational,2024-03-06_12h18.45.243,CRL1h,2023.2.3,Win32,60.60606061,65e67470ae2fbf2172c317b2,65e85ea8575cfed617fa39f4,,,,,,,,,,,998.8522,1.2,1000.0513,1000.0513,1001.1689,right,1,1.1145,,1001.1689,1002.1675,4,9,73,14,1,partial,1,images/Ex15.jpg,right,training,hard,2,,,,,
,,,,,644940c6c6b71b43c2f0d552,001,56,Female,British,Vocational,2024-03-06_12h18.45.243,CRL1h,2023.2.3,Win32,60.60606061,65e67470ae2fbf2172c317b2,65e85ea8575cfed617fa39f4,,,,,,,,,,,1002.1684,1,1003.1672,1003.1673,1004.0848,left,1,0.9139,,1004.0849,1005.0838,4,10,74,11,1,partial,1,images/Ex12.jpg,left,training,hard,2,,,,,
,,,,,644940c6c6b71b43c2f0d552,001,56,Female,British,Vocational,2024-03-06_12h18.45.243,CRL1h,2023.2.3,Win32,60.60606061,65e67470ae2fbf2172c317b2,65e85ea8575cfed617fa39f4,,,,,,,,,,,1005.0842,1.2,1006.283,1006.2832,1007.1501,right,1,0.8651,,1007.1501,1008.1487,4,11,75,12,1,partial,1,images/Ex13.jpg,right,training,hard,2,,,,,
,,,,,644940c6c6b71b43c2f0d552,001,56,Female,British,Vocational,2024-03-06_12h18.45.243,CRL1h,2023.2.3,Win32,60.60606061,65e67470ae2fbf2172c317b2,65e85ea8575cfed617fa39f4,,,,,,,,,,,1008.1498,1.3,1009.4483,1009.4484,1010.4006,right,1,0.9499,,1010.4007,1011.3983,4,12,76,7,1,partial,1,images/Ex16.jpg,right,training,hard,2,,,,,
,,,,,644940c6c6b71b43c2f0d552,001,56,Female,British,Vocational,2024-03-06_12h18.45.243,CRL1h,2023.2.3,Win32,60.60606061,65e67470ae2fbf2172c317b2,65e85ea8575cfed617fa39f4,,,,,,,,,,,1011.3989,0.9,1012.2988,1012.2988,1013.1994,right,1,0.8989,,1013.1996,1014.1973,4,13,77,5,1,partial,1,images/Ex14.jpg,right,training,hard,2,,,,,
,,,,,644940c6c6b71b43c2f0d552,001,56,Female,British,Vocational,2024-03-06_12h18.45.243,CRL1h,2023.2.3,Win32,60.60606061,65e67470ae2fbf2172c317b2,65e85ea8575cfed617fa39f4,,,,,,,,,,,1014.1985,1.5,1015.6923,1015.6925,1016.4213,left,1,0.7272,,1016.4213,1017.4135,4,14,78,9,1,partial,1,images/Ex10.jpg,left,training,hard,2,,,,,
,,,,,644940c6c6b71b43c2f0d552,001,56,Female,British,Vocational,2024-03-06_12h18.45.243,CRL1h,2023.2.3,Win32,60.60606061,65e67470ae2fbf2172c317b2,65e85ea8575cfed617fa39f4,,,,,,,,,,,1017.414,0.8,1018.214,1018.2141,1019.1814,left,1,0.9654,,1019.1814,1020.1797,4,15,79,2,1,partial,1,images/Ex11.jpg,left,training,hard,2,,,,,
,,,,,644940c6c6b71b43c2f0d552,001,56,Female,British,Vocational,2024-03-06_12h18.45.243,CRL1h,2023.2.3,Win32,60.60606061,65e67470ae2fbf2172c317b2,65e85ea8575cfed617fa39f4,,,,,,,,,,,1020.1802,1,1021.1806,1021.1807,1021.8307,left,1,0.6484,,1021.8308,1022.8294,5,0,80,2,1,partial,1,images/Ex11.jpg,left,training,hard,2,,,,,
,,,,,644940c6c6b71b43c2f0d552,001,56,Female,British,Vocational,2024-03-06_12h18.45.243,CRL1h,2023.2.3,Win32,60.60606061,65e67470ae2fbf2172c317b2,65e85ea8575cfed617fa39f4,,,,,,,,,,,1022.83,1,1023.8292,1023.8292,1025.2305,left,1,1.3989,,1025.2305,1026.2293,5,1,81,3,1,partial,1,images/Ex12.jpg,left,training,hard,2,,,,,
,,,,,644940c6c6b71b43c2f0d552,001,56,Female,British,Vocational,2024-03-06_12h18.45.243,CRL1h,2023.2.3,Win32,60.60606061,65e67470ae2fbf2172c317b2,65e85ea8575cfed617fa39f4,,,,,,,,,,,1026.2416,1.3,1027.5447,1027.5448,1028.4618,right,1,0.9146,,1028.462,1029.4621,5,2,82,14,1,partial,1,images/Ex15.jpg,right,training,hard,2,,,,,
,,,,,644940c6c6b71b43c2f0d552,001,56,Female,British,Vocational,2024-03-06_12h18.45.243,CRL1h,2023.2.3,Win32,60.60606061,65e67470ae2fbf2172c317b2,65e85ea8575cfed617fa39f4,,,,,,,,,,,1029.4629,1.3,1030.7618,1030.7618,1031.8452,left,1,1.0814,,1031.8452,1032.8434,5,3,83,8,1,partial,1,images/Ex9.jpg,left,training,hard,2,,,,,
,,,,,644940c6c6b71b43c2f0d552,001,56,Female,British,Vocational,2024-03-06_12h18.45.243,CRL1h,2023.2.3,Win32,60.60606061,65e67470ae2fbf2172c317b2,65e85ea8575cfed617fa39f4,,,,,,,,,,,1032.8438,0.7,1033.5429,1033.543,1034.5404,right,1,0.9958,,1034.5404,1035.5419,5,4,84,6,1,partial,1,images/Ex15.jpg,right,training,hard,2,,,,,
,,,,,644940c6c6b71b43c2f0d552,001,56,Female,British,Vocational,2024-03-06_12h18.45.243,CRL1h,2023.2.3,Win32,60.60606061,65e67470ae2fbf2172c317b2,65e85ea8575cfed617fa39f4,,,,,,,,,,,1035.5429,0.7,1036.242,1036.242,1037.1929,right,1,0.9489,,1037.193,1038.1931,5,5,85,4,1,partial,1,images/Ex13.jpg,right,training,hard,2,,,,,
,,,,,644940c6c6b71b43c2f0d552,001,56,Female,British,Vocational,2024-03-06_12h18.45.243,CRL1h,2023.2.3,Win32,60.60606061,65e67470ae2fbf2172c317b2,65e85ea8575cfed617fa39f4,,,,,,,,,,,1038.1937,0.9,1039.0919,1039.0919,1040.0407,right,1,0.9464,,1040.0408,1041.0407,5,6,86,15,1,partial,1,images/Ex16.jpg,right,training,hard,2,,,,,
,,,,,644940c6c6b71b43c2f0d552,001,56,Female,British,Vocational,2024-03-06_12h18.45.243,CRL1h,2023.2.3,Win32,60.60606061,65e67470ae2fbf2172c317b2,65e85ea8575cfed617fa39f4,,,,,,,,,,,1041.0417,1.3,1042.3462,1042.3462,1043.1549,right,1,0.8035,,1043.155,1044.1637,5,7,87,5,1,partial,1,images/Ex14.jpg,right,training,hard,2,,,,,
,,,,,644940c6c6b71b43c2f0d552,001,56,Female,British,Vocational,2024-03-06_12h18.45.243,CRL1h,2023.2.3,Win32,60.60606061,65e67470ae2fbf2172c317b2,65e85ea8575cfed617fa39f4,,,,,,,,,,,1044.165,0.7,1044.862,1044.862,1045.6464,right,1,0.7818,,1045.6466,1046.6565,5,8,88,13,1,partial,1,images/Ex14.jpg,right,training,hard,2,,,,,
,,,,,644940c6c6b71b43c2f0d552,001,56,Female,British,Vocational,2024-03-06_12h18.45.243,CRL1h,2023.2.3,Win32,60.60606061,65e67470ae2fbf2172c317b2,65e85ea8575cfed617fa39f4,,,,,,,,,,,1046.6581,1.2,1047.8567,1047.8567,1049.4503,left,1,1.5904,,1049.4503,1050.4279,5,9,89,11,1,partial,1,images/Ex12.jpg,left,training,hard,2,,,,,
,,,,,644940c6c6b71b43c2f0d552,001,56,Female,British,Vocational,2024-03-06_12h18.45.243,CRL1h,2023.2.3,Win32,60.60606061,65e67470ae2fbf2172c317b2,65e85ea8575cfed617fa39f4,,,,,,,,,,,1050.446,0.6,1051.0361,1051.0362,1051.764,left,1,0.7256,,1051.764,1052.7622,5,10,90,10,1,partial,1,images/Ex11.jpg,left,training,hard,2,,,,,
,,,,,644940c6c6b71b43c2f0d552,001,56,Female,British,Vocational,2024-03-06_12h18.45.243,CRL1h,2023.2.3,Win32,60.60606061,65e67470ae2fbf2172c317b2,65e85ea8575cfed617fa39f4,,,,,,,,,,,1052.7628,1.3,1054.0729,1054.0729,1054.7777,right,1,0.7031,,1054.7782,1055.7712,5,11,91,7,1,partial,1,images/Ex16.jpg,right,training,hard,2,,,,,
,,,,,644940c6c6b71b43c2f0d552,001,56,Female,British,Vocational,2024-03-06_12h18.45.243,CRL1h,2023.2.3,Win32,60.60606061,65e67470ae2fbf2172c317b2,65e85ea8575cfed617fa39f4,,,,,,,,,,,1055.7718,1.2,1056.9715,1056.9716,1057.8112,left,1,0.838,,1057.8112,1058.8041,5,12,92,1,1,partial,1,images/Ex10.jpg,left,training,hard,2,,,,,
,,,,,644940c6c6b71b43c2f0d552,001,56,Female,British,Vocational,2024-03-06_12h18.45.243,CRL1h,2023.2.3,Win32,60.60606061,65e67470ae2fbf2172c317b2,65e85ea8575cfed617fa39f4,,,,,,,,,,,1058.805,1.2,1060.0029,1060.0029,1060.7336,left,1,0.7289,,1060.7337,1061.7364,5,13,93,0,1,partial,1,images/Ex9.jpg,left,training,hard,2,,,,,
,,,,,644940c6c6b71b43c2f0d552,001,56,Female,British,Vocational,2024-03-06_12h18.45.243,CRL1h,2023.2.3,Win32,60.60606061,65e67470ae2fbf2172c317b2,65e85ea8575cfed617fa39f4,,,,,,,,,,,1061.7368,0.8,1062.5362,1062.5362,1063.2872,right,1,0.7494,,1063.2873,1064.2851,5,14,94,12,1,partial,1,images/Ex13.jpg,right,training,hard,2,,,,,
,,,,,644940c6c6b71b43c2f0d552,001,56,Female,British,Vocational,2024-03-06_12h18.45.243,CRL1h,2023.2.3,Win32,60.60606061,65e67470ae2fbf2172c317b2,65e85ea8575cfed617fa39f4,,,,,,,,,,,1064.2856,0.8,1065.0847,1065.0847,1065.8198,left,1,0.7325,,1065.8198,1066.8176,5,15,95,9,1,partial,1,images/Ex10.jpg,left,training,hard,2,,,,,
,,,,,644940c6c6b71b43c2f0d552,001,56,Female,British,Vocational,2024-03-06_12h18.45.243,CRL1h,2023.2.3,Win32,60.60606061,65e67470ae2fbf2172c317b2,65e85ea8575cfed617fa39f4,,,,,,,,,,,1066.8185,0.6,1067.4188,1067.4189,1068.1688,left,1,0.746,,1068.1688,1069.1685,6,0,96,0,1,partial,1,images/Ex9.jpg,left,training,hard,2,,,,,
,,,,,644940c6c6b71b43c2f0d552,001,56,Female,British,Vocational,2024-03-06_12h18.45.243,CRL1h,2023.2.3,Win32,60.60606061,65e67470ae2fbf2172c317b2,65e85ea8575cfed617fa39f4,,,,,,,,,,,1069.1691,0.7,1069.8679,1069.8679,1070.6683,left,1,0.7961,,1070.6684,1071.6677,6,1,97,3,1,partial,1,images/Ex12.jpg,left,training,hard,2,,,,,
,,,,,644940c6c6b71b43c2f0d552,001,56,Female,British,Vocational,2024-03-06_12h18.45.243,CRL1h,2023.2.3,Win32,60.60606061,65e67470ae2fbf2172c317b2,65e85ea8575cfed617fa39f4,,,,,,,,,,,1071.6686,0.5,1072.1674,1072.1674,1072.984,right,1,0.8097,,1072.9841,1073.9832,6,2,98,13,1,partial,1,images/Ex14.jpg,right,training,hard,2,,,,,
,,,,,644940c6c6b71b43c2f0d552,001,56,Female,British,Vocational,2024-03-06_12h18.45.243,CRL1h,2023.2.3,Win32,60.60606061,65e67470ae2fbf2172c317b2,65e85ea8575cfed617fa39f4,,,,,,,,,,,1073.9841,1.2,1075.1837,1075.1838,1076.0341,right,1,0.8475,,1076.0341,1077.0329,6,3,99,4,1,partial,1,images/Ex13.jpg,right,training,hard,2,,,,,
,,,,,644940c6c6b71b43c2f0d552,001,56,Female,British,Vocational,2024-03-06_12h18.45.243,CRL1h,2023.2.3,Win32,60.60606061,65e67470ae2fbf2172c317b2,65e85ea8575cfed617fa39f4,,,,,,,,,,,1077.0334,1.2,1078.2324,1078.2325,1079.0511,right,1,0.8161,,1079.0511,1080.049,6,4,100,5,1,partial,1,images/Ex14.jpg,right,training,hard,2,,,,,
,,,,,644940c6c6b71b43c2f0d552,001,56,Female,British,Vocational,2024-03-06_12h18.45.243,CRL1h,2023.2.3,Win32,60.60606061,65e67470ae2fbf2172c317b2,65e85ea8575cfed617fa39f4,,,,,,,,,,,1080.0495,1.4,1081.4488,1081.4488,1082.1658,left,1,0.714,,1082.1658,1083.1646,6,5,101,1,1,partial,1,images/Ex10.jpg,left,training,hard,2,,,,,
,,,,,644940c6c6b71b43c2f0d552,001,56,Female,British,Vocational,2024-03-06_12h18.45.243,CRL1h,2023.2.3,Win32,60.60606061,65e67470ae2fbf2172c317b2,65e85ea8575cfed617fa39f4,,,,,,,,,,,1083.1651,0.7,1083.8656,1083.8657,1086.3485,left,0,2.4808,,1086.3487,1087.3465,6,6,102,14,1,partial,1,images/Ex15.jpg,right,training,hard,2,,,,,
,,,,,644940c6c6b71b43c2f0d552,001,56,Female,British,Vocational,2024-03-06_12h18.45.243,CRL1h,2023.2.3,Win32,60.60606061,65e67470ae2fbf2172c317b2,65e85ea8575cfed617fa39f4,,,,,,,,,,,1087.3601,0.9,1088.2635,1088.2635,1089.2153,left,1,0.9497,,1089.2153,1090.2128,6,7,103,8,1,partial,1,images/Ex9.jpg,left,training,hard,2,,,,,
,,,,,644940c6c6b71b43c2f0d552,001,56,Female,British,Vocational,2024-03-06_12h18.45.243,CRL1h,2023.2.3,Win32,60.60606061,65e67470ae2fbf2172c317b2,65e85ea8575cfed617fa39f4,,,,,,,,,,,1090.2134,0.6,1090.8138,1090.8138,1091.6966,right,1,0.8814,,1091.6969,1092.6915,6,8,104,7,1,partial,1,images/Ex16.jpg,right,training,hard,2,,,,,
,,,,,644940c6c6b71b43c2f0d552,001,56,Female,British,Vocational,2024-03-06_12h18.45.243,CRL1h,2023.2.3,Win32,60.60606061,65e67470ae2fbf2172c317b2,65e85ea8575cfed617fa39f4,,,,,,,,,,,1092.6935,1.4,1094.074,1094.074,1094.7305,right,1,0.6551,,1094.7307,1095.7296,6,9,105,12,1,partial,1,images/Ex13.jpg,right,training,hard,2,,,,,
,,,,,644940c6c6b71b43c2f0d552,001,56,Female,British,Vocational,2024-03-06_12h18.45.243,CRL1h,2023.2.3,Win32,60.60606061,65e67470ae2fbf2172c317b2,65e85ea8575cfed617fa39f4,,,,,,,,,,,1095.7307,1,1096.7293,1096.7294,1097.445,left,1,0.7101,,1097.4452,1098.4403,6,10,106,9,1,partial,1,images/Ex10.jpg,left,training,hard,2,,,,,
,,,,,644940c6c6b71b43c2f0d552,001,56,Female,British,Vocational,2024-03-06_12h18.45.243,CRL1h,2023.2.3,Win32,60.60606061,65e67470ae2fbf2172c317b2,65e85ea8575cfed617fa39f4,,,,,,,,,,,1098.442,0.7,1099.139,1099.1391,1100.0044,left,1,0.8628,,1100.0045,1100.9956,6,11,107,11,1,partial,1,images/Ex12.jpg,left,training,hard,2,,,,,
,,,,,644940c6c6b71b43c2f0d552,001,56,Female,British,Vocational,2024-03-06_12h18.45.243,CRL1h,2023.2.3,Win32,60.60606061,65e67470ae2fbf2172c317b2,65e85ea8575cfed617fa39f4,,,,,,,,,,,1100.9964,0.7,1101.6963,1101.6965,1102.2947,left,1,0.5955,,1102.2948,1103.2978,6,12,108,10,1,partial,1,images/Ex11.jpg,left,training,hard,2,,,,,
,,,,,644940c6c6b71b43c2f0d552,001,56,Female,British,Vocational,2024-03-06_12h18.45.243,CRL1h,2023.2.3,Win32,60.60606061,65e67470ae2fbf2172c317b2,65e85ea8575cfed617fa39f4,,,,,,,,,,,1103.3,0.8,1104.0931,1104.0931,1104.7432,left,1,0.6476,,1104.7433,1105.7425,6,13,109,2,1,partial,1,images/Ex11.jpg,left,training,hard,2,,,,,
,,,,,644940c6c6b71b43c2f0d552,001,56,Female,British,Vocational,2024-03-06_12h18.45.243,CRL1h,2023.2.3,Win32,60.60606061,65e67470ae2fbf2172c317b2,65e85ea8575cfed617fa39f4,,,,,,,,,,,1105.743,0.7,1106.444,1106.4441,1107.3006,left,0,0.8498,,1107.3006,1108.2934,6,14,110,6,1,partial,1,images/Ex15.jpg,right,training,hard,2,,,,,
,,,,,644940c6c6b71b43c2f0d552,001,56,Female,British,Vocational,2024-03-06_12h18.45.243,CRL1h,2023.2.3,Win32,60.60606061,65e67470ae2fbf2172c317b2,65e85ea8575cfed617fa39f4,,,,,,,,,,,1108.2945,0.7,1108.9865,1108.9865,1109.8745,right,1,0.8843,,1109.8745,1110.8745,6,15,111,15,1,partial,1,images/Ex16.jpg,right,training,hard,2,,,,,
,,,,,644940c6c6b71b43c2f0d552,001,56,Female,British,Vocational,2024-03-06_12h18.45.243,CRL1h,2023.2.3,Win32,60.60606061,65e67470ae2fbf2172c317b2,65e85ea8575cfed617fa39f4,,,,,,,,,,,1110.875,1.2,1112.0748,1112.075,1112.8102,right,1,0.7339,,1112.8103,1113.8072,7,0,112,13,1,partial,1,images/Ex14.jpg,right,training,hard,2,,,,,
,,,,,644940c6c6b71b43c2f0d552,001,56,Female,British,Vocational,2024-03-06_12h18.45.243,CRL1h,2023.2.3,Win32,60.60606061,65e67470ae2fbf2172c317b2,65e85ea8575cfed617fa39f4,,,,,,,,,,,1113.8077,1.3,1115.1071,1115.1072,1115.774,left,1,0.6641,,1115.774,1116.7734,7,1,113,1,1,partial,1,images/Ex10.jpg,left,training,hard,2,,,,,
,,,,,644940c6c6b71b43c2f0d552,001,56,Female,British,Vocational,2024-03-06_12h18.45.243,CRL1h,2023.2.3,Win32,60.60606061,65e67470ae2fbf2172c317b2,65e85ea8575cfed617fa39f4,,,,,,,,,,,1116.7738,1.1,1117.873,1117.873,1118.6416,left,1,0.7662,,1118.6417,1119.6386,7,2,114,3,1,partial,1,images/Ex12.jpg,left,training,hard,2,,,,,
,,,,,644940c6c6b71b43c2f0d552,001,56,Female,British,Vocational,2024-03-06_12h18.45.243,CRL1h,2023.2.3,Win32,60.60606061,65e67470ae2fbf2172c317b2,65e85ea8575cfed617fa39f4,,,,,,,,,,,1119.6396,1.3,1120.9419,1120.9419,1121.9068,right,1,0.9629,,1121.9068,1122.9053,7,3,115,7,1,partial,1,images/Ex16.jpg,right,training,hard,2,,,,,
,,,,,644940c6c6b71b43c2f0d552,001,56,Female,British,Vocational,2024-03-06_12h18.45.243,CRL1h,2023.2.3,Win32,60.60606061,65e67470ae2fbf2172c317b2,65e85ea8575cfed617fa39f4,,,,,,,,,,,1122.9064,0.6,1123.5042,1123.5042,1124.5564,left,1,1.0498,,1124.5564,1125.554,7,4,116,8,1,partial,1,images/Ex9.jpg,left,training,hard,2,,,,,
,,,,,644940c6c6b71b43c2f0d552,001,56,Female,British,Vocational,2024-03-06_12h18.45.243,CRL1h,2023.2.3,Win32,60.60606061,65e67470ae2fbf2172c317b2,65e85ea8575cfed617fa39f4,,,,,,,,,,,1125.5545,1.3,1126.8548,1126.8548,1127.5884,right,0,0.7315,,1127.5885,1128.5872,7,5,117,2,1,partial,1,images/Ex11.jpg,left,training,hard,2,,,,,
,,,,,644940c6c6b71b43c2f0d552,001,56,Female,British,Vocational,2024-03-06_12h18.45.243,CRL1h,2023.2.3,Win32,60.60606061,65e67470ae2fbf2172c317b2,65e85ea8575cfed617fa39f4,,,,,,,,,,,1128.5877,1.3,1129.8869,1129.887,1131.159,left,1,1.2689,,1131.1592,1132.1529,7,6,118,11,1,partial,1,images/Ex12.jpg,left,training,hard,2,,,,,
,,,,,644940c6c6b71b43c2f0d552,001,56,Female,British,Vocational,2024-03-06_12h18.45.243,CRL1h,2023.2.3,Win32,60.60606061,65e67470ae2fbf2172c317b2,65e85ea8575cfed617fa39f4,,,,,,,,,,,1132.1548,1,1133.1526,1133.1526,1134.1221,right,1,0.9664,,1134.1222,1135.1218,7,7,119,6,1,partial,1,images/Ex15.jpg,right,training,hard,2,,,,,
