infCons.started,infCons.stopped,resp_consent.keys,resp_consent.rt,resp_consent.duration,participant,session,Age?,Gender?,Nationality?,Highest Educational Degree?,date,expName,psychopyVersion,OS,frameRate,STUDY_ID,SESSION_ID,instructions.started,instructions.stopped,resp_instructions.keys,resp_instructions.rt,resp_instructions.duration,nextTask.started,nextTask.stopped,ready_task.keys,ready_task.rt,ready_task.duration,fixation.started,ITI,fixation.stopped,stim.started,stim.stopped,response.keys,response.corr,response.rt,response.duration,feedback.started,feedback.stopped,trials.thisRepN,trials.thisTrialN,trials.thisN,trials.thisIndex,trials.ran,task,phase,Exemplars,r_correct,condition,difficulty,set,end.started,end.stopped,resp_end.keys,resp_end.rt,resp_end.duration
0.0005,71.2065,space,71.1543,,652be58c7d5885fc2d4abe9e,001,64,female,British,Bachelor Degree,2024-03-06_16h32.11.137,CRL1h,2023.2.3,Win32,60.24096386,65e67470ae2fbf2172c317b2,65e87da09988e2eb938ce968,,,,,,,,,,,,,,,,,,,,,,,,,,,,,,,,,,,,,,
,,,,,652be58c7d5885fc2d4abe9e,001,64,female,British,Bachelor Degree,2024-03-06_16h32.11.137,CRL1h,2023.2.3,Win32,60.24096386,65e67470ae2fbf2172c317b2,65e87da09988e2eb938ce968,71.2066,128.5467,space,57.3248,,,,,,,,,,,,,,,,,,,,,,,,,,,,,,,,,,
,,,,,652be58c7d5885fc2d4abe9e,001,64,female,British,Bachelor Degree,2024-03-06_16h32.11.137,CRL1h,2023.2.3,Win32,60.24096386,65e67470ae2fbf2172c317b2,65e87da09988e2eb938ce968,,,,,,128.5768,134.3899,space,5.8006,,134.4237,1,135.4202,135.4209,141.1644,left,1,5.7245,,141.1741,142.1629,0,0,0,1,1,total,1,images/Ex10.jpg,left,training,hard,3,,,,,
,,,,,652be58c7d5885fc2d4abe9e,001,64,female,British,Bachelor Degree,2024-03-06_16h32.11.137,CRL1h,2023.2.3,Win32,60.24096386,65e67470ae2fbf2172c317b2,65e87da09988e2eb938ce968,,,,,,,,,,,142.1638,1.3,143.462,143.4622,146.5926,left,1,3.123,,146.593,147.5907,0,1,1,0,1,total,1,images/Ex9.jpg,left,training,hard,3,,,,,
,,,,,652be58c7d5885fc2d4abe9e,001,64,female,British,Bachelor Degree,2024-03-06_16h32.11.137,CRL1h,2023.2.3,Win32,60.24096386,65e67470ae2fbf2172c317b2,65e87da09988e2eb938ce968,,,,,,,,,,,147.5917,1.3,148.8892,148.8892,151.1206,left,0,2.223,,151.1208,152.1191,0,2,2,13,1,total,1,images/Ex14.jpg,right,training,hard,3,,,,,
,,,,,652be58c7d5885fc2d4abe9e,001,64,female,British,Bachelor Degree,2024-03-06_16h32.11.137,CRL1h,2023.2.3,Win32,60.24096386,65e67470ae2fbf2172c317b2,65e87da09988e2eb938ce968,,,,,,,,,,,152.1201,0.9,153.0185,153.0187,154.5009,right,1,1.4781,,154.501,155.4995,0,3,3,5,1,total,1,images/Ex14.jpg,right,training,hard,3,,,,,
,,,,,652be58c7d5885fc2d4abe9e,001,64,female,British,Bachelor Degree,2024-03-06_16h32.11.137,CRL1h,2023.2.3,Win32,60.24096386,65e67470ae2fbf2172c317b2,65e87da09988e2eb938ce968,,,,,,,,,,,155.501,0.7,156.1991,156.1993,157.9657,left,0,1.7541,,157.9658,158.9631,0,4,4,7,1,total,1,images/Ex16.jpg,right,training,hard,3,,,,,
,,,,,652be58c7d5885fc2d4abe9e,001,64,female,British,Bachelor Degree,2024-03-06_16h32.11.137,CRL1h,2023.2.3,Win32,60.24096386,65e67470ae2fbf2172c317b2,65e87da09988e2eb938ce968,,,,,,,,,,,158.9862,0.7,159.6786,159.6787,161.2951,right,0,1.6058,,161.2953,162.292,0,5,5,3,1,total,1,images/Ex12.jpg,left,training,hard,3,,,,,
,,,,,652be58c7d5885fc2d4abe9e,001,64,female,British,Bachelor Degree,2024-03-06_16h32.11.137,CRL1h,2023.2.3,Win32,60.24096386,65e67470ae2fbf2172c317b2,65e87da09988e2eb938ce968,,,,,,,,,,,162.2929,1.1,163.3915,163.3917,164.3075,left,1,0.9026,,164.3077,165.3059,0,6,6,8,1,total,1,images/Ex9.jpg,left,training,hard,3,,,,,
,,,,,652be58c7d5885fc2d4abe9e,001,64,female,British,Bachelor Degree,2024-03-06_16h32.11.137,CRL1h,2023.2.3,Win32,60.24096386,65e67470ae2fbf2172c317b2,65e87da09988e2eb938ce968,,,,,,,,,,,165.3069,0.7,166.0054,166.0055,167.072,left,1,1.0614,,167.0728,168.0703,0,7,7,9,1,total,1,images/Ex10.jpg,left,training,hard,3,,,,,
,,,,,652be58c7d5885fc2d4abe9e,001,64,female,British,Bachelor Degree,2024-03-06_16h32.11.137,CRL1h,2023.2.3,Win32,60.24096386,65e67470ae2fbf2172c317b2,65e87da09988e2eb938ce968,,,,,,,,,,,168.0717,0.8,168.8688,168.8688,170.0368,right,0,1.1599,,170.0369,171.0337,0,8,8,10,1,total,1,images/Ex11.jpg,left,training,hard,3,,,,,
,,,,,652be58c7d5885fc2d4abe9e,001,64,female,British,Bachelor Degree,2024-03-06_16h32.11.137,CRL1h,2023.2.3,Win32,60.24096386,65e67470ae2fbf2172c317b2,65e87da09988e2eb938ce968,,,,,,,,,,,171.0349,1.4,172.4325,172.4325,173.3153,left,0,0.8687,,173.3154,174.313,0,9,9,15,1,total,1,images/Ex16.jpg,right,training,hard,3,,,,,
,,,,,652be58c7d5885fc2d4abe9e,001,64,female,British,Bachelor Degree,2024-03-06_16h32.11.137,CRL1h,2023.2.3,Win32,60.24096386,65e67470ae2fbf2172c317b2,65e87da09988e2eb938ce968,,,,,,,,,,,174.3137,1.1,175.412,175.412,176.3123,right,1,0.8895,,176.3124,177.3106,0,10,10,14,1,total,1,images/Ex15.jpg,right,training,hard,3,,,,,
,,,,,652be58c7d5885fc2d4abe9e,001,64,female,British,Bachelor Degree,2024-03-06_16h32.11.137,CRL1h,2023.2.3,Win32,60.24096386,65e67470ae2fbf2172c317b2,65e87da09988e2eb938ce968,,,,,,,,,,,177.3116,1,178.3101,178.3102,179.3097,left,1,0.992,,179.3099,180.3092,0,11,11,11,1,total,1,images/Ex12.jpg,left,training,hard,3,,,,,
,,,,,652be58c7d5885fc2d4abe9e,001,64,female,British,Bachelor Degree,2024-03-06_16h32.11.137,CRL1h,2023.2.3,Win32,60.24096386,65e67470ae2fbf2172c317b2,65e87da09988e2eb938ce968,,,,,,,,,,,180.3099,0.8,181.1083,181.1084,181.9058,right,0,0.7892,,181.906,182.9057,0,12,12,2,1,total,1,images/Ex11.jpg,left,training,hard,3,,,,,
,,,,,652be58c7d5885fc2d4abe9e,001,64,female,British,Bachelor Degree,2024-03-06_16h32.11.137,CRL1h,2023.2.3,Win32,60.24096386,65e67470ae2fbf2172c317b2,65e87da09988e2eb938ce968,,,,,,,,,,,182.907,1.2,184.1034,184.1034,184.9369,left,0,0.8252,,184.9369,185.9351,0,13,13,4,1,total,1,images/Ex13.jpg,right,training,hard,3,,,,,
,,,,,652be58c7d5885fc2d4abe9e,001,64,female,British,Bachelor Degree,2024-03-06_16h32.11.137,CRL1h,2023.2.3,Win32,60.24096386,65e67470ae2fbf2172c317b2,65e87da09988e2eb938ce968,,,,,,,,,,,185.9362,0.7,186.6343,186.6345,187.4506,right,1,0.8052,,187.4507,188.4498,0,14,14,6,1,total,1,images/Ex15.jpg,right,training,hard,3,,,,,
,,,,,652be58c7d5885fc2d4abe9e,001,64,female,British,Bachelor Degree,2024-03-06_16h32.11.137,CRL1h,2023.2.3,Win32,60.24096386,65e67470ae2fbf2172c317b2,65e87da09988e2eb938ce968,,,,,,,,,,,188.4519,1.5,189.9481,189.9483,190.6158,right,1,0.6555,,190.6159,191.6126,0,15,15,12,1,total,1,images/Ex13.jpg,right,training,hard,3,,,,,
,,,,,652be58c7d5885fc2d4abe9e,001,64,female,British,Bachelor Degree,2024-03-06_16h32.11.137,CRL1h,2023.2.3,Win32,60.24096386,65e67470ae2fbf2172c317b2,65e87da09988e2eb938ce968,,,,,,,,,,,191.6136,1.1,192.712,192.712,193.6458,left,0,0.9249,,193.6459,194.6435,1,0,16,7,1,total,1,images/Ex16.jpg,right,training,hard,3,,,,,
,,,,,652be58c7d5885fc2d4abe9e,001,64,female,British,Bachelor Degree,2024-03-06_16h32.11.137,CRL1h,2023.2.3,Win32,60.24096386,65e67470ae2fbf2172c317b2,65e87da09988e2eb938ce968,,,,,,,,,,,194.6454,0.9,195.5427,195.5429,196.159,right,1,0.61,,196.1594,197.1578,1,1,17,5,1,total,1,images/Ex14.jpg,right,training,hard,3,,,,,
,,,,,652be58c7d5885fc2d4abe9e,001,64,female,British,Bachelor Degree,2024-03-06_16h32.11.137,CRL1h,2023.2.3,Win32,60.24096386,65e67470ae2fbf2172c317b2,65e87da09988e2eb938ce968,,,,,,,,,,,197.1592,0.8,197.9567,197.9568,198.8229,left,1,0.8528,,198.823,199.8217,1,2,18,9,1,total,1,images/Ex10.jpg,left,training,hard,3,,,,,
,,,,,652be58c7d5885fc2d4abe9e,001,64,female,British,Bachelor Degree,2024-03-06_16h32.11.137,CRL1h,2023.2.3,Win32,60.24096386,65e67470ae2fbf2172c317b2,65e87da09988e2eb938ce968,,,,,,,,,,,199.8232,1.3,201.1196,201.1197,201.7385,right,1,0.6156,,201.7386,202.7351,1,3,19,15,1,total,1,images/Ex16.jpg,right,training,hard,3,,,,,
,,,,,652be58c7d5885fc2d4abe9e,001,64,female,British,Bachelor Degree,2024-03-06_16h32.11.137,CRL1h,2023.2.3,Win32,60.24096386,65e67470ae2fbf2172c317b2,65e87da09988e2eb938ce968,,,,,,,,,,,202.7366,0.6,203.335,203.3352,204.2515,right,0,0.913,,204.2515,205.2495,1,4,20,11,1,total,1,images/Ex12.jpg,left,training,hard,3,,,,,
,,,,,652be58c7d5885fc2d4abe9e,001,64,female,British,Bachelor Degree,2024-03-06_16h32.11.137,CRL1h,2023.2.3,Win32,60.24096386,65e67470ae2fbf2172c317b2,65e87da09988e2eb938ce968,,,,,,,,,,,205.251,0.8,206.0479,206.0479,206.8142,left,1,0.7575,,206.8143,207.8126,1,5,21,0,1,total,1,images/Ex9.jpg,left,training,hard,3,,,,,
,,,,,652be58c7d5885fc2d4abe9e,001,64,female,British,Bachelor Degree,2024-03-06_16h32.11.137,CRL1h,2023.2.3,Win32,60.24096386,65e67470ae2fbf2172c317b2,65e87da09988e2eb938ce968,,,,,,,,,,,207.8132,1.4,209.2114,209.2114,209.9955,right,1,0.7749,,209.9959,210.9948,1,6,22,14,1,total,1,images/Ex15.jpg,right,training,hard,3,,,,,
,,,,,652be58c7d5885fc2d4abe9e,001,64,female,British,Bachelor Degree,2024-03-06_16h32.11.137,CRL1h,2023.2.3,Win32,60.24096386,65e67470ae2fbf2172c317b2,65e87da09988e2eb938ce968,,,,,,,,,,,210.9958,0.6,211.5931,211.5932,212.2755,left,1,0.6729,,212.2757,213.2749,1,7,23,8,1,total,1,images/Ex9.jpg,left,training,hard,3,,,,,
,,,,,652be58c7d5885fc2d4abe9e,001,64,female,British,Bachelor Degree,2024-03-06_16h32.11.137,CRL1h,2023.2.3,Win32,60.24096386,65e67470ae2fbf2172c317b2,65e87da09988e2eb938ce968,,,,,,,,,,,213.2767,1,214.2737,214.2739,215.023,left,0,0.7396,,215.0231,216.0219,1,8,24,12,1,total,1,images/Ex13.jpg,right,training,hard,3,,,,,
,,,,,652be58c7d5885fc2d4abe9e,001,64,female,British,Bachelor Degree,2024-03-06_16h32.11.137,CRL1h,2023.2.3,Win32,60.24096386,65e67470ae2fbf2172c317b2,65e87da09988e2eb938ce968,,,,,,,,,,,216.0234,0.6,216.6208,216.6208,217.4051,right,0,0.7763,,217.4052,218.4028,1,9,25,3,1,total,1,images/Ex12.jpg,left,training,hard,3,,,,,
,,,,,652be58c7d5885fc2d4abe9e,001,64,female,British,Bachelor Degree,2024-03-06_16h32.11.137,CRL1h,2023.2.3,Win32,60.24096386,65e67470ae2fbf2172c317b2,65e87da09988e2eb938ce968,,,,,,,,,,,218.4046,1,219.4023,219.4024,220.4193,left,0,1.0074,,220.4194,221.4162,1,10,26,4,1,total,1,images/Ex13.jpg,right,training,hard,3,,,,,
,,,,,652be58c7d5885fc2d4abe9e,001,64,female,British,Bachelor Degree,2024-03-06_16h32.11.137,CRL1h,2023.2.3,Win32,60.24096386,65e67470ae2fbf2172c317b2,65e87da09988e2eb938ce968,,,,,,,,,,,221.4172,1.4,222.8153,222.8155,223.7318,right,0,0.9094,,223.732,224.73,1,11,27,10,1,total,1,images/Ex11.jpg,left,training,hard,3,,,,,
,,,,,652be58c7d5885fc2d4abe9e,001,64,female,British,Bachelor Degree,2024-03-06_16h32.11.137,CRL1h,2023.2.3,Win32,60.24096386,65e67470ae2fbf2172c317b2,65e87da09988e2eb938ce968,,,,,,,,,,,224.7314,1.1,225.8287,225.8289,226.7298,left,1,0.8933,,226.7299,227.7264,1,12,28,1,1,total,1,images/Ex10.jpg,left,training,hard,3,,,,,
,,,,,652be58c7d5885fc2d4abe9e,001,64,female,British,Bachelor Degree,2024-03-06_16h32.11.137,CRL1h,2023.2.3,Win32,60.24096386,65e67470ae2fbf2172c317b2,65e87da09988e2eb938ce968,,,,,,,,,,,227.7274,1.4,229.1254,229.1255,229.9093,left,1,0.7759,,229.9094,230.9071,1,13,29,2,1,total,1,images/Ex11.jpg,left,training,hard,3,,,,,
,,,,,652be58c7d5885fc2d4abe9e,001,64,female,British,Bachelor Degree,2024-03-06_16h32.11.137,CRL1h,2023.2.3,Win32,60.24096386,65e67470ae2fbf2172c317b2,65e87da09988e2eb938ce968,,,,,,,,,,,230.9085,1.4,232.3054,232.3055,233.2398,left,0,0.927,,233.2399,234.2368,1,14,30,13,1,total,1,images/Ex14.jpg,right,training,hard,3,,,,,
,,,,,652be58c7d5885fc2d4abe9e,001,64,female,British,Bachelor Degree,2024-03-06_16h32.11.137,CRL1h,2023.2.3,Win32,60.24096386,65e67470ae2fbf2172c317b2,65e87da09988e2eb938ce968,,,,,,,,,,,234.2381,0.6,234.8361,234.8363,235.6858,right,1,0.8419,,235.6862,236.6849,1,15,31,6,1,total,1,images/Ex15.jpg,right,training,hard,3,,,,,
,,,,,652be58c7d5885fc2d4abe9e,001,64,female,British,Bachelor Degree,2024-03-06_16h32.11.137,CRL1h,2023.2.3,Win32,60.24096386,65e67470ae2fbf2172c317b2,65e87da09988e2eb938ce968,,,,,,,,,,,236.6863,0.8,237.4835,237.4837,238.3997,left,1,0.9074,,238.3999,239.3976,2,0,32,11,1,total,1,images/Ex12.jpg,left,training,hard,3,,,,,
,,,,,652be58c7d5885fc2d4abe9e,001,64,female,British,Bachelor Degree,2024-03-06_16h32.11.137,CRL1h,2023.2.3,Win32,60.24096386,65e67470ae2fbf2172c317b2,65e87da09988e2eb938ce968,,,,,,,,,,,239.3982,0.8,240.1968,240.1968,240.9801,left,1,0.7749,,240.9801,241.9784,2,1,33,0,1,total,1,images/Ex9.jpg,left,training,hard,3,,,,,
,,,,,652be58c7d5885fc2d4abe9e,001,64,female,British,Bachelor Degree,2024-03-06_16h32.11.137,CRL1h,2023.2.3,Win32,60.24096386,65e67470ae2fbf2172c317b2,65e87da09988e2eb938ce968,,,,,,,,,,,241.9791,0.7,242.678,242.678,243.5281,right,0,0.8437,,243.5286,244.5267,2,2,34,10,1,total,1,images/Ex11.jpg,left,training,hard,3,,,,,
,,,,,652be58c7d5885fc2d4abe9e,001,64,female,British,Bachelor Degree,2024-03-06_16h32.11.137,CRL1h,2023.2.3,Win32,60.24096386,65e67470ae2fbf2172c317b2,65e87da09988e2eb938ce968,,,,,,,,,,,244.5283,0.6,245.126,245.1261,245.959,left,1,0.8237,,245.959,246.957,2,3,35,8,1,total,1,images/Ex9.jpg,left,training,hard,3,,,,,
,,,,,652be58c7d5885fc2d4abe9e,001,64,female,British,Bachelor Degree,2024-03-06_16h32.11.137,CRL1h,2023.2.3,Win32,60.24096386,65e67470ae2fbf2172c317b2,65e87da09988e2eb938ce968,,,,,,,,,,,246.9581,0.8,247.7569,247.757,248.5228,right,1,0.7613,,248.523,249.5217,2,4,36,14,1,total,1,images/Ex15.jpg,right,training,hard,3,,,,,
,,,,,652be58c7d5885fc2d4abe9e,001,64,female,British,Bachelor Degree,2024-03-06_16h32.11.137,CRL1h,2023.2.3,Win32,60.24096386,65e67470ae2fbf2172c317b2,65e87da09988e2eb938ce968,,,,,,,,,,,249.5233,1,250.5207,250.5208,251.4209,left,1,0.8914,,251.421,252.4188,2,5,37,1,1,total,1,images/Ex10.jpg,left,training,hard,3,,,,,
,,,,,652be58c7d5885fc2d4abe9e,001,64,female,British,Bachelor Degree,2024-03-06_16h32.11.137,CRL1h,2023.2.3,Win32,60.24096386,65e67470ae2fbf2172c317b2,65e87da09988e2eb938ce968,,,,,,,,,,,252.4202,1.1,253.5171,253.5172,254.6502,left,0,1.1216,,254.6502,255.6489,2,6,38,12,1,total,1,images/Ex13.jpg,right,training,hard,3,,,,,
,,,,,652be58c7d5885fc2d4abe9e,001,64,female,British,Bachelor Degree,2024-03-06_16h32.11.137,CRL1h,2023.2.3,Win32,60.24096386,65e67470ae2fbf2172c317b2,65e87da09988e2eb938ce968,,,,,,,,,,,255.6504,1.4,257.0474,257.0474,258.0139,left,0,0.9536,,258.0139,259.0116,2,7,39,15,1,total,1,images/Ex16.jpg,right,training,hard,3,,,,,
,,,,,652be58c7d5885fc2d4abe9e,001,64,female,British,Bachelor Degree,2024-03-06_16h32.11.137,CRL1h,2023.2.3,Win32,60.24096386,65e67470ae2fbf2172c317b2,65e87da09988e2eb938ce968,,,,,,,,,,,259.0126,0.5,259.512,259.5123,260.7119,left,1,1.1941,,260.712,261.7095,2,8,40,9,1,total,1,images/Ex10.jpg,left,training,hard,3,,,,,
,,,,,652be58c7d5885fc2d4abe9e,001,64,female,British,Bachelor Degree,2024-03-06_16h32.11.137,CRL1h,2023.2.3,Win32,60.24096386,65e67470ae2fbf2172c317b2,65e87da09988e2eb938ce968,,,,,,,,,,,261.7109,1.1,262.8083,262.8083,263.4919,right,1,0.6757,,263.4919,264.49,2,9,41,6,1,total,1,images/Ex15.jpg,right,training,hard,3,,,,,
,,,,,652be58c7d5885fc2d4abe9e,001,64,female,British,Bachelor Degree,2024-03-06_16h32.11.137,CRL1h,2023.2.3,Win32,60.24096386,65e67470ae2fbf2172c317b2,65e87da09988e2eb938ce968,,,,,,,,,,,264.4909,1.2,265.6898,265.6899,266.4069,right,0,0.7084,,266.407,267.4046,2,10,42,2,1,total,1,images/Ex11.jpg,left,training,hard,3,,,,,
,,,,,652be58c7d5885fc2d4abe9e,001,64,female,British,Bachelor Degree,2024-03-06_16h32.11.137,CRL1h,2023.2.3,Win32,60.24096386,65e67470ae2fbf2172c317b2,65e87da09988e2eb938ce968,,,,,,,,,,,267.4056,0.7,268.1036,268.1037,269.2027,right,1,1.0904,,269.2027,270.2008,2,11,43,4,1,total,1,images/Ex13.jpg,right,training,hard,3,,,,,
,,,,,652be58c7d5885fc2d4abe9e,001,64,female,British,Bachelor Degree,2024-03-06_16h32.11.137,CRL1h,2023.2.3,Win32,60.24096386,65e67470ae2fbf2172c317b2,65e87da09988e2eb938ce968,,,,,,,,,,,270.2018,0.9,271.1004,271.1005,271.8172,right,1,0.7077,,271.8172,272.8145,2,12,44,7,1,total,1,images/Ex16.jpg,right,training,hard,3,,,,,
,,,,,652be58c7d5885fc2d4abe9e,001,64,female,British,Bachelor Degree,2024-03-06_16h32.11.137,CRL1h,2023.2.3,Win32,60.24096386,65e67470ae2fbf2172c317b2,65e87da09988e2eb938ce968,,,,,,,,,,,272.815,1.4,274.2133,274.2133,274.8963,right,0,0.6753,,274.8964,275.8945,2,13,45,3,1,total,1,images/Ex12.jpg,left,training,hard,3,,,,,
,,,,,652be58c7d5885fc2d4abe9e,001,64,female,British,Bachelor Degree,2024-03-06_16h32.11.137,CRL1h,2023.2.3,Win32,60.24096386,65e67470ae2fbf2172c317b2,65e87da09988e2eb938ce968,,,,,,,,,,,275.8951,0.6,276.4958,276.496,277.3952,right,1,0.8932,,277.3952,278.3935,2,14,46,5,1,total,1,images/Ex14.jpg,right,training,hard,3,,,,,
,,,,,652be58c7d5885fc2d4abe9e,001,64,female,British,Bachelor Degree,2024-03-06_16h32.11.137,CRL1h,2023.2.3,Win32,60.24096386,65e67470ae2fbf2172c317b2,65e87da09988e2eb938ce968,,,,,,,,,,,278.3947,1.1,279.4927,279.4928,280.3082,right,1,0.8106,,280.3083,281.3065,2,15,47,13,1,total,1,images/Ex14.jpg,right,training,hard,3,,,,,
,,,,,652be58c7d5885fc2d4abe9e,001,64,female,British,Bachelor Degree,2024-03-06_16h32.11.137,CRL1h,2023.2.3,Win32,60.24096386,65e67470ae2fbf2172c317b2,65e87da09988e2eb938ce968,,,,,,,,,,,281.3072,0.9,282.2062,282.2063,282.8227,right,1,0.6126,,282.8228,283.8214,3,0,48,5,1,total,1,images/Ex14.jpg,right,training,hard,3,,,,,
,,,,,652be58c7d5885fc2d4abe9e,001,64,female,British,Bachelor Degree,2024-03-06_16h32.11.137,CRL1h,2023.2.3,Win32,60.24096386,65e67470ae2fbf2172c317b2,65e87da09988e2eb938ce968,,,,,,,,,,,283.8222,1,284.82,284.8205,285.6055,left,1,0.7821,,285.6056,286.6008,3,1,49,2,1,total,1,images/Ex11.jpg,left,training,hard,3,,,,,
,,,,,652be58c7d5885fc2d4abe9e,001,64,female,British,Bachelor Degree,2024-03-06_16h32.11.137,CRL1h,2023.2.3,Win32,60.24096386,65e67470ae2fbf2172c317b2,65e87da09988e2eb938ce968,,,,,,,,,,,286.6021,1.1,287.7011,287.7012,288.5666,right,1,0.863,,288.5666,289.5662,3,2,50,14,1,total,1,images/Ex15.jpg,right,training,hard,3,,,,,
,,,,,652be58c7d5885fc2d4abe9e,001,64,female,British,Bachelor Degree,2024-03-06_16h32.11.137,CRL1h,2023.2.3,Win32,60.24096386,65e67470ae2fbf2172c317b2,65e87da09988e2eb938ce968,,,,,,,,,,,289.5671,1.4,290.9637,290.9638,291.799,left,0,0.8335,,291.7991,292.7944,3,3,51,6,1,total,1,images/Ex15.jpg,right,training,hard,3,,,,,
,,,,,652be58c7d5885fc2d4abe9e,001,64,female,British,Bachelor Degree,2024-03-06_16h32.11.137,CRL1h,2023.2.3,Win32,60.24096386,65e67470ae2fbf2172c317b2,65e87da09988e2eb938ce968,,,,,,,,,,,292.7951,0.6,293.3957,293.3957,294.3963,left,1,0.9922,,294.3966,295.3934,3,4,52,9,1,total,1,images/Ex10.jpg,left,training,hard,3,,,,,
,,,,,652be58c7d5885fc2d4abe9e,001,64,female,British,Bachelor Degree,2024-03-06_16h32.11.137,CRL1h,2023.2.3,Win32,60.24096386,65e67470ae2fbf2172c317b2,65e87da09988e2eb938ce968,,,,,,,,,,,295.3944,1.3,296.6913,296.6913,297.9071,left,0,1.2105,,297.9072,298.9059,3,5,53,15,1,total,1,images/Ex16.jpg,right,training,hard,3,,,,,
,,,,,652be58c7d5885fc2d4abe9e,001,64,female,British,Bachelor Degree,2024-03-06_16h32.11.137,CRL1h,2023.2.3,Win32,60.24096386,65e67470ae2fbf2172c317b2,65e87da09988e2eb938ce968,,,,,,,,,,,298.9071,1,299.9057,299.9058,301.1384,left,1,1.2274,,301.1384,302.1366,3,6,54,1,1,total,1,images/Ex10.jpg,left,training,hard,3,,,,,
,,,,,652be58c7d5885fc2d4abe9e,001,64,female,British,Bachelor Degree,2024-03-06_16h32.11.137,CRL1h,2023.2.3,Win32,60.24096386,65e67470ae2fbf2172c317b2,65e87da09988e2eb938ce968,,,,,,,,,,,302.1374,1.5,303.6345,303.6346,304.4687,right,1,0.8326,,304.4688,305.4657,3,7,55,12,1,total,1,images/Ex13.jpg,right,training,hard,3,,,,,
,,,,,652be58c7d5885fc2d4abe9e,001,64,female,British,Bachelor Degree,2024-03-06_16h32.11.137,CRL1h,2023.2.3,Win32,60.24096386,65e67470ae2fbf2172c317b2,65e87da09988e2eb938ce968,,,,,,,,,,,305.4662,1.2,306.6637,306.6638,307.5302,right,0,0.8594,,307.5303,308.5286,3,8,56,10,1,total,1,images/Ex11.jpg,left,training,hard,3,,,,,
,,,,,652be58c7d5885fc2d4abe9e,001,64,female,British,Bachelor Degree,2024-03-06_16h32.11.137,CRL1h,2023.2.3,Win32,60.24096386,65e67470ae2fbf2172c317b2,65e87da09988e2eb938ce968,,,,,,,,,,,308.5292,1.3,309.8285,309.8287,310.8278,right,1,0.9916,,310.8278,311.8266,3,9,57,13,1,total,1,images/Ex14.jpg,right,training,hard,3,,,,,
,,,,,652be58c7d5885fc2d4abe9e,001,64,female,British,Bachelor Degree,2024-03-06_16h32.11.137,CRL1h,2023.2.3,Win32,60.24096386,65e67470ae2fbf2172c317b2,65e87da09988e2eb938ce968,,,,,,,,,,,311.8274,0.6,312.4264,312.4266,313.4578,left,1,1.0289,,313.4579,314.4569,3,10,58,8,1,total,1,images/Ex9.jpg,left,training,hard,3,,,,,
,,,,,652be58c7d5885fc2d4abe9e,001,64,female,British,Bachelor Degree,2024-03-06_16h32.11.137,CRL1h,2023.2.3,Win32,60.24096386,65e67470ae2fbf2172c317b2,65e87da09988e2eb938ce968,,,,,,,,,,,314.4579,0.7,315.1567,315.1568,315.9397,left,1,0.7817,,315.9398,316.9381,3,11,59,0,1,total,1,images/Ex9.jpg,left,training,hard,3,,,,,
,,,,,652be58c7d5885fc2d4abe9e,001,64,female,British,Bachelor Degree,2024-03-06_16h32.11.137,CRL1h,2023.2.3,Win32,60.24096386,65e67470ae2fbf2172c317b2,65e87da09988e2eb938ce968,,,,,,,,,,,316.9393,1.4,318.3368,318.3369,319.0056,left,0,0.6666,,319.0058,320.0007,3,12,60,4,1,total,1,images/Ex13.jpg,right,training,hard,3,,,,,
,,,,,652be58c7d5885fc2d4abe9e,001,64,female,British,Bachelor Degree,2024-03-06_16h32.11.137,CRL1h,2023.2.3,Win32,60.24096386,65e67470ae2fbf2172c317b2,65e87da09988e2eb938ce968,,,,,,,,,,,320.0024,1,320.9999,321,322.1674,left,1,1.1582,,322.1676,323.1639,3,13,61,11,1,total,1,images/Ex12.jpg,left,training,hard,3,,,,,
,,,,,652be58c7d5885fc2d4abe9e,001,64,female,British,Bachelor Degree,2024-03-06_16h32.11.137,CRL1h,2023.2.3,Win32,60.24096386,65e67470ae2fbf2172c317b2,65e87da09988e2eb938ce968,,,,,,,,,,,323.1791,1.3,324.4789,324.479,325.1624,right,1,0.6721,,325.1624,326.1612,3,14,62,7,1,total,1,images/Ex16.jpg,right,training,hard,3,,,,,
,,,,,652be58c7d5885fc2d4abe9e,001,64,female,British,Bachelor Degree,2024-03-06_16h32.11.137,CRL1h,2023.2.3,Win32,60.24096386,65e67470ae2fbf2172c317b2,65e87da09988e2eb938ce968,,,,,,,,,,,326.1624,1.1,327.2599,327.2601,328.1944,left,1,0.9241,,328.1946,329.1911,3,15,63,3,1,total,1,images/Ex12.jpg,left,training,hard,3,,,,,
,,,,,652be58c7d5885fc2d4abe9e,001,64,female,British,Bachelor Degree,2024-03-06_16h32.11.137,CRL1h,2023.2.3,Win32,60.24096386,65e67470ae2fbf2172c317b2,65e87da09988e2eb938ce968,,,,,,,,,,,329.1924,0.8,329.991,329.991,330.974,right,1,0.9794,,330.9741,331.9736,4,0,64,6,1,total,1,images/Ex15.jpg,right,training,hard,3,,,,,
,,,,,652be58c7d5885fc2d4abe9e,001,64,female,British,Bachelor Degree,2024-03-06_16h32.11.137,CRL1h,2023.2.3,Win32,60.24096386,65e67470ae2fbf2172c317b2,65e87da09988e2eb938ce968,,,,,,,,,,,331.9748,1.5,333.4709,333.4711,334.2379,left,1,0.7572,,334.2379,335.2355,4,1,65,3,1,total,1,images/Ex12.jpg,left,training,hard,3,,,,,
,,,,,652be58c7d5885fc2d4abe9e,001,64,female,British,Bachelor Degree,2024-03-06_16h32.11.137,CRL1h,2023.2.3,Win32,60.24096386,65e67470ae2fbf2172c317b2,65e87da09988e2eb938ce968,,,,,,,,,,,335.237,0.8,336.0344,336.0344,337.1839,right,1,1.1409,,337.1839,338.1827,4,2,66,7,1,total,1,images/Ex16.jpg,right,training,hard,3,,,,,
,,,,,652be58c7d5885fc2d4abe9e,001,64,female,British,Bachelor Degree,2024-03-06_16h32.11.137,CRL1h,2023.2.3,Win32,60.24096386,65e67470ae2fbf2172c317b2,65e87da09988e2eb938ce968,,,,,,,,,,,338.1847,1.2,339.3806,339.3807,340.0973,left,1,0.7117,,340.0973,341.0953,4,3,67,11,1,total,1,images/Ex12.jpg,left,training,hard,3,,,,,
,,,,,652be58c7d5885fc2d4abe9e,001,64,female,British,Bachelor Degree,2024-03-06_16h32.11.137,CRL1h,2023.2.3,Win32,60.24096386,65e67470ae2fbf2172c317b2,65e87da09988e2eb938ce968,,,,,,,,,,,341.096,0.6,341.6949,341.695,342.6607,right,0,0.9629,,342.6608,343.6605,4,4,68,8,1,total,1,images/Ex9.jpg,left,training,hard,3,,,,,
,,,,,652be58c7d5885fc2d4abe9e,001,64,female,British,Bachelor Degree,2024-03-06_16h32.11.137,CRL1h,2023.2.3,Win32,60.24096386,65e67470ae2fbf2172c317b2,65e87da09988e2eb938ce968,,,,,,,,,,,343.6619,1.4,345.0583,345.0584,346.0427,left,1,0.9777,,346.0427,347.0403,4,5,69,0,1,total,1,images/Ex9.jpg,left,training,hard,3,,,,,
,,,,,652be58c7d5885fc2d4abe9e,001,64,female,British,Bachelor Degree,2024-03-06_16h32.11.137,CRL1h,2023.2.3,Win32,60.24096386,65e67470ae2fbf2172c317b2,65e87da09988e2eb938ce968,,,,,,,,,,,347.0417,1.1,348.1392,348.1392,349.189,left,0,1.0393,,349.1891,350.1871,4,6,70,12,1,total,1,images/Ex13.jpg,right,training,hard,3,,,,,
,,,,,652be58c7d5885fc2d4abe9e,001,64,female,British,Bachelor Degree,2024-03-06_16h32.11.137,CRL1h,2023.2.3,Win32,60.24096386,65e67470ae2fbf2172c317b2,65e87da09988e2eb938ce968,,,,,,,,,,,350.1885,0.8,350.9862,350.9863,352.2199,left,0,1.2227,,352.2201,353.2172,4,7,71,15,1,total,1,images/Ex16.jpg,right,training,hard,3,,,,,
,,,,,652be58c7d5885fc2d4abe9e,001,64,female,British,Bachelor Degree,2024-03-06_16h32.11.137,CRL1h,2023.2.3,Win32,60.24096386,65e67470ae2fbf2172c317b2,65e87da09988e2eb938ce968,,,,,,,,,,,353.2358,1.4,354.6342,354.6342,355.7153,right,1,1.0724,,355.7153,356.7139,4,8,72,13,1,total,1,images/Ex14.jpg,right,training,hard,3,,,,,
,,,,,652be58c7d5885fc2d4abe9e,001,64,female,British,Bachelor Degree,2024-03-06_16h32.11.137,CRL1h,2023.2.3,Win32,60.24096386,65e67470ae2fbf2172c317b2,65e87da09988e2eb938ce968,,,,,,,,,,,356.7152,0.9,357.6122,357.6122,358.5954,left,1,0.9744,,358.5954,359.5946,4,9,73,9,1,total,1,images/Ex10.jpg,left,training,hard,3,,,,,
,,,,,652be58c7d5885fc2d4abe9e,001,64,female,British,Bachelor Degree,2024-03-06_16h32.11.137,CRL1h,2023.2.3,Win32,60.24096386,65e67470ae2fbf2172c317b2,65e87da09988e2eb938ce968,,,,,,,,,,,359.5957,1.3,360.8946,360.8947,361.7092,left,0,0.8097,,361.7093,362.7088,4,10,74,5,1,total,1,images/Ex14.jpg,right,training,hard,3,,,,,
,,,,,652be58c7d5885fc2d4abe9e,001,64,female,British,Bachelor Degree,2024-03-06_16h32.11.137,CRL1h,2023.2.3,Win32,60.24096386,65e67470ae2fbf2172c317b2,65e87da09988e2eb938ce968,,,,,,,,,,,362.7098,0.7,363.4072,363.4073,364.3737,right,0,0.9545,,364.3738,365.3713,4,11,75,10,1,total,1,images/Ex11.jpg,left,training,hard,3,,,,,
,,,,,652be58c7d5885fc2d4abe9e,001,64,female,British,Bachelor Degree,2024-03-06_16h32.11.137,CRL1h,2023.2.3,Win32,60.24096386,65e67470ae2fbf2172c317b2,65e87da09988e2eb938ce968,,,,,,,,,,,365.3724,1.1,366.471,366.4711,367.654,right,0,1.1733,,367.6541,368.6515,4,12,76,1,1,total,1,images/Ex10.jpg,left,training,hard,3,,,,,
,,,,,652be58c7d5885fc2d4abe9e,001,64,female,British,Bachelor Degree,2024-03-06_16h32.11.137,CRL1h,2023.2.3,Win32,60.24096386,65e67470ae2fbf2172c317b2,65e87da09988e2eb938ce968,,,,,,,,,,,368.6527,0.5,369.1507,369.1507,370.3191,left,0,1.1582,,370.3192,371.3155,4,13,77,4,1,total,1,images/Ex13.jpg,right,training,hard,3,,,,,
,,,,,652be58c7d5885fc2d4abe9e,001,64,female,British,Bachelor Degree,2024-03-06_16h32.11.137,CRL1h,2023.2.3,Win32,60.24096386,65e67470ae2fbf2172c317b2,65e87da09988e2eb938ce968,,,,,,,,,,,371.3334,0.7,372.0317,372.0319,372.8476,right,0,0.8063,,372.8478,373.8458,4,14,78,2,1,total,1,images/Ex11.jpg,left,training,hard,3,,,,,
,,,,,652be58c7d5885fc2d4abe9e,001,64,female,British,Bachelor Degree,2024-03-06_16h32.11.137,CRL1h,2023.2.3,Win32,60.24096386,65e67470ae2fbf2172c317b2,65e87da09988e2eb938ce968,,,,,,,,,,,373.8464,1.4,375.2444,375.2444,376.344,left,0,1.0962,,376.3441,377.3434,4,15,79,14,1,total,1,images/Ex15.jpg,right,training,hard,3,,,,,
,,,,,652be58c7d5885fc2d4abe9e,001,64,female,British,Bachelor Degree,2024-03-06_16h32.11.137,CRL1h,2023.2.3,Win32,60.24096386,65e67470ae2fbf2172c317b2,65e87da09988e2eb938ce968,,,,,,,,,,,377.345,1.1,378.4422,378.4423,379.3247,right,0,0.8748,,379.3247,380.323,5,0,80,10,1,total,1,images/Ex11.jpg,left,training,hard,3,,,,,
,,,,,652be58c7d5885fc2d4abe9e,001,64,female,British,Bachelor Degree,2024-03-06_16h32.11.137,CRL1h,2023.2.3,Win32,60.24096386,65e67470ae2fbf2172c317b2,65e87da09988e2eb938ce968,,,,,,,,,,,380.3239,1.2,381.5223,381.5223,382.4389,right,1,0.9133,,382.4389,383.4366,5,1,81,14,1,total,1,images/Ex15.jpg,right,training,hard,3,,,,,
,,,,,652be58c7d5885fc2d4abe9e,001,64,female,British,Bachelor Degree,2024-03-06_16h32.11.137,CRL1h,2023.2.3,Win32,60.24096386,65e67470ae2fbf2172c317b2,65e87da09988e2eb938ce968,,,,,,,,,,,383.4377,0.6,384.0367,384.0368,385.3022,right,1,1.2592,,385.3022,386.3011,5,2,82,15,1,total,1,images/Ex16.jpg,right,training,hard,3,,,,,
,,,,,652be58c7d5885fc2d4abe9e,001,64,female,British,Bachelor Degree,2024-03-06_16h32.11.137,CRL1h,2023.2.3,Win32,60.24096386,65e67470ae2fbf2172c317b2,65e87da09988e2eb938ce968,,,,,,,,,,,386.3026,0.6,386.9002,386.9002,387.7833,right,0,0.8725,,387.7839,388.7821,5,3,83,8,1,total,1,images/Ex9.jpg,left,training,hard,3,,,,,
,,,,,652be58c7d5885fc2d4abe9e,001,64,female,British,Bachelor Degree,2024-03-06_16h32.11.137,CRL1h,2023.2.3,Win32,60.24096386,65e67470ae2fbf2172c317b2,65e87da09988e2eb938ce968,,,,,,,,,,,388.7836,1.4,390.1796,390.1797,391.1311,left,1,0.9412,,391.1312,392.1283,5,4,84,0,1,total,1,images/Ex9.jpg,left,training,hard,3,,,,,
,,,,,652be58c7d5885fc2d4abe9e,001,64,female,British,Bachelor Degree,2024-03-06_16h32.11.137,CRL1h,2023.2.3,Win32,60.24096386,65e67470ae2fbf2172c317b2,65e87da09988e2eb938ce968,,,,,,,,,,,392.1297,0.9,393.027,393.0272,394.2437,left,0,1.209,,394.2438,395.2413,5,5,85,7,1,total,1,images/Ex16.jpg,right,training,hard,3,,,,,
,,,,,652be58c7d5885fc2d4abe9e,001,64,female,British,Bachelor Degree,2024-03-06_16h32.11.137,CRL1h,2023.2.3,Win32,60.24096386,65e67470ae2fbf2172c317b2,65e87da09988e2eb938ce968,,,,,,,,,,,395.242,1,396.2404,396.2406,397.39,right,1,1.141,,397.3901,398.3888,5,6,86,4,1,total,1,images/Ex13.jpg,right,training,hard,3,,,,,
,,,,,652be58c7d5885fc2d4abe9e,001,64,female,British,Bachelor Degree,2024-03-06_16h32.11.137,CRL1h,2023.2.3,Win32,60.24096386,65e67470ae2fbf2172c317b2,65e87da09988e2eb938ce968,,,,,,,,,,,398.3903,1.2,399.5876,399.5877,400.5048,left,1,0.9058,,400.5049,401.5022,5,7,87,11,1,total,1,images/Ex12.jpg,left,training,hard,3,,,,,
,,,,,652be58c7d5885fc2d4abe9e,001,64,female,British,Bachelor Degree,2024-03-06_16h32.11.137,CRL1h,2023.2.3,Win32,60.24096386,65e67470ae2fbf2172c317b2,65e87da09988e2eb938ce968,,,,,,,,,,,401.5039,0.6,402.1013,402.1013,402.885,right,1,0.7758,,402.8854,403.8838,5,8,88,6,1,total,1,images/Ex15.jpg,right,training,hard,3,,,,,
,,,,,652be58c7d5885fc2d4abe9e,001,64,female,British,Bachelor Degree,2024-03-06_16h32.11.137,CRL1h,2023.2.3,Win32,60.24096386,65e67470ae2fbf2172c317b2,65e87da09988e2eb938ce968,,,,,,,,,,,403.8848,1.2,405.0813,405.0813,406.1325,left,1,1.0414,,406.1326,407.1293,5,9,89,1,1,total,1,images/Ex10.jpg,left,training,hard,3,,,,,
,,,,,652be58c7d5885fc2d4abe9e,001,64,female,British,Bachelor Degree,2024-03-06_16h32.11.137,CRL1h,2023.2.3,Win32,60.24096386,65e67470ae2fbf2172c317b2,65e87da09988e2eb938ce968,,,,,,,,,,,407.1298,1.1,408.2283,408.2283,408.8304,left,1,0.5959,,408.8305,409.8269,5,10,90,9,1,total,1,images/Ex10.jpg,left,training,hard,3,,,,,
,,,,,652be58c7d5885fc2d4abe9e,001,64,female,British,Bachelor Degree,2024-03-06_16h32.11.137,CRL1h,2023.2.3,Win32,60.24096386,65e67470ae2fbf2172c317b2,65e87da09988e2eb938ce968,,,,,,,,,,,409.8275,0.6,410.4262,410.4264,411.2943,right,0,0.8654,,411.2944,412.2911,5,11,91,2,1,total,1,images/Ex11.jpg,left,training,hard,3,,,,,
,,,,,652be58c7d5885fc2d4abe9e,001,64,female,British,Bachelor Degree,2024-03-06_16h32.11.137,CRL1h,2023.2.3,Win32,60.24096386,65e67470ae2fbf2172c317b2,65e87da09988e2eb938ce968,,,,,,,,,,,412.2916,1,413.2911,413.2912,414.2412,left,0,0.94,,414.2412,415.2382,5,12,92,13,1,total,1,images/Ex14.jpg,right,training,hard,3,,,,,
,,,,,652be58c7d5885fc2d4abe9e,001,64,female,British,Bachelor Degree,2024-03-06_16h32.11.137,CRL1h,2023.2.3,Win32,60.24096386,65e67470ae2fbf2172c317b2,65e87da09988e2eb938ce968,,,,,,,,,,,415.2389,1.3,416.5383,416.5384,417.4709,left,1,0.9303,,417.4709,418.4695,5,13,93,3,1,total,1,images/Ex12.jpg,left,training,hard,3,,,,,
,,,,,652be58c7d5885fc2d4abe9e,001,64,female,British,Bachelor Degree,2024-03-06_16h32.11.137,CRL1h,2023.2.3,Win32,60.24096386,65e67470ae2fbf2172c317b2,65e87da09988e2eb938ce968,,,,,,,,,,,418.4704,0.7,419.1676,419.1678,420.1417,right,1,0.9715,,420.1418,421.134,5,14,94,5,1,total,1,images/Ex14.jpg,right,training,hard,3,,,,,
,,,,,652be58c7d5885fc2d4abe9e,001,64,female,British,Bachelor Degree,2024-03-06_16h32.11.137,CRL1h,2023.2.3,Win32,60.24096386,65e67470ae2fbf2172c317b2,65e87da09988e2eb938ce968,,,,,,,,,,,421.1352,1.1,422.2314,422.2315,423.0482,right,1,0.8063,,423.0482,424.0456,5,15,95,12,1,total,1,images/Ex13.jpg,right,training,hard,3,,,,,
,,,,,652be58c7d5885fc2d4abe9e,001,64,female,British,Bachelor Degree,2024-03-06_16h32.11.137,CRL1h,2023.2.3,Win32,60.24096386,65e67470ae2fbf2172c317b2,65e87da09988e2eb938ce968,,,,,,,,,,,424.0467,1.2,425.2452,425.2454,426.3783,right,1,1.1221,,426.3785,427.3768,6,0,96,15,1,total,1,images/Ex16.jpg,right,training,hard,3,,,,,
,,,,,652be58c7d5885fc2d4abe9e,001,64,female,British,Bachelor Degree,2024-03-06_16h32.11.137,CRL1h,2023.2.3,Win32,60.24096386,65e67470ae2fbf2172c317b2,65e87da09988e2eb938ce968,,,,,,,,,,,427.394,1.4,428.7928,428.7929,429.5576,right,0,0.7594,,429.5577,430.5564,6,1,97,9,1,total,1,images/Ex10.jpg,left,training,hard,3,,,,,
,,,,,652be58c7d5885fc2d4abe9e,001,64,female,British,Bachelor Degree,2024-03-06_16h32.11.137,CRL1h,2023.2.3,Win32,60.24096386,65e67470ae2fbf2172c317b2,65e87da09988e2eb938ce968,,,,,,,,,,,430.5577,1.5,432.0544,432.0545,433.0211,left,1,0.9587,,433.0211,434.0196,6,2,98,10,1,total,1,images/Ex11.jpg,left,training,hard,3,,,,,
,,,,,652be58c7d5885fc2d4abe9e,001,64,female,British,Bachelor Degree,2024-03-06_16h32.11.137,CRL1h,2023.2.3,Win32,60.24096386,65e67470ae2fbf2172c317b2,65e87da09988e2eb938ce968,,,,,,,,,,,434.021,0.5,434.5194,434.5194,435.1199,left,1,0.5921,,435.1202,436.1171,6,3,99,11,1,total,1,images/Ex12.jpg,left,training,hard,3,,,,,
,,,,,652be58c7d5885fc2d4abe9e,001,64,female,British,Bachelor Degree,2024-03-06_16h32.11.137,CRL1h,2023.2.3,Win32,60.24096386,65e67470ae2fbf2172c317b2,65e87da09988e2eb938ce968,,,,,,,,,,,436.1181,1.4,437.5159,437.5159,438.5001,right,1,0.974,,438.5002,439.4974,6,4,100,4,1,total,1,images/Ex13.jpg,right,training,hard,3,,,,,
,,,,,652be58c7d5885fc2d4abe9e,001,64,female,British,Bachelor Degree,2024-03-06_16h32.11.137,CRL1h,2023.2.3,Win32,60.24096386,65e67470ae2fbf2172c317b2,65e87da09988e2eb938ce968,,,,,,,,,,,439.4988,1.1,440.5954,440.5954,441.429,right,1,0.8209,,441.429,442.4269,6,5,101,13,1,total,1,images/Ex14.jpg,right,training,hard,3,,,,,
,,,,,652be58c7d5885fc2d4abe9e,001,64,female,British,Bachelor Degree,2024-03-06_16h32.11.137,CRL1h,2023.2.3,Win32,60.24096386,65e67470ae2fbf2172c317b2,65e87da09988e2eb938ce968,,,,,,,,,,,442.4276,1.3,443.7267,443.7269,444.5597,right,1,0.8239,,444.5597,445.5579,6,6,102,6,1,total,1,images/Ex15.jpg,right,training,hard,3,,,,,
,,,,,652be58c7d5885fc2d4abe9e,001,64,female,British,Bachelor Degree,2024-03-06_16h32.11.137,CRL1h,2023.2.3,Win32,60.24096386,65e67470ae2fbf2172c317b2,65e87da09988e2eb938ce968,,,,,,,,,,,445.5587,0.7,446.2572,446.2573,447.1063,right,1,0.8403,,447.1063,448.1052,6,7,103,5,1,total,1,images/Ex14.jpg,right,training,hard,3,,,,,
,,,,,652be58c7d5885fc2d4abe9e,001,64,female,British,Bachelor Degree,2024-03-06_16h32.11.137,CRL1h,2023.2.3,Win32,60.24096386,65e67470ae2fbf2172c317b2,65e87da09988e2eb938ce968,,,,,,,,,,,448.1059,1.5,449.6035,449.6035,450.8357,right,0,1.2237,,450.8357,451.8344,6,8,104,8,1,total,1,images/Ex9.jpg,left,training,hard,3,,,,,
,,,,,652be58c7d5885fc2d4abe9e,001,64,female,British,Bachelor Degree,2024-03-06_16h32.11.137,CRL1h,2023.2.3,Win32,60.24096386,65e67470ae2fbf2172c317b2,65e87da09988e2eb938ce968,,,,,,,,,,,451.8351,0.8,452.6342,452.6343,453.5502,left,0,0.9059,,453.5502,454.5486,6,9,105,12,1,total,1,images/Ex13.jpg,right,training,hard,3,,,,,
,,,,,652be58c7d5885fc2d4abe9e,001,64,female,British,Bachelor Degree,2024-03-06_16h32.11.137,CRL1h,2023.2.3,Win32,60.24096386,65e67470ae2fbf2172c317b2,65e87da09988e2eb938ce968,,,,,,,,,,,454.5492,0.6,455.1476,455.1476,455.9479,right,0,0.7938,,455.948,456.9464,6,10,106,2,1,total,1,images/Ex11.jpg,left,training,hard,3,,,,,
,,,,,652be58c7d5885fc2d4abe9e,001,64,female,British,Bachelor Degree,2024-03-06_16h32.11.137,CRL1h,2023.2.3,Win32,60.24096386,65e67470ae2fbf2172c317b2,65e87da09988e2eb938ce968,,,,,,,,,,,456.9478,1.1,458.0454,458.0455,459.095,left,1,1.043,,459.0951,460.093,6,11,107,1,1,total,1,images/Ex10.jpg,left,training,hard,3,,,,,
,,,,,652be58c7d5885fc2d4abe9e,001,64,female,British,Bachelor Degree,2024-03-06_16h32.11.137,CRL1h,2023.2.3,Win32,60.24096386,65e67470ae2fbf2172c317b2,65e87da09988e2eb938ce968,,,,,,,,,,,460.0939,1.5,461.5916,461.5916,462.5411,right,0,0.9428,,462.5412,463.5392,6,12,108,0,1,total,1,images/Ex9.jpg,left,training,hard,3,,,,,
,,,,,652be58c7d5885fc2d4abe9e,001,64,female,British,Bachelor Degree,2024-03-06_16h32.11.137,CRL1h,2023.2.3,Win32,60.24096386,65e67470ae2fbf2172c317b2,65e87da09988e2eb938ce968,,,,,,,,,,,463.5401,0.8,464.3389,464.3389,465.3049,right,1,0.9535,,465.3049,466.3032,6,13,109,14,1,total,1,images/Ex15.jpg,right,training,hard,3,,,,,
,,,,,652be58c7d5885fc2d4abe9e,001,64,female,British,Bachelor Degree,2024-03-06_16h32.11.137,CRL1h,2023.2.3,Win32,60.24096386,65e67470ae2fbf2172c317b2,65e87da09988e2eb938ce968,,,,,,,,,,,466.304,1.2,467.5034,467.5035,468.2866,left,1,0.7762,,468.2866,469.2849,6,14,110,3,1,total,1,images/Ex12.jpg,left,training,hard,3,,,,,
,,,,,652be58c7d5885fc2d4abe9e,001,64,female,British,Bachelor Degree,2024-03-06_16h32.11.137,CRL1h,2023.2.3,Win32,60.24096386,65e67470ae2fbf2172c317b2,65e87da09988e2eb938ce968,,,,,,,,,,,469.2854,0.8,470.0838,470.0838,471.0701,right,1,0.9749,,471.0701,472.0651,6,15,111,7,1,total,1,images/Ex16.jpg,right,training,hard,3,,,,,
,,,,,652be58c7d5885fc2d4abe9e,001,64,female,British,Bachelor Degree,2024-03-06_16h32.11.137,CRL1h,2023.2.3,Win32,60.24096386,65e67470ae2fbf2172c317b2,65e87da09988e2eb938ce968,,,,,,,,,,,472.0664,0.7,472.7643,472.7643,473.6628,right,0,0.8902,,473.663,474.6615,7,0,112,10,1,total,1,images/Ex11.jpg,left,training,hard,3,,,,,
,,,,,652be58c7d5885fc2d4abe9e,001,64,female,British,Bachelor Degree,2024-03-06_16h32.11.137,CRL1h,2023.2.3,Win32,60.24096386,65e67470ae2fbf2172c317b2,65e87da09988e2eb938ce968,,,,,,,,,,,474.6622,1.2,475.8603,475.8603,476.9102,left,0,1.0415,,476.9103,477.9091,7,1,113,15,1,total,1,images/Ex16.jpg,right,training,hard,3,,,,,
,,,,,652be58c7d5885fc2d4abe9e,001,64,female,British,Bachelor Degree,2024-03-06_16h32.11.137,CRL1h,2023.2.3,Win32,60.24096386,65e67470ae2fbf2172c317b2,65e87da09988e2eb938ce968,,,,,,,,,,,477.9104,0.7,478.6093,478.6095,479.6573,right,0,1.0393,,479.6573,480.6558,7,2,114,1,1,total,1,images/Ex10.jpg,left,training,hard,3,,,,,
,,,,,652be58c7d5885fc2d4abe9e,001,64,female,British,Bachelor Degree,2024-03-06_16h32.11.137,CRL1h,2023.2.3,Win32,60.24096386,65e67470ae2fbf2172c317b2,65e87da09988e2eb938ce968,,,,,,,,,,,480.6564,1.4,482.0545,482.0546,483.1045,right,0,1.0408,,483.1046,484.1029,7,3,115,2,1,total,1,images/Ex11.jpg,left,training,hard,3,,,,,
,,,,,652be58c7d5885fc2d4abe9e,001,64,female,British,Bachelor Degree,2024-03-06_16h32.11.137,CRL1h,2023.2.3,Win32,60.24096386,65e67470ae2fbf2172c317b2,65e87da09988e2eb938ce968,,,,,,,,,,,484.1036,1,485.1036,485.1037,485.9723,left,1,0.8603,,485.9723,486.9667,7,4,116,11,1,total,1,images/Ex12.jpg,left,training,hard,3,,,,,
,,,,,652be58c7d5885fc2d4abe9e,001,64,female,British,Bachelor Degree,2024-03-06_16h32.11.137,CRL1h,2023.2.3,Win32,60.24096386,65e67470ae2fbf2172c317b2,65e87da09988e2eb938ce968,,,,,,,,,,,486.968,1,487.9655,487.9656,488.9819,left,1,1.0036,,488.982,489.9801,7,5,117,0,1,total,1,images/Ex9.jpg,left,training,hard,3,,,,,
,,,,,652be58c7d5885fc2d4abe9e,001,64,female,British,Bachelor Degree,2024-03-06_16h32.11.137,CRL1h,2023.2.3,Win32,60.24096386,65e67470ae2fbf2172c317b2,65e87da09988e2eb938ce968,,,,,,,,,,,489.9813,0.9,490.8802,490.8802,491.4287,left,1,0.5417,,491.4291,492.4277,7,6,118,3,1,total,1,images/Ex12.jpg,left,training,hard,3,,,,,
,,,,,652be58c7d5885fc2d4abe9e,001,64,female,British,Bachelor Degree,2024-03-06_16h32.11.137,CRL1h,2023.2.3,Win32,60.24096386,65e67470ae2fbf2172c317b2,65e87da09988e2eb938ce968,,,,,,,,,,,492.4289,0.9,493.3265,493.3266,494.2262,right,1,0.8887,,494.2264,495.2243,7,7,119,12,1,total,1,images/Ex13.jpg,right,training,hard,3,,,,,
,,,,,652be58c7d5885fc2d4abe9e,001,64,female,British,Bachelor Degree,2024-03-06_16h32.11.137,CRL1h,2023.2.3,Win32,60.24096386,65e67470ae2fbf2172c317b2,65e87da09988e2eb938ce968,,,,,,,,,,,495.2251,1.1,496.3234,496.3236,497.1902,left,0,0.8585,,497.1903,498.1881,7,8,120,7,1,total,1,images/Ex16.jpg,right,training,hard,3,,,,,
,,,,,652be58c7d5885fc2d4abe9e,001,64,female,British,Bachelor Degree,2024-03-06_16h32.11.137,CRL1h,2023.2.3,Win32,60.24096386,65e67470ae2fbf2172c317b2,65e87da09988e2eb938ce968,,,,,,,,,,,498.1887,0.8,498.9869,498.987,499.8032,right,1,0.8068,,499.8033,500.8023,7,9,121,14,1,total,1,images/Ex15.jpg,right,training,hard,3,,,,,
,,,,,652be58c7d5885fc2d4abe9e,001,64,female,British,Bachelor Degree,2024-03-06_16h32.11.137,CRL1h,2023.2.3,Win32,60.24096386,65e67470ae2fbf2172c317b2,65e87da09988e2eb938ce968,,,,,,,,,,,500.8042,1.3,502.1008,502.1009,502.7678,right,0,0.6551,,502.7679,503.7667,7,10,122,9,1,total,1,images/Ex10.jpg,left,training,hard,3,,,,,
,,,,,652be58c7d5885fc2d4abe9e,001,64,female,British,Bachelor Degree,2024-03-06_16h32.11.137,CRL1h,2023.2.3,Win32,60.24096386,65e67470ae2fbf2172c317b2,65e87da09988e2eb938ce968,,,,,,,,,,,503.7674,0.5,504.2663,504.2665,505.2156,right,1,0.9425,,505.2157,506.2133,7,11,123,4,1,total,1,images/Ex13.jpg,right,training,hard,3,,,,,
,,,,,652be58c7d5885fc2d4abe9e,001,64,female,British,Bachelor Degree,2024-03-06_16h32.11.137,CRL1h,2023.2.3,Win32,60.24096386,65e67470ae2fbf2172c317b2,65e87da09988e2eb938ce968,,,,,,,,,,,506.2141,0.7,506.9121,506.9122,507.8782,left,0,0.9631,,507.8783,508.8767,7,12,124,5,1,total,1,images/Ex14.jpg,right,training,hard,3,,,,,
,,,,,652be58c7d5885fc2d4abe9e,001,64,female,British,Bachelor Degree,2024-03-06_16h32.11.137,CRL1h,2023.2.3,Win32,60.24096386,65e67470ae2fbf2172c317b2,65e87da09988e2eb938ce968,,,,,,,,,,,508.8774,1.2,510.0755,510.0756,510.6427,right,1,0.5592,,510.6428,511.6426,7,13,125,6,1,total,1,images/Ex15.jpg,right,training,hard,3,,,,,
,,,,,652be58c7d5885fc2d4abe9e,001,64,female,British,Bachelor Degree,2024-03-06_16h32.11.137,CRL1h,2023.2.3,Win32,60.24096386,65e67470ae2fbf2172c317b2,65e87da09988e2eb938ce968,,,,,,,,,,,511.6436,1.4,513.0399,513.04,513.9392,right,1,0.8895,,513.9392,514.9377,7,14,126,13,1,total,1,images/Ex14.jpg,right,training,hard,3,,,,,
,,,,,652be58c7d5885fc2d4abe9e,001,64,female,British,Bachelor Degree,2024-03-06_16h32.11.137,CRL1h,2023.2.3,Win32,60.24096386,65e67470ae2fbf2172c317b2,65e87da09988e2eb938ce968,,,,,,,,,,,514.9387,1.2,516.1366,516.1367,517.1533,right,0,1.0057,,517.1534,518.1511,7,15,127,8,1,total,1,images/Ex9.jpg,left,training,hard,3,,,,,
,,,,,652be58c7d5885fc2d4abe9e,001,64,female,British,Bachelor Degree,2024-03-06_16h32.11.137,CRL1h,2023.2.3,Win32,60.24096386,65e67470ae2fbf2172c317b2,65e87da09988e2eb938ce968,,,,,,,,,,,518.1584,1,519.1506,519.1507,519.8,left,0,0.6424,,519.8004,520.7987,0,0,0,0,1,total,2,images/Ex9.jpg,right,reversed,hard,3,,,,,
,,,,,652be58c7d5885fc2d4abe9e,001,64,female,British,Bachelor Degree,2024-03-06_16h32.11.137,CRL1h,2023.2.3,Win32,60.24096386,65e67470ae2fbf2172c317b2,65e87da09988e2eb938ce968,,,,,,,,,,,520.8002,1.4,522.1976,522.1976,523.2149,right,1,1.009,,523.215,524.2122,0,1,1,8,1,total,2,images/Ex9.jpg,right,reversed,hard,3,,,,,
,,,,,652be58c7d5885fc2d4abe9e,001,64,female,British,Bachelor Degree,2024-03-06_16h32.11.137,CRL1h,2023.2.3,Win32,60.24096386,65e67470ae2fbf2172c317b2,65e87da09988e2eb938ce968,,,,,,,,,,,524.2143,0.5,524.7129,524.713,525.8114,right,0,1.0925,,525.8118,526.8091,0,2,2,6,1,total,2,images/Ex15.jpg,left,reversed,hard,3,,,,,
,,,,,652be58c7d5885fc2d4abe9e,001,64,female,British,Bachelor Degree,2024-03-06_16h32.11.137,CRL1h,2023.2.3,Win32,60.24096386,65e67470ae2fbf2172c317b2,65e87da09988e2eb938ce968,,,,,,,,,,,526.8102,0.7,527.5086,527.5087,528.342,right,0,0.8263,,528.3421,529.3406,0,3,3,13,1,total,2,images/Ex14.jpg,left,reversed,hard,3,,,,,
,,,,,652be58c7d5885fc2d4abe9e,001,64,female,British,Bachelor Degree,2024-03-06_16h32.11.137,CRL1h,2023.2.3,Win32,60.24096386,65e67470ae2fbf2172c317b2,65e87da09988e2eb938ce968,,,,,,,,,,,529.3418,1.3,530.6391,530.6393,531.9379,right,1,1.2897,,531.938,532.9363,0,4,4,1,1,total,2,images/Ex10.jpg,right,reversed,hard,3,,,,,
,,,,,652be58c7d5885fc2d4abe9e,001,64,female,British,Bachelor Degree,2024-03-06_16h32.11.137,CRL1h,2023.2.3,Win32,60.24096386,65e67470ae2fbf2172c317b2,65e87da09988e2eb938ce968,,,,,,,,,,,532.9373,1.2,534.1358,534.1359,535.5185,right,0,1.3703,,535.5186,536.516,0,5,5,7,1,total,2,images/Ex16.jpg,left,reversed,hard,3,,,,,
,,,,,652be58c7d5885fc2d4abe9e,001,64,female,British,Bachelor Degree,2024-03-06_16h32.11.137,CRL1h,2023.2.3,Win32,60.24096386,65e67470ae2fbf2172c317b2,65e87da09988e2eb938ce968,,,,,,,,,,,536.5171,0.5,537.0165,537.0166,537.9828,right,0,0.9582,,537.9831,538.9804,0,6,6,14,1,total,2,images/Ex15.jpg,left,reversed,hard,3,,,,,
,,,,,652be58c7d5885fc2d4abe9e,001,64,female,British,Bachelor Degree,2024-03-06_16h32.11.137,CRL1h,2023.2.3,Win32,60.24096386,65e67470ae2fbf2172c317b2,65e87da09988e2eb938ce968,,,,,,,,,,,538.9813,1,539.9791,539.9792,541.5112,right,1,1.5276,,541.5112,542.5096,0,7,7,9,1,total,2,images/Ex10.jpg,right,reversed,hard,3,,,,,
,,,,,652be58c7d5885fc2d4abe9e,001,64,female,British,Bachelor Degree,2024-03-06_16h32.11.137,CRL1h,2023.2.3,Win32,60.24096386,65e67470ae2fbf2172c317b2,65e87da09988e2eb938ce968,,,,,,,,,,,542.5103,1.4,543.9086,543.9086,544.8916,right,0,0.9774,,544.8917,545.8901,0,8,8,4,1,total,2,images/Ex13.jpg,left,reversed,hard,3,,,,,
,,,,,652be58c7d5885fc2d4abe9e,001,64,female,British,Bachelor Degree,2024-03-06_16h32.11.137,CRL1h,2023.2.3,Win32,60.24096386,65e67470ae2fbf2172c317b2,65e87da09988e2eb938ce968,,,,,,,,,,,545.8914,1.1,546.9895,546.9896,547.7394,left,0,0.7364,,547.7395,548.7369,0,9,9,3,1,total,2,images/Ex12.jpg,right,reversed,hard,3,,,,,
,,,,,652be58c7d5885fc2d4abe9e,001,64,female,British,Bachelor Degree,2024-03-06_16h32.11.137,CRL1h,2023.2.3,Win32,60.24096386,65e67470ae2fbf2172c317b2,65e87da09988e2eb938ce968,,,,,,,,,,,548.7378,1.1,549.8359,549.8359,554.3333,right,0,4.4867,,554.3333,555.331,0,10,10,12,1,total,2,images/Ex13.jpg,left,reversed,hard,3,,,,,
,,,,,652be58c7d5885fc2d4abe9e,001,64,female,British,Bachelor Degree,2024-03-06_16h32.11.137,CRL1h,2023.2.3,Win32,60.24096386,65e67470ae2fbf2172c317b2,65e87da09988e2eb938ce968,,,,,,,,,,,555.3601,0.8,556.1481,556.1482,557.5305,left,0,1.3751,,557.5306,558.5275,0,11,11,10,1,total,2,images/Ex11.jpg,right,reversed,hard,3,,,,,
,,,,,652be58c7d5885fc2d4abe9e,001,64,female,British,Bachelor Degree,2024-03-06_16h32.11.137,CRL1h,2023.2.3,Win32,60.24096386,65e67470ae2fbf2172c317b2,65e87da09988e2eb938ce968,,,,,,,,,,,558.528,1,559.5268,559.5269,560.9104,right,0,1.3741,,560.9104,561.9085,0,12,12,15,1,total,2,images/Ex16.jpg,left,reversed,hard,3,,,,,
,,,,,652be58c7d5885fc2d4abe9e,001,64,female,British,Bachelor Degree,2024-03-06_16h32.11.137,CRL1h,2023.2.3,Win32,60.24096386,65e67470ae2fbf2172c317b2,65e87da09988e2eb938ce968,,,,,,,,,,,561.9374,0.9,562.841,562.841,563.7404,left,0,0.8934,,563.7405,564.7395,0,13,13,11,1,total,2,images/Ex12.jpg,right,reversed,hard,3,,,,,
,,,,,652be58c7d5885fc2d4abe9e,001,64,female,British,Bachelor Degree,2024-03-06_16h32.11.137,CRL1h,2023.2.3,Win32,60.24096386,65e67470ae2fbf2172c317b2,65e87da09988e2eb938ce968,,,,,,,,,,,564.7404,1.5,566.2359,566.236,567.1525,right,1,0.9047,,567.1526,568.1508,0,14,14,2,1,total,2,images/Ex11.jpg,right,reversed,hard,3,,,,,
,,,,,652be58c7d5885fc2d4abe9e,001,64,female,British,Bachelor Degree,2024-03-06_16h32.11.137,CRL1h,2023.2.3,Win32,60.24096386,65e67470ae2fbf2172c317b2,65e87da09988e2eb938ce968,,,,,,,,,,,568.1516,1.1,569.2499,569.2501,570.0495,right,0,0.788,,570.0496,571.0485,0,15,15,5,1,total,2,images/Ex14.jpg,left,reversed,hard,3,,,,,
,,,,,652be58c7d5885fc2d4abe9e,001,64,female,British,Bachelor Degree,2024-03-06_16h32.11.137,CRL1h,2023.2.3,Win32,60.24096386,65e67470ae2fbf2172c317b2,65e87da09988e2eb938ce968,,,,,,,,,,,571.05,1.4,572.4479,572.448,573.0138,right,1,0.5558,,573.014,574.0114,1,0,16,3,1,total,2,images/Ex12.jpg,right,reversed,hard,3,,,,,
,,,,,652be58c7d5885fc2d4abe9e,001,64,female,British,Bachelor Degree,2024-03-06_16h32.11.137,CRL1h,2023.2.3,Win32,60.24096386,65e67470ae2fbf2172c317b2,65e87da09988e2eb938ce968,,,,,,,,,,,574.0123,1.4,575.4099,575.41,575.96,right,1,0.547,,575.96,576.9583,1,1,17,11,1,total,2,images/Ex12.jpg,right,reversed,hard,3,,,,,
,,,,,652be58c7d5885fc2d4abe9e,001,64,female,British,Bachelor Degree,2024-03-06_16h32.11.137,CRL1h,2023.2.3,Win32,60.24096386,65e67470ae2fbf2172c317b2,65e87da09988e2eb938ce968,,,,,,,,,,,576.9591,1.2,578.1575,578.1575,579.1402,left,1,0.9742,,579.1404,580.1391,1,2,18,4,1,total,2,images/Ex13.jpg,left,reversed,hard,3,,,,,
,,,,,652be58c7d5885fc2d4abe9e,001,64,female,British,Bachelor Degree,2024-03-06_16h32.11.137,CRL1h,2023.2.3,Win32,60.24096386,65e67470ae2fbf2172c317b2,65e87da09988e2eb938ce968,,,,,,,,,,,580.1398,0.7,580.8379,580.838,582.1543,left,1,1.3096,,582.1543,583.153,1,3,19,7,1,total,2,images/Ex16.jpg,left,reversed,hard,3,,,,,
,,,,,652be58c7d5885fc2d4abe9e,001,64,female,British,Bachelor Degree,2024-03-06_16h32.11.137,CRL1h,2023.2.3,Win32,60.24096386,65e67470ae2fbf2172c317b2,65e87da09988e2eb938ce968,,,,,,,,,,,583.1538,1.5,584.6508,584.6509,585.5516,right,1,0.8915,,585.5519,586.5494,1,4,20,10,1,total,2,images/Ex11.jpg,right,reversed,hard,3,,,,,
,,,,,652be58c7d5885fc2d4abe9e,001,64,female,British,Bachelor Degree,2024-03-06_16h32.11.137,CRL1h,2023.2.3,Win32,60.24096386,65e67470ae2fbf2172c317b2,65e87da09988e2eb938ce968,,,,,,,,,,,586.5501,1.4,587.9478,587.9478,588.9973,right,0,1.0412,,588.9974,589.9955,1,5,21,14,1,total,2,images/Ex15.jpg,left,reversed,hard,3,,,,,
,,,,,652be58c7d5885fc2d4abe9e,001,64,female,British,Bachelor Degree,2024-03-06_16h32.11.137,CRL1h,2023.2.3,Win32,60.24096386,65e67470ae2fbf2172c317b2,65e87da09988e2eb938ce968,,,,,,,,,,,589.9962,0.6,590.5948,590.5948,591.5452,left,1,0.9455,,591.5456,592.543,1,6,22,6,1,total,2,images/Ex15.jpg,left,reversed,hard,3,,,,,
,,,,,652be58c7d5885fc2d4abe9e,001,64,female,British,Bachelor Degree,2024-03-06_16h32.11.137,CRL1h,2023.2.3,Win32,60.24096386,65e67470ae2fbf2172c317b2,65e87da09988e2eb938ce968,,,,,,,,,,,592.5439,1.3,593.8426,593.8427,594.7921,right,0,0.945,,594.7923,595.7896,1,7,23,13,1,total,2,images/Ex14.jpg,left,reversed,hard,3,,,,,
,,,,,652be58c7d5885fc2d4abe9e,001,64,female,British,Bachelor Degree,2024-03-06_16h32.11.137,CRL1h,2023.2.3,Win32,60.24096386,65e67470ae2fbf2172c317b2,65e87da09988e2eb938ce968,,,,,,,,,,,595.7905,1.4,597.1881,597.1881,598.4539,right,1,1.2581,,598.4539,599.4534,1,8,24,9,1,total,2,images/Ex10.jpg,right,reversed,hard,3,,,,,
,,,,,652be58c7d5885fc2d4abe9e,001,64,female,British,Bachelor Degree,2024-03-06_16h32.11.137,CRL1h,2023.2.3,Win32,60.24096386,65e67470ae2fbf2172c317b2,65e87da09988e2eb938ce968,,,,,,,,,,,599.4546,1,600.4514,600.4515,601.3701,left,0,0.9154,,601.3704,602.368,1,9,25,8,1,total,2,images/Ex9.jpg,right,reversed,hard,3,,,,,
,,,,,652be58c7d5885fc2d4abe9e,001,64,female,British,Bachelor Degree,2024-03-06_16h32.11.137,CRL1h,2023.2.3,Win32,60.24096386,65e67470ae2fbf2172c317b2,65e87da09988e2eb938ce968,,,,,,,,,,,602.3694,1,603.3661,603.3663,604.7474,right,0,1.3771,,604.7476,605.747,1,10,26,15,1,total,2,images/Ex16.jpg,left,reversed,hard,3,,,,,
,,,,,652be58c7d5885fc2d4abe9e,001,64,female,British,Bachelor Degree,2024-03-06_16h32.11.137,CRL1h,2023.2.3,Win32,60.24096386,65e67470ae2fbf2172c317b2,65e87da09988e2eb938ce968,,,,,,,,,,,605.7483,1.4,607.1454,607.1454,608.0444,right,0,0.8947,,608.0446,609.0428,1,11,27,5,1,total,2,images/Ex14.jpg,left,reversed,hard,3,,,,,
,,,,,652be58c7d5885fc2d4abe9e,001,64,female,British,Bachelor Degree,2024-03-06_16h32.11.137,CRL1h,2023.2.3,Win32,60.24096386,65e67470ae2fbf2172c317b2,65e87da09988e2eb938ce968,,,,,,,,,,,609.0435,0.6,609.6422,609.6423,610.7581,left,1,1.1128,,610.7582,611.7569,1,12,28,12,1,total,2,images/Ex13.jpg,left,reversed,hard,3,,,,,
,,,,,652be58c7d5885fc2d4abe9e,001,64,female,British,Bachelor Degree,2024-03-06_16h32.11.137,CRL1h,2023.2.3,Win32,60.24096386,65e67470ae2fbf2172c317b2,65e87da09988e2eb938ce968,,,,,,,,,,,611.7577,1.1,612.8563,612.8563,613.9552,right,1,1.0872,,613.9552,614.9536,1,13,29,1,1,total,2,images/Ex10.jpg,right,reversed,hard,3,,,,,
,,,,,652be58c7d5885fc2d4abe9e,001,64,female,British,Bachelor Degree,2024-03-06_16h32.11.137,CRL1h,2023.2.3,Win32,60.24096386,65e67470ae2fbf2172c317b2,65e87da09988e2eb938ce968,,,,,,,,,,,614.9546,0.5,615.4531,615.4531,616.5026,left,0,1.0405,,616.5027,617.5011,1,14,30,0,1,total,2,images/Ex9.jpg,right,reversed,hard,3,,,,,
,,,,,652be58c7d5885fc2d4abe9e,001,64,female,British,Bachelor Degree,2024-03-06_16h32.11.137,CRL1h,2023.2.3,Win32,60.24096386,65e67470ae2fbf2172c317b2,65e87da09988e2eb938ce968,,,,,,,,,,,617.502,0.6,618.1005,618.1005,619.0675,right,1,0.9628,,619.0678,620.0653,1,15,31,2,1,total,2,images/Ex11.jpg,right,reversed,hard,3,,,,,
,,,,,652be58c7d5885fc2d4abe9e,001,64,female,British,Bachelor Degree,2024-03-06_16h32.11.137,CRL1h,2023.2.3,Win32,60.24096386,65e67470ae2fbf2172c317b2,65e87da09988e2eb938ce968,,,,,,,,,,,620.066,1.2,621.2666,621.2667,622.247,left,0,0.9685,,622.2471,623.2455,2,0,32,8,1,total,2,images/Ex9.jpg,right,reversed,hard,3,,,,,
,,,,,652be58c7d5885fc2d4abe9e,001,64,female,British,Bachelor Degree,2024-03-06_16h32.11.137,CRL1h,2023.2.3,Win32,60.24096386,65e67470ae2fbf2172c317b2,65e87da09988e2eb938ce968,,,,,,,,,,,623.2462,1.4,624.6448,624.6449,625.6607,right,1,1.004,,625.6607,626.6586,2,1,33,3,1,total,2,images/Ex12.jpg,right,reversed,hard,3,,,,,
,,,,,652be58c7d5885fc2d4abe9e,001,64,female,British,Bachelor Degree,2024-03-06_16h32.11.137,CRL1h,2023.2.3,Win32,60.24096386,65e67470ae2fbf2172c317b2,65e87da09988e2eb938ce968,,,,,,,,,,,626.6599,0.8,627.4581,627.4583,628.7251,right,1,1.2569,,628.7252,629.723,2,2,34,2,1,total,2,images/Ex11.jpg,right,reversed,hard,3,,,,,
,,,,,652be58c7d5885fc2d4abe9e,001,64,female,British,Bachelor Degree,2024-03-06_16h32.11.137,CRL1h,2023.2.3,Win32,60.24096386,65e67470ae2fbf2172c317b2,65e87da09988e2eb938ce968,,,,,,,,,,,629.7247,0.8,630.523,630.5232,631.2875,right,1,0.7553,,631.2876,632.287,2,3,35,11,1,total,2,images/Ex12.jpg,right,reversed,hard,3,,,,,
,,,,,652be58c7d5885fc2d4abe9e,001,64,female,British,Bachelor Degree,2024-03-06_16h32.11.137,CRL1h,2023.2.3,Win32,60.24096386,65e67470ae2fbf2172c317b2,65e87da09988e2eb938ce968,,,,,,,,,,,632.2888,1.4,633.6855,633.6857,634.6346,right,0,0.9399,,634.6348,635.6343,2,4,36,12,1,total,2,images/Ex13.jpg,left,reversed,hard,3,,,,,
,,,,,652be58c7d5885fc2d4abe9e,001,64,female,British,Bachelor Degree,2024-03-06_16h32.11.137,CRL1h,2023.2.3,Win32,60.24096386,65e67470ae2fbf2172c317b2,65e87da09988e2eb938ce968,,,,,,,,,,,635.6355,0.6,636.2334,636.2335,637.1989,right,0,0.9561,,637.199,638.1976,2,5,37,15,1,total,2,images/Ex16.jpg,left,reversed,hard,3,,,,,
,,,,,652be58c7d5885fc2d4abe9e,001,64,female,British,Bachelor Degree,2024-03-06_16h32.11.137,CRL1h,2023.2.3,Win32,60.24096386,65e67470ae2fbf2172c317b2,65e87da09988e2eb938ce968,,,,,,,,,,,638.1993,0.8,638.9969,638.9971,639.913,right,1,0.9057,,639.9132,640.9107,2,6,38,10,1,total,2,images/Ex11.jpg,right,reversed,hard,3,,,,,
,,,,,652be58c7d5885fc2d4abe9e,001,64,female,British,Bachelor Degree,2024-03-06_16h32.11.137,CRL1h,2023.2.3,Win32,60.24096386,65e67470ae2fbf2172c317b2,65e87da09988e2eb938ce968,,,,,,,,,,,640.9114,0.7,641.6101,641.6101,642.5595,right,1,0.9415,,642.5598,643.5581,2,7,39,1,1,total,2,images/Ex10.jpg,right,reversed,hard,3,,,,,
,,,,,652be58c7d5885fc2d4abe9e,001,64,female,British,Bachelor Degree,2024-03-06_16h32.11.137,CRL1h,2023.2.3,Win32,60.24096386,65e67470ae2fbf2172c317b2,65e87da09988e2eb938ce968,,,,,,,,,,,643.5587,0.9,644.4581,644.4583,645.1073,left,1,0.6397,,645.1075,646.1069,2,8,40,5,1,total,2,images/Ex14.jpg,left,reversed,hard,3,,,,,
,,,,,652be58c7d5885fc2d4abe9e,001,64,female,British,Bachelor Degree,2024-03-06_16h32.11.137,CRL1h,2023.2.3,Win32,60.24096386,65e67470ae2fbf2172c317b2,65e87da09988e2eb938ce968,,,,,,,,,,,646.1086,0.9,647.0057,647.006,647.9725,left,1,0.9547,,647.9725,648.9696,2,9,41,14,1,total,2,images/Ex15.jpg,left,reversed,hard,3,,,,,
,,,,,652be58c7d5885fc2d4abe9e,001,64,female,British,Bachelor Degree,2024-03-06_16h32.11.137,CRL1h,2023.2.3,Win32,60.24096386,65e67470ae2fbf2172c317b2,65e87da09988e2eb938ce968,,,,,,,,,,,648.9704,0.5,649.4695,649.4697,650.3856,left,0,0.9125,,650.3859,651.384,2,10,42,0,1,total,2,images/Ex9.jpg,right,reversed,hard,3,,,,,
,,,,,652be58c7d5885fc2d4abe9e,001,64,female,British,Bachelor Degree,2024-03-06_16h32.11.137,CRL1h,2023.2.3,Win32,60.24096386,65e67470ae2fbf2172c317b2,65e87da09988e2eb938ce968,,,,,,,,,,,651.3851,0.9,652.2831,652.2833,653.116,right,0,0.8241,,653.1161,654.1163,2,11,43,4,1,total,2,images/Ex13.jpg,left,reversed,hard,3,,,,,
,,,,,652be58c7d5885fc2d4abe9e,001,64,female,British,Bachelor Degree,2024-03-06_16h32.11.137,CRL1h,2023.2.3,Win32,60.24096386,65e67470ae2fbf2172c317b2,65e87da09988e2eb938ce968,,,,,,,,,,,654.1175,1.4,655.513,655.5131,656.4962,right,0,0.9752,,656.4963,657.4947,2,12,44,7,1,total,2,images/Ex16.jpg,left,reversed,hard,3,,,,,
,,,,,652be58c7d5885fc2d4abe9e,001,64,female,British,Bachelor Degree,2024-03-06_16h32.11.137,CRL1h,2023.2.3,Win32,60.24096386,65e67470ae2fbf2172c317b2,65e87da09988e2eb938ce968,,,,,,,,,,,657.4962,1.4,658.8929,658.893,659.8592,right,0,0.9613,,659.8592,660.8577,2,13,45,13,1,total,2,images/Ex14.jpg,left,reversed,hard,3,,,,,
,,,,,652be58c7d5885fc2d4abe9e,001,64,female,British,Bachelor Degree,2024-03-06_16h32.11.137,CRL1h,2023.2.3,Win32,60.24096386,65e67470ae2fbf2172c317b2,65e87da09988e2eb938ce968,,,,,,,,,,,660.8585,0.8,661.6567,661.6568,662.5566,right,1,0.8922,,662.5567,663.5557,2,14,46,9,1,total,2,images/Ex10.jpg,right,reversed,hard,3,,,,,
,,,,,652be58c7d5885fc2d4abe9e,001,64,female,British,Bachelor Degree,2024-03-06_16h32.11.137,CRL1h,2023.2.3,Win32,60.24096386,65e67470ae2fbf2172c317b2,65e87da09988e2eb938ce968,,,,,,,,,,,663.5564,1.3,664.8536,664.8536,665.6869,left,1,0.8313,,665.6869,666.6851,2,15,47,6,1,total,2,images/Ex15.jpg,left,reversed,hard,3,,,,,
,,,,,652be58c7d5885fc2d4abe9e,001,64,female,British,Bachelor Degree,2024-03-06_16h32.11.137,CRL1h,2023.2.3,Win32,60.24096386,65e67470ae2fbf2172c317b2,65e87da09988e2eb938ce968,,,,,,,,,,,666.6866,0.7,667.3844,667.3844,668.0176,left,0,0.6217,,668.0177,669.0169,3,0,48,8,1,total,2,images/Ex9.jpg,right,reversed,hard,3,,,,,
,,,,,652be58c7d5885fc2d4abe9e,001,64,female,British,Bachelor Degree,2024-03-06_16h32.11.137,CRL1h,2023.2.3,Win32,60.24096386,65e67470ae2fbf2172c317b2,65e87da09988e2eb938ce968,,,,,,,,,,,669.0182,1,670.0159,670.0161,671.2317,left,0,1.2118,,671.2318,672.2296,3,1,49,0,1,total,2,images/Ex9.jpg,right,reversed,hard,3,,,,,
,,,,,652be58c7d5885fc2d4abe9e,001,64,female,British,Bachelor Degree,2024-03-06_16h32.11.137,CRL1h,2023.2.3,Win32,60.24096386,65e67470ae2fbf2172c317b2,65e87da09988e2eb938ce968,,,,,,,,,,,672.2469,1.3,673.5449,673.545,674.3113,right,0,0.7577,,674.3114,675.3095,3,2,50,6,1,total,2,images/Ex15.jpg,left,reversed,hard,3,,,,,
,,,,,652be58c7d5885fc2d4abe9e,001,64,female,British,Bachelor Degree,2024-03-06_16h32.11.137,CRL1h,2023.2.3,Win32,60.24096386,65e67470ae2fbf2172c317b2,65e87da09988e2eb938ce968,,,,,,,,,,,675.3102,1,676.3087,676.3087,677.3247,right,1,1.0074,,677.3247,678.3234,3,3,51,10,1,total,2,images/Ex11.jpg,right,reversed,hard,3,,,,,
,,,,,652be58c7d5885fc2d4abe9e,001,64,female,British,Bachelor Degree,2024-03-06_16h32.11.137,CRL1h,2023.2.3,Win32,60.24096386,65e67470ae2fbf2172c317b2,65e87da09988e2eb938ce968,,,,,,,,,,,678.3245,1.3,679.6231,679.6232,680.7384,right,1,1.1063,,680.7384,681.737,3,4,52,3,1,total,2,images/Ex12.jpg,right,reversed,hard,3,,,,,
,,,,,652be58c7d5885fc2d4abe9e,001,64,female,British,Bachelor Degree,2024-03-06_16h32.11.137,CRL1h,2023.2.3,Win32,60.24096386,65e67470ae2fbf2172c317b2,65e87da09988e2eb938ce968,,,,,,,,,,,681.7381,1.1,682.8356,682.8356,684.0348,right,0,1.1917,,684.035,685.0333,3,5,53,7,1,total,2,images/Ex16.jpg,left,reversed,hard,3,,,,,
,,,,,652be58c7d5885fc2d4abe9e,001,64,female,British,Bachelor Degree,2024-03-06_16h32.11.137,CRL1h,2023.2.3,Win32,60.24096386,65e67470ae2fbf2172c317b2,65e87da09988e2eb938ce968,,,,,,,,,,,685.035,1.3,686.3323,686.3325,687.3152,right,0,0.9747,,687.3153,688.3141,3,6,54,13,1,total,2,images/Ex14.jpg,left,reversed,hard,3,,,,,
,,,,,652be58c7d5885fc2d4abe9e,001,64,female,British,Bachelor Degree,2024-03-06_16h32.11.137,CRL1h,2023.2.3,Win32,60.24096386,65e67470ae2fbf2172c317b2,65e87da09988e2eb938ce968,,,,,,,,,,,688.3159,0.7,689.0135,689.0137,690.0785,left,0,1.0526,,690.0786,691.0771,3,7,55,9,1,total,2,images/Ex10.jpg,right,reversed,hard,3,,,,,
,,,,,652be58c7d5885fc2d4abe9e,001,64,female,British,Bachelor Degree,2024-03-06_16h32.11.137,CRL1h,2023.2.3,Win32,60.24096386,65e67470ae2fbf2172c317b2,65e87da09988e2eb938ce968,,,,,,,,,,,691.078,1.3,692.376,692.376,693.2427,right,0,0.8566,,693.2427,694.2414,3,8,56,14,1,total,2,images/Ex15.jpg,left,reversed,hard,3,,,,,
,,,,,652be58c7d5885fc2d4abe9e,001,64,female,British,Bachelor Degree,2024-03-06_16h32.11.137,CRL1h,2023.2.3,Win32,60.24096386,65e67470ae2fbf2172c317b2,65e87da09988e2eb938ce968,,,,,,,,,,,694.2424,1.2,695.4395,695.4396,696.3722,right,1,0.9302,,696.3723,697.3717,3,9,57,1,1,total,2,images/Ex10.jpg,right,reversed,hard,3,,,,,
,,,,,652be58c7d5885fc2d4abe9e,001,64,female,British,Bachelor Degree,2024-03-06_16h32.11.137,CRL1h,2023.2.3,Win32,60.24096386,65e67470ae2fbf2172c317b2,65e87da09988e2eb938ce968,,,,,,,,,,,697.3735,1.3,698.6702,698.6702,699.8361,left,0,1.1564,,699.8362,700.8343,3,10,58,2,1,total,2,images/Ex11.jpg,right,reversed,hard,3,,,,,
,,,,,652be58c7d5885fc2d4abe9e,001,64,female,British,Bachelor Degree,2024-03-06_16h32.11.137,CRL1h,2023.2.3,Win32,60.24096386,65e67470ae2fbf2172c317b2,65e87da09988e2eb938ce968,,,,,,,,,,,700.8352,1.4,702.2327,702.2327,703.3653,right,0,1.1262,,703.3653,704.3644,3,11,59,15,1,total,2,images/Ex16.jpg,left,reversed,hard,3,,,,,
,,,,,652be58c7d5885fc2d4abe9e,001,64,female,British,Bachelor Degree,2024-03-06_16h32.11.137,CRL1h,2023.2.3,Win32,60.24096386,65e67470ae2fbf2172c317b2,65e87da09988e2eb938ce968,,,,,,,,,,,704.3656,1.1,705.463,705.4631,706.4296,right,0,0.9584,,706.4297,707.4281,3,12,60,4,1,total,2,images/Ex13.jpg,left,reversed,hard,3,,,,,
,,,,,652be58c7d5885fc2d4abe9e,001,64,female,British,Bachelor Degree,2024-03-06_16h32.11.137,CRL1h,2023.2.3,Win32,60.24096386,65e67470ae2fbf2172c317b2,65e87da09988e2eb938ce968,,,,,,,,,,,707.4295,1.3,708.7259,708.726,709.9584,right,0,1.2244,,709.9586,710.957,3,13,61,12,1,total,2,images/Ex13.jpg,left,reversed,hard,3,,,,,
,,,,,652be58c7d5885fc2d4abe9e,001,64,female,British,Bachelor Degree,2024-03-06_16h32.11.137,CRL1h,2023.2.3,Win32,60.24096386,65e67470ae2fbf2172c317b2,65e87da09988e2eb938ce968,,,,,,,,,,,710.9578,1,711.9569,711.957,713.0567,right,1,1.087,,713.0569,714.0543,3,14,62,11,1,total,2,images/Ex12.jpg,right,reversed,hard,3,,,,,
,,,,,652be58c7d5885fc2d4abe9e,001,64,female,British,Bachelor Degree,2024-03-06_16h32.11.137,CRL1h,2023.2.3,Win32,60.24096386,65e67470ae2fbf2172c317b2,65e87da09988e2eb938ce968,,,,,,,,,,,714.0552,0.9,714.9534,714.9535,716.3027,right,0,1.3458,,716.3028,717.3009,3,15,63,5,1,total,2,images/Ex14.jpg,left,reversed,hard,3,,,,,
,,,,,652be58c7d5885fc2d4abe9e,001,64,female,British,Bachelor Degree,2024-03-06_16h32.11.137,CRL1h,2023.2.3,Win32,60.24096386,65e67470ae2fbf2172c317b2,65e87da09988e2eb938ce968,,,,,,717.3025,722.896,space,5.5787,,722.9216,1,723.913,723.913,728.3924,left,0,4.4759,,728.3925,729.3893,0,0,0,4,1,partial,1,images/Ex5.jpg,right,training,hard,3,,,,,
,,,,,652be58c7d5885fc2d4abe9e,001,64,female,British,Bachelor Degree,2024-03-06_16h32.11.137,CRL1h,2023.2.3,Win32,60.24096386,65e67470ae2fbf2172c317b2,65e87da09988e2eb938ce968,,,,,,,,,,,729.4062,1.2,730.6055,730.6057,731.8039,right,0,1.1898,,731.804,732.8027,0,1,1,11,1,partial,1,images/Ex4.jpg,left,training,hard,3,,,,,
,,,,,652be58c7d5885fc2d4abe9e,001,64,female,British,Bachelor Degree,2024-03-06_16h32.11.137,CRL1h,2023.2.3,Win32,60.24096386,65e67470ae2fbf2172c317b2,65e87da09988e2eb938ce968,,,,,,,,,,,732.8034,1.4,734.2006,734.2007,735.1503,left,0,0.9442,,735.1504,736.1489,0,2,2,12,1,partial,1,images/Ex5.jpg,right,training,hard,3,,,,,
,,,,,652be58c7d5885fc2d4abe9e,001,64,female,British,Bachelor Degree,2024-03-06_16h32.11.137,CRL1h,2023.2.3,Win32,60.24096386,65e67470ae2fbf2172c317b2,65e87da09988e2eb938ce968,,,,,,,,,,,736.1514,1.3,737.4473,737.4474,738.5813,right,0,1.1297,,738.5815,739.5792,0,3,3,2,1,partial,1,images/Ex3.jpg,left,training,hard,3,,,,,
,,,,,652be58c7d5885fc2d4abe9e,001,64,female,British,Bachelor Degree,2024-03-06_16h32.11.137,CRL1h,2023.2.3,Win32,60.24096386,65e67470ae2fbf2172c317b2,65e87da09988e2eb938ce968,,,,,,,,,,,739.5805,1.1,740.6774,740.6775,741.6766,left,0,0.9902,,741.6767,742.6757,0,4,4,5,1,partial,1,images/Ex6.jpg,right,training,hard,3,,,,,
,,,,,652be58c7d5885fc2d4abe9e,001,64,female,British,Bachelor Degree,2024-03-06_16h32.11.137,CRL1h,2023.2.3,Win32,60.24096386,65e67470ae2fbf2172c317b2,65e87da09988e2eb938ce968,,,,,,,,,,,742.6764,0.9,743.5751,743.5751,744.7736,right,1,1.1866,,744.7737,745.7723,0,5,5,7,1,partial,1,images/Ex8.jpg,right,training,hard,3,,,,,
,,,,,652be58c7d5885fc2d4abe9e,001,64,female,British,Bachelor Degree,2024-03-06_16h32.11.137,CRL1h,2023.2.3,Win32,60.24096386,65e67470ae2fbf2172c317b2,65e87da09988e2eb938ce968,,,,,,,,,,,745.7734,0.8,746.5713,746.5713,747.6378,left,1,1.0592,,747.6378,748.6362,0,6,6,1,1,partial,1,images/Ex2.jpg,left,training,hard,3,,,,,
,,,,,652be58c7d5885fc2d4abe9e,001,64,female,British,Bachelor Degree,2024-03-06_16h32.11.137,CRL1h,2023.2.3,Win32,60.24096386,65e67470ae2fbf2172c317b2,65e87da09988e2eb938ce968,,,,,,,,,,,748.6369,1.3,749.9354,749.9354,750.9677,right,0,1.0234,,750.9678,751.9669,0,7,7,10,1,partial,1,images/Ex3.jpg,left,training,hard,3,,,,,
,,,,,652be58c7d5885fc2d4abe9e,001,64,female,British,Bachelor Degree,2024-03-06_16h32.11.137,CRL1h,2023.2.3,Win32,60.24096386,65e67470ae2fbf2172c317b2,65e87da09988e2eb938ce968,,,,,,,,,,,751.9683,1,752.965,752.9651,754.1484,left,0,1.1752,,754.1484,755.147,0,8,8,15,1,partial,1,images/Ex8.jpg,right,training,hard,3,,,,,
,,,,,652be58c7d5885fc2d4abe9e,001,64,female,British,Bachelor Degree,2024-03-06_16h32.11.137,CRL1h,2023.2.3,Win32,60.24096386,65e67470ae2fbf2172c317b2,65e87da09988e2eb938ce968,,,,,,,,,,,755.1486,0.7,755.8462,755.8464,756.6624,right,1,0.8089,,756.6626,757.6609,0,9,9,6,1,partial,1,images/Ex7.jpg,right,training,hard,3,,,,,
,,,,,652be58c7d5885fc2d4abe9e,001,64,female,British,Bachelor Degree,2024-03-06_16h32.11.137,CRL1h,2023.2.3,Win32,60.24096386,65e67470ae2fbf2172c317b2,65e87da09988e2eb938ce968,,,,,,,,,,,757.6627,1.1,758.7598,758.76,759.5261,right,1,0.7565,,759.5262,760.524,0,10,10,13,1,partial,1,images/Ex6.jpg,right,training,hard,3,,,,,
,,,,,652be58c7d5885fc2d4abe9e,001,64,female,British,Bachelor Degree,2024-03-06_16h32.11.137,CRL1h,2023.2.3,Win32,60.24096386,65e67470ae2fbf2172c317b2,65e87da09988e2eb938ce968,,,,,,,,,,,760.5249,1.1,761.6234,761.6235,762.4397,left,1,0.8074,,762.4398,763.4377,0,11,11,8,1,partial,1,images/Ex1.jpg,left,training,hard,3,,,,,
,,,,,652be58c7d5885fc2d4abe9e,001,64,female,British,Bachelor Degree,2024-03-06_16h32.11.137,CRL1h,2023.2.3,Win32,60.24096386,65e67470ae2fbf2172c317b2,65e87da09988e2eb938ce968,,,,,,,,,,,763.4385,1.2,764.6366,764.6367,765.3362,left,1,0.6913,,765.3364,766.3355,0,12,12,0,1,partial,1,images/Ex1.jpg,left,training,hard,3,,,,,
,,,,,652be58c7d5885fc2d4abe9e,001,64,female,British,Bachelor Degree,2024-03-06_16h32.11.137,CRL1h,2023.2.3,Win32,60.24096386,65e67470ae2fbf2172c317b2,65e87da09988e2eb938ce968,,,,,,,,,,,766.3362,1.2,767.5341,767.5342,768.3997,right,1,0.8569,,768.3998,769.3984,0,13,13,14,1,partial,1,images/Ex7.jpg,right,training,hard,3,,,,,
,,,,,652be58c7d5885fc2d4abe9e,001,64,female,British,Bachelor Degree,2024-03-06_16h32.11.137,CRL1h,2023.2.3,Win32,60.24096386,65e67470ae2fbf2172c317b2,65e87da09988e2eb938ce968,,,,,,,,,,,769.3991,0.8,770.1976,770.1976,771.0972,left,1,0.8918,,771.0973,772.0964,0,14,14,3,1,partial,1,images/Ex4.jpg,left,training,hard,3,,,,,
,,,,,652be58c7d5885fc2d4abe9e,001,64,female,British,Bachelor Degree,2024-03-06_16h32.11.137,CRL1h,2023.2.3,Win32,60.24096386,65e67470ae2fbf2172c317b2,65e87da09988e2eb938ce968,,,,,,,,,,,772.098,1.2,773.2952,773.2953,774.0943,left,1,0.7906,,774.0944,775.0948,0,15,15,9,1,partial,1,images/Ex2.jpg,left,training,hard,3,,,,,
,,,,,652be58c7d5885fc2d4abe9e,001,64,female,British,Bachelor Degree,2024-03-06_16h32.11.137,CRL1h,2023.2.3,Win32,60.24096386,65e67470ae2fbf2172c317b2,65e87da09988e2eb938ce968,,,,,,,,,,,775.0956,1.2,776.2915,776.2917,777.5242,right,1,1.2205,,777.5243,778.5227,1,0,16,4,1,partial,1,images/Ex5.jpg,right,training,hard,3,,,,,
,,,,,652be58c7d5885fc2d4abe9e,001,64,female,British,Bachelor Degree,2024-03-06_16h32.11.137,CRL1h,2023.2.3,Win32,60.24096386,65e67470ae2fbf2172c317b2,65e87da09988e2eb938ce968,,,,,,,,,,,778.5342,0.6,779.1224,779.1225,779.8232,left,0,0.6929,,779.8233,780.8206,1,1,17,5,1,partial,1,images/Ex6.jpg,right,training,hard,3,,,,,
,,,,,652be58c7d5885fc2d4abe9e,001,64,female,British,Bachelor Degree,2024-03-06_16h32.11.137,CRL1h,2023.2.3,Win32,60.24096386,65e67470ae2fbf2172c317b2,65e87da09988e2eb938ce968,,,,,,,,,,,780.8218,1.4,782.2198,782.2198,782.819,left,1,0.5905,,782.8191,783.8174,1,2,18,11,1,partial,1,images/Ex4.jpg,left,training,hard,3,,,,,
,,,,,652be58c7d5885fc2d4abe9e,001,64,female,British,Bachelor Degree,2024-03-06_16h32.11.137,CRL1h,2023.2.3,Win32,60.24096386,65e67470ae2fbf2172c317b2,65e87da09988e2eb938ce968,,,,,,,,,,,783.8182,0.7,784.5168,784.5169,785.5014,right,1,0.9769,,785.5015,786.4981,1,3,19,15,1,partial,1,images/Ex8.jpg,right,training,hard,3,,,,,
,,,,,652be58c7d5885fc2d4abe9e,001,64,female,British,Bachelor Degree,2024-03-06_16h32.11.137,CRL1h,2023.2.3,Win32,60.24096386,65e67470ae2fbf2172c317b2,65e87da09988e2eb938ce968,,,,,,,,,,,786.4989,0.5,786.9975,786.9975,787.9974,left,1,0.9915,,787.9974,788.9962,1,4,20,9,1,partial,1,images/Ex2.jpg,left,training,hard,3,,,,,
,,,,,652be58c7d5885fc2d4abe9e,001,64,female,British,Bachelor Degree,2024-03-06_16h32.11.137,CRL1h,2023.2.3,Win32,60.24096386,65e67470ae2fbf2172c317b2,65e87da09988e2eb938ce968,,,,,,,,,,,788.9976,1.1,790.0949,790.0951,790.8952,left,0,0.7918,,790.8953,791.8924,1,5,21,12,1,partial,1,images/Ex5.jpg,right,training,hard,3,,,,,
,,,,,652be58c7d5885fc2d4abe9e,001,64,female,British,Bachelor Degree,2024-03-06_16h32.11.137,CRL1h,2023.2.3,Win32,60.24096386,65e67470ae2fbf2172c317b2,65e87da09988e2eb938ce968,,,,,,,,,,,791.8931,1.2,793.0917,793.0918,793.9426,right,0,0.8414,,793.9427,794.9402,1,6,22,10,1,partial,1,images/Ex3.jpg,left,training,hard,3,,,,,
,,,,,652be58c7d5885fc2d4abe9e,001,64,female,British,Bachelor Degree,2024-03-06_16h32.11.137,CRL1h,2023.2.3,Win32,60.24096386,65e67470ae2fbf2172c317b2,65e87da09988e2eb938ce968,,,,,,,,,,,794.9418,1.1,796.0392,796.0394,797.0561,right,1,1.0096,,797.0562,798.0541,1,7,23,14,1,partial,1,images/Ex7.jpg,right,training,hard,3,,,,,
,,,,,652be58c7d5885fc2d4abe9e,001,64,female,British,Bachelor Degree,2024-03-06_16h32.11.137,CRL1h,2023.2.3,Win32,60.24096386,65e67470ae2fbf2172c317b2,65e87da09988e2eb938ce968,,,,,,,,,,,798.0555,0.6,798.653,798.6532,799.3355,left,1,0.6765,,799.3357,800.3341,1,8,24,3,1,partial,1,images/Ex4.jpg,left,training,hard,3,,,,,
,,,,,652be58c7d5885fc2d4abe9e,001,64,female,British,Bachelor Degree,2024-03-06_16h32.11.137,CRL1h,2023.2.3,Win32,60.24096386,65e67470ae2fbf2172c317b2,65e87da09988e2eb938ce968,,,,,,,,,,,800.3352,0.7,801.0338,801.0338,801.9524,right,1,0.9094,,801.9525,802.9484,1,9,25,6,1,partial,1,images/Ex7.jpg,right,training,hard,3,,,,,
,,,,,652be58c7d5885fc2d4abe9e,001,64,female,British,Bachelor Degree,2024-03-06_16h32.11.137,CRL1h,2023.2.3,Win32,60.24096386,65e67470ae2fbf2172c317b2,65e87da09988e2eb938ce968,,,,,,,,,,,802.9495,0.8,803.7481,803.7482,804.7308,right,0,0.971,,804.7309,805.7288,1,10,26,0,1,partial,1,images/Ex1.jpg,left,training,hard,3,,,,,
,,,,,652be58c7d5885fc2d4abe9e,001,64,female,British,Bachelor Degree,2024-03-06_16h32.11.137,CRL1h,2023.2.3,Win32,60.24096386,65e67470ae2fbf2172c317b2,65e87da09988e2eb938ce968,,,,,,,,,,,805.7299,0.5,806.2284,806.2286,807.0629,left,1,0.8256,,807.0629,808.0612,1,11,27,8,1,partial,1,images/Ex1.jpg,left,training,hard,3,,,,,
,,,,,652be58c7d5885fc2d4abe9e,001,64,female,British,Bachelor Degree,2024-03-06_16h32.11.137,CRL1h,2023.2.3,Win32,60.24096386,65e67470ae2fbf2172c317b2,65e87da09988e2eb938ce968,,,,,,,,,,,808.0624,0.7,808.7588,808.7589,809.8922,right,1,1.1206,,809.8922,810.8899,1,12,28,13,1,partial,1,images/Ex6.jpg,right,training,hard,3,,,,,
,,,,,652be58c7d5885fc2d4abe9e,001,64,female,British,Bachelor Degree,2024-03-06_16h32.11.137,CRL1h,2023.2.3,Win32,60.24096386,65e67470ae2fbf2172c317b2,65e87da09988e2eb938ce968,,,,,,,,,,,810.8909,0.7,811.5893,811.5894,812.374,right,0,0.7767,,812.3741,813.3709,1,13,29,2,1,partial,1,images/Ex3.jpg,left,training,hard,3,,,,,
,,,,,652be58c7d5885fc2d4abe9e,001,64,female,British,Bachelor Degree,2024-03-06_16h32.11.137,CRL1h,2023.2.3,Win32,60.24096386,65e67470ae2fbf2172c317b2,65e87da09988e2eb938ce968,,,,,,,,,,,813.3717,1.3,814.6702,814.6703,815.7028,left,0,1.0206,,815.7029,816.7018,1,14,30,7,1,partial,1,images/Ex8.jpg,right,training,hard,3,,,,,
,,,,,652be58c7d5885fc2d4abe9e,001,64,female,British,Bachelor Degree,2024-03-06_16h32.11.137,CRL1h,2023.2.3,Win32,60.24096386,65e67470ae2fbf2172c317b2,65e87da09988e2eb938ce968,,,,,,,,,,,816.7033,1.1,817.8005,817.8007,819.1336,left,1,1.3244,,819.1338,820.1323,1,15,31,1,1,partial,1,images/Ex2.jpg,left,training,hard,3,,,,,
,,,,,652be58c7d5885fc2d4abe9e,001,64,female,British,Bachelor Degree,2024-03-06_16h32.11.137,CRL1h,2023.2.3,Win32,60.24096386,65e67470ae2fbf2172c317b2,65e87da09988e2eb938ce968,,,,,,,,,,,820.1333,0.6,820.7305,820.7306,821.7314,left,1,0.9918,,821.7316,822.7296,2,0,32,11,1,partial,1,images/Ex4.jpg,left,training,hard,3,,,,,
,,,,,652be58c7d5885fc2d4abe9e,001,64,female,British,Bachelor Degree,2024-03-06_16h32.11.137,CRL1h,2023.2.3,Win32,60.24096386,65e67470ae2fbf2172c317b2,65e87da09988e2eb938ce968,,,,,,,,,,,822.7307,0.8,823.5274,823.5274,824.3779,left,0,0.8427,,824.378,825.3758,2,1,33,6,1,partial,1,images/Ex7.jpg,right,training,hard,3,,,,,
,,,,,652be58c7d5885fc2d4abe9e,001,64,female,British,Bachelor Degree,2024-03-06_16h32.11.137,CRL1h,2023.2.3,Win32,60.24096386,65e67470ae2fbf2172c317b2,65e87da09988e2eb938ce968,,,,,,,,,,,825.3769,0.7,826.076,826.076,827.2755,left,0,1.1889,,827.2756,828.2733,2,2,34,4,1,partial,1,images/Ex5.jpg,right,training,hard,3,,,,,
,,,,,652be58c7d5885fc2d4abe9e,001,64,female,British,Bachelor Degree,2024-03-06_16h32.11.137,CRL1h,2023.2.3,Win32,60.24096386,65e67470ae2fbf2172c317b2,65e87da09988e2eb938ce968,,,,,,,,,,,828.2747,1.3,829.5725,829.5727,830.838,left,1,1.2572,,830.8381,831.8358,2,3,35,0,1,partial,1,images/Ex1.jpg,left,training,hard,3,,,,,
,,,,,652be58c7d5885fc2d4abe9e,001,64,female,British,Bachelor Degree,2024-03-06_16h32.11.137,CRL1h,2023.2.3,Win32,60.24096386,65e67470ae2fbf2172c317b2,65e87da09988e2eb938ce968,,,,,,,,,,,831.8366,1.3,833.1346,833.1346,833.9017,right,1,0.7587,,833.9017,834.8995,2,4,36,7,1,partial,1,images/Ex8.jpg,right,training,hard,3,,,,,
,,,,,652be58c7d5885fc2d4abe9e,001,64,female,British,Bachelor Degree,2024-03-06_16h32.11.137,CRL1h,2023.2.3,Win32,60.24096386,65e67470ae2fbf2172c317b2,65e87da09988e2eb938ce968,,,,,,,,,,,834.9005,0.6,835.4989,835.4989,836.2329,left,1,0.7282,,836.2332,837.2311,2,5,37,8,1,partial,1,images/Ex1.jpg,left,training,hard,3,,,,,
,,,,,652be58c7d5885fc2d4abe9e,001,64,female,British,Bachelor Degree,2024-03-06_16h32.11.137,CRL1h,2023.2.3,Win32,60.24096386,65e67470ae2fbf2172c317b2,65e87da09988e2eb938ce968,,,,,,,,,,,837.2325,0.7,837.9315,837.9317,838.7127,left,0,0.7772,,838.7127,839.7116,2,6,38,14,1,partial,1,images/Ex7.jpg,right,training,hard,3,,,,,
,,,,,652be58c7d5885fc2d4abe9e,001,64,female,British,Bachelor Degree,2024-03-06_16h32.11.137,CRL1h,2023.2.3,Win32,60.24096386,65e67470ae2fbf2172c317b2,65e87da09988e2eb938ce968,,,,,,,,,,,839.7125,0.9,840.612,840.612,842.0432,left,1,1.4193,,842.0433,843.0409,2,7,39,1,1,partial,1,images/Ex2.jpg,left,training,hard,3,,,,,
,,,,,652be58c7d5885fc2d4abe9e,001,64,female,British,Bachelor Degree,2024-03-06_16h32.11.137,CRL1h,2023.2.3,Win32,60.24096386,65e67470ae2fbf2172c317b2,65e87da09988e2eb938ce968,,,,,,,,,,,843.0418,1.4,844.4397,844.4397,845.4728,right,1,1.0247,,845.4729,846.4726,2,8,40,13,1,partial,1,images/Ex6.jpg,right,training,hard,3,,,,,
,,,,,652be58c7d5885fc2d4abe9e,001,64,female,British,Bachelor Degree,2024-03-06_16h32.11.137,CRL1h,2023.2.3,Win32,60.24096386,65e67470ae2fbf2172c317b2,65e87da09988e2eb938ce968,,,,,,,,,,,846.4737,1.4,847.8703,847.8704,848.4543,right,1,0.579,,848.4546,849.4532,2,9,41,5,1,partial,1,images/Ex6.jpg,right,training,hard,3,,,,,
,,,,,652be58c7d5885fc2d4abe9e,001,64,female,British,Bachelor Degree,2024-03-06_16h32.11.137,CRL1h,2023.2.3,Win32,60.24096386,65e67470ae2fbf2172c317b2,65e87da09988e2eb938ce968,,,,,,,,,,,849.4544,0.5,849.9525,849.9527,850.6514,left,0,0.6942,,850.6521,851.6501,2,10,42,12,1,partial,1,images/Ex5.jpg,right,training,hard,3,,,,,
,,,,,652be58c7d5885fc2d4abe9e,001,64,female,British,Bachelor Degree,2024-03-06_16h32.11.137,CRL1h,2023.2.3,Win32,60.24096386,65e67470ae2fbf2172c317b2,65e87da09988e2eb938ce968,,,,,,,,,,,851.6517,0.8,852.4493,852.4498,853.3983,left,1,0.9428,,853.3984,854.3982,2,11,43,9,1,partial,1,images/Ex2.jpg,left,training,hard,3,,,,,
,,,,,652be58c7d5885fc2d4abe9e,001,64,female,British,Bachelor Degree,2024-03-06_16h32.11.137,CRL1h,2023.2.3,Win32,60.24096386,65e67470ae2fbf2172c317b2,65e87da09988e2eb938ce968,,,,,,,,,,,854.3993,0.8,855.1962,855.1963,856.0635,right,0,0.8595,,856.0636,857.0623,2,12,44,10,1,partial,1,images/Ex3.jpg,left,training,hard,3,,,,,
,,,,,652be58c7d5885fc2d4abe9e,001,64,female,British,Bachelor Degree,2024-03-06_16h32.11.137,CRL1h,2023.2.3,Win32,60.24096386,65e67470ae2fbf2172c317b2,65e87da09988e2eb938ce968,,,,,,,,,,,857.0633,1.3,858.3597,858.3599,859.1275,left,1,0.7607,,859.1276,860.1246,2,13,45,3,1,partial,1,images/Ex4.jpg,left,training,hard,3,,,,,
,,,,,652be58c7d5885fc2d4abe9e,001,64,female,British,Bachelor Degree,2024-03-06_16h32.11.137,CRL1h,2023.2.3,Win32,60.24096386,65e67470ae2fbf2172c317b2,65e87da09988e2eb938ce968,,,,,,,,,,,860.1264,0.8,860.9242,860.9244,861.8898,left,1,0.9591,,861.8899,862.888,2,14,46,2,1,partial,1,images/Ex3.jpg,left,training,hard,3,,,,,
,,,,,652be58c7d5885fc2d4abe9e,001,64,female,British,Bachelor Degree,2024-03-06_16h32.11.137,CRL1h,2023.2.3,Win32,60.24096386,65e67470ae2fbf2172c317b2,65e87da09988e2eb938ce968,,,,,,,,,,,862.8887,1.4,864.2871,864.2872,864.9701,left,0,0.6741,,864.9701,865.9685,2,15,47,15,1,partial,1,images/Ex8.jpg,right,training,hard,3,,,,,
,,,,,652be58c7d5885fc2d4abe9e,001,64,female,British,Bachelor Degree,2024-03-06_16h32.11.137,CRL1h,2023.2.3,Win32,60.24096386,65e67470ae2fbf2172c317b2,65e87da09988e2eb938ce968,,,,,,,,,,,865.9703,1.3,867.2675,867.2676,868.2996,left,0,1.0263,,868.2996,869.2982,3,0,48,5,1,partial,1,images/Ex6.jpg,right,training,hard,3,,,,,
,,,,,652be58c7d5885fc2d4abe9e,001,64,female,British,Bachelor Degree,2024-03-06_16h32.11.137,CRL1h,2023.2.3,Win32,60.24096386,65e67470ae2fbf2172c317b2,65e87da09988e2eb938ce968,,,,,,,,,,,869.2989,0.9,870.1975,870.1976,871.1133,left,1,0.9106,,871.1133,872.1129,3,1,49,1,1,partial,1,images/Ex2.jpg,left,training,hard,3,,,,,
,,,,,652be58c7d5885fc2d4abe9e,001,64,female,British,Bachelor Degree,2024-03-06_16h32.11.137,CRL1h,2023.2.3,Win32,60.24096386,65e67470ae2fbf2172c317b2,65e87da09988e2eb938ce968,,,,,,,,,,,872.1141,1.2,873.312,873.3121,873.9283,right,1,0.6037,,873.9284,874.9266,3,2,50,13,1,partial,1,images/Ex6.jpg,right,training,hard,3,,,,,
,,,,,652be58c7d5885fc2d4abe9e,001,64,female,British,Bachelor Degree,2024-03-06_16h32.11.137,CRL1h,2023.2.3,Win32,60.24096386,65e67470ae2fbf2172c317b2,65e87da09988e2eb938ce968,,,,,,,,,,,874.9273,1.1,876.0245,876.0245,876.9415,left,1,0.9119,,876.9416,877.9393,3,3,51,9,1,partial,1,images/Ex2.jpg,left,training,hard,3,,,,,
,,,,,652be58c7d5885fc2d4abe9e,001,64,female,British,Bachelor Degree,2024-03-06_16h32.11.137,CRL1h,2023.2.3,Win32,60.24096386,65e67470ae2fbf2172c317b2,65e87da09988e2eb938ce968,,,,,,,,,,,877.9399,1.3,879.2387,879.2387,879.9217,left,1,0.6756,,879.9218,880.9207,3,4,52,3,1,partial,1,images/Ex4.jpg,left,training,hard,3,,,,,
,,,,,652be58c7d5885fc2d4abe9e,001,64,female,British,Bachelor Degree,2024-03-06_16h32.11.137,CRL1h,2023.2.3,Win32,60.24096386,65e67470ae2fbf2172c317b2,65e87da09988e2eb938ce968,,,,,,,,,,,880.9222,1.3,882.2187,882.2189,883.1022,left,0,0.8744,,883.1023,884.1006,3,5,53,15,1,partial,1,images/Ex8.jpg,right,training,hard,3,,,,,
,,,,,652be58c7d5885fc2d4abe9e,001,64,female,British,Bachelor Degree,2024-03-06_16h32.11.137,CRL1h,2023.2.3,Win32,60.24096386,65e67470ae2fbf2172c317b2,65e87da09988e2eb938ce968,,,,,,,,,,,884.1024,1.4,885.4992,885.4993,886.4154,right,0,0.9048,,886.4155,887.4135,3,6,54,0,1,partial,1,images/Ex1.jpg,left,training,hard,3,,,,,
,,,,,652be58c7d5885fc2d4abe9e,001,64,female,British,Bachelor Degree,2024-03-06_16h32.11.137,CRL1h,2023.2.3,Win32,60.24096386,65e67470ae2fbf2172c317b2,65e87da09988e2eb938ce968,,,,,,,,,,,887.4145,0.9,888.3125,888.3126,888.9453,left,1,0.6251,,888.9454,889.9448,3,7,55,8,1,partial,1,images/Ex1.jpg,left,training,hard,3,,,,,
,,,,,652be58c7d5885fc2d4abe9e,001,64,female,British,Bachelor Degree,2024-03-06_16h32.11.137,CRL1h,2023.2.3,Win32,60.24096386,65e67470ae2fbf2172c317b2,65e87da09988e2eb938ce968,,,,,,,,,,,889.9465,1.1,891.0436,891.0438,891.9766,left,1,0.9246,,891.9767,892.9765,3,8,56,11,1,partial,1,images/Ex4.jpg,left,training,hard,3,,,,,
,,,,,652be58c7d5885fc2d4abe9e,001,64,female,British,Bachelor Degree,2024-03-06_16h32.11.137,CRL1h,2023.2.3,Win32,60.24096386,65e67470ae2fbf2172c317b2,65e87da09988e2eb938ce968,,,,,,,,,,,892.9776,0.7,893.6754,893.6755,894.7404,left,1,1.0563,,894.7405,895.7391,3,9,57,10,1,partial,1,images/Ex3.jpg,left,training,hard,3,,,,,
,,,,,652be58c7d5885fc2d4abe9e,001,64,female,British,Bachelor Degree,2024-03-06_16h32.11.137,CRL1h,2023.2.3,Win32,60.24096386,65e67470ae2fbf2172c317b2,65e87da09988e2eb938ce968,,,,,,,,,,,895.7402,1.2,896.9375,896.9375,897.9703,right,1,1.0208,,897.9704,898.9688,3,10,58,7,1,partial,1,images/Ex8.jpg,right,training,hard,3,,,,,
,,,,,652be58c7d5885fc2d4abe9e,001,64,female,British,Bachelor Degree,2024-03-06_16h32.11.137,CRL1h,2023.2.3,Win32,60.24096386,65e67470ae2fbf2172c317b2,65e87da09988e2eb938ce968,,,,,,,,,,,898.9701,0.9,899.8685,899.8687,900.8686,right,1,0.995,,900.8687,901.8655,3,11,59,6,1,partial,1,images/Ex7.jpg,right,training,hard,3,,,,,
,,,,,652be58c7d5885fc2d4abe9e,001,64,female,British,Bachelor Degree,2024-03-06_16h32.11.137,CRL1h,2023.2.3,Win32,60.24096386,65e67470ae2fbf2172c317b2,65e87da09988e2eb938ce968,,,,,,,,,,,901.8665,0.9,902.7652,902.7653,903.865,right,1,1.0899,,903.865,904.8625,3,12,60,12,1,partial,1,images/Ex5.jpg,right,training,hard,3,,,,,
,,,,,652be58c7d5885fc2d4abe9e,001,64,female,British,Bachelor Degree,2024-03-06_16h32.11.137,CRL1h,2023.2.3,Win32,60.24096386,65e67470ae2fbf2172c317b2,65e87da09988e2eb938ce968,,,,,,,,,,,904.8636,1.1,905.9621,905.9622,906.8782,right,0,0.9099,,906.8783,907.8762,3,13,61,2,1,partial,1,images/Ex3.jpg,left,training,hard,3,,,,,
,,,,,652be58c7d5885fc2d4abe9e,001,64,female,British,Bachelor Degree,2024-03-06_16h32.11.137,CRL1h,2023.2.3,Win32,60.24096386,65e67470ae2fbf2172c317b2,65e87da09988e2eb938ce968,,,,,,,,,,,907.8773,0.6,908.4762,908.4764,909.6578,right,1,1.1724,,909.6578,910.6564,3,14,62,4,1,partial,1,images/Ex5.jpg,right,training,hard,3,,,,,
,,,,,652be58c7d5885fc2d4abe9e,001,64,female,British,Bachelor Degree,2024-03-06_16h32.11.137,CRL1h,2023.2.3,Win32,60.24096386,65e67470ae2fbf2172c317b2,65e87da09988e2eb938ce968,,,,,,,,,,,910.657,1.4,912.055,912.0551,913.222,right,1,1.1555,,913.222,914.22,3,15,63,14,1,partial,1,images/Ex7.jpg,right,training,hard,3,,,,,
,,,,,652be58c7d5885fc2d4abe9e,001,64,female,British,Bachelor Degree,2024-03-06_16h32.11.137,CRL1h,2023.2.3,Win32,60.24096386,65e67470ae2fbf2172c317b2,65e87da09988e2eb938ce968,,,,,,,,,,,914.221,1.2,915.4196,915.4197,916.2521,left,1,0.8192,,916.2521,917.2517,4,0,64,2,1,partial,1,images/Ex3.jpg,left,training,hard,3,,,,,
,,,,,652be58c7d5885fc2d4abe9e,001,64,female,British,Bachelor Degree,2024-03-06_16h32.11.137,CRL1h,2023.2.3,Win32,60.24096386,65e67470ae2fbf2172c317b2,65e87da09988e2eb938ce968,,,,,,,,,,,917.2526,1.3,918.5495,918.5496,919.3653,left,0,0.8039,,919.3655,920.3642,4,1,65,15,1,partial,1,images/Ex8.jpg,right,training,hard,3,,,,,
,,,,,652be58c7d5885fc2d4abe9e,001,64,female,British,Bachelor Degree,2024-03-06_16h32.11.137,CRL1h,2023.2.3,Win32,60.24096386,65e67470ae2fbf2172c317b2,65e87da09988e2eb938ce968,,,,,,,,,,,920.3665,0.6,920.963,920.9631,921.7143,left,1,0.7427,,921.7145,922.7113,4,2,66,11,1,partial,1,images/Ex4.jpg,left,training,hard,3,,,,,
,,,,,652be58c7d5885fc2d4abe9e,001,64,female,British,Bachelor Degree,2024-03-06_16h32.11.137,CRL1h,2023.2.3,Win32,60.24096386,65e67470ae2fbf2172c317b2,65e87da09988e2eb938ce968,,,,,,,,,,,922.7121,1.3,924.0107,924.0108,924.6099,left,1,0.5907,,924.61,925.6083,4,3,67,3,1,partial,1,images/Ex4.jpg,left,training,hard,3,,,,,
,,,,,652be58c7d5885fc2d4abe9e,001,64,female,British,Bachelor Degree,2024-03-06_16h32.11.137,CRL1h,2023.2.3,Win32,60.24096386,65e67470ae2fbf2172c317b2,65e87da09988e2eb938ce968,,,,,,,,,,,925.6091,0.6,926.208,926.2081,927.0252,right,0,0.8099,,927.0255,928.0233,4,4,68,8,1,partial,1,images/Ex1.jpg,left,training,hard,3,,,,,
,,,,,652be58c7d5885fc2d4abe9e,001,64,female,British,Bachelor Degree,2024-03-06_16h32.11.137,CRL1h,2023.2.3,Win32,60.24096386,65e67470ae2fbf2172c317b2,65e87da09988e2eb938ce968,,,,,,,,,,,928.0246,1.1,929.1227,929.1228,930.0743,right,1,0.9485,,930.0745,931.0708,4,5,69,12,1,partial,1,images/Ex5.jpg,right,training,hard,3,,,,,
,,,,,652be58c7d5885fc2d4abe9e,001,64,female,British,Bachelor Degree,2024-03-06_16h32.11.137,CRL1h,2023.2.3,Win32,60.24096386,65e67470ae2fbf2172c317b2,65e87da09988e2eb938ce968,,,,,,,,,,,931.0724,1.4,932.4688,932.4688,933.1545,right,1,0.6767,,933.1545,934.151,4,6,70,4,1,partial,1,images/Ex5.jpg,right,training,hard,3,,,,,
,,,,,652be58c7d5885fc2d4abe9e,001,64,female,British,Bachelor Degree,2024-03-06_16h32.11.137,CRL1h,2023.2.3,Win32,60.24096386,65e67470ae2fbf2172c317b2,65e87da09988e2eb938ce968,,,,,,,,,,,934.1522,1,935.1502,935.1504,936.0998,left,1,0.9466,,936.0999,937.0981,4,7,71,1,1,partial,1,images/Ex2.jpg,left,training,hard,3,,,,,
,,,,,652be58c7d5885fc2d4abe9e,001,64,female,British,Bachelor Degree,2024-03-06_16h32.11.137,CRL1h,2023.2.3,Win32,60.24096386,65e67470ae2fbf2172c317b2,65e87da09988e2eb938ce968,,,,,,,,,,,937.0991,1.3,938.3967,938.3968,939.5292,right,1,1.1251,,939.5293,940.5275,4,8,72,13,1,partial,1,images/Ex6.jpg,right,training,hard,3,,,,,
,,,,,652be58c7d5885fc2d4abe9e,001,64,female,British,Bachelor Degree,2024-03-06_16h32.11.137,CRL1h,2023.2.3,Win32,60.24096386,65e67470ae2fbf2172c317b2,65e87da09988e2eb938ce968,,,,,,,,,,,940.5282,1.3,941.8255,941.8256,942.4256,right,1,0.5914,,942.4257,943.4239,4,9,73,5,1,partial,1,images/Ex6.jpg,right,training,hard,3,,,,,
,,,,,652be58c7d5885fc2d4abe9e,001,64,female,British,Bachelor Degree,2024-03-06_16h32.11.137,CRL1h,2023.2.3,Win32,60.24096386,65e67470ae2fbf2172c317b2,65e87da09988e2eb938ce968,,,,,,,,,,,943.4245,0.6,944.0232,944.0233,945.0058,left,1,0.974,,945.0058,946.0049,4,10,74,0,1,partial,1,images/Ex1.jpg,left,training,hard,3,,,,,
,,,,,652be58c7d5885fc2d4abe9e,001,64,female,British,Bachelor Degree,2024-03-06_16h32.11.137,CRL1h,2023.2.3,Win32,60.24096386,65e67470ae2fbf2172c317b2,65e87da09988e2eb938ce968,,,,,,,,,,,946.0053,1,947.0042,947.0042,947.704,left,1,0.6911,,947.7041,948.7033,4,11,75,9,1,partial,1,images/Ex2.jpg,left,training,hard,3,,,,,
,,,,,652be58c7d5885fc2d4abe9e,001,64,female,British,Bachelor Degree,2024-03-06_16h32.11.137,CRL1h,2023.2.3,Win32,60.24096386,65e67470ae2fbf2172c317b2,65e87da09988e2eb938ce968,,,,,,,,,,,948.7043,0.9,949.6019,949.6019,950.5018,right,1,0.8909,,950.5018,951.5003,4,12,76,6,1,partial,1,images/Ex7.jpg,right,training,hard,3,,,,,
,,,,,652be58c7d5885fc2d4abe9e,001,64,female,British,Bachelor Degree,2024-03-06_16h32.11.137,CRL1h,2023.2.3,Win32,60.24096386,65e67470ae2fbf2172c317b2,65e87da09988e2eb938ce968,,,,,,,,,,,951.5015,0.9,952.4004,952.4005,953.0331,right,1,0.6245,,953.0332,954.0306,4,13,77,14,1,partial,1,images/Ex7.jpg,right,training,hard,3,,,,,
,,,,,652be58c7d5885fc2d4abe9e,001,64,female,British,Bachelor Degree,2024-03-06_16h32.11.137,CRL1h,2023.2.3,Win32,60.24096386,65e67470ae2fbf2172c317b2,65e87da09988e2eb938ce968,,,,,,,,,,,954.0312,1.3,955.3289,955.3289,956.1458,left,1,0.8118,,956.1458,957.1447,4,14,78,10,1,partial,1,images/Ex3.jpg,left,training,hard,3,,,,,
,,,,,652be58c7d5885fc2d4abe9e,001,64,female,British,Bachelor Degree,2024-03-06_16h32.11.137,CRL1h,2023.2.3,Win32,60.24096386,65e67470ae2fbf2172c317b2,65e87da09988e2eb938ce968,,,,,,,,,,,957.1455,1.3,958.4427,958.4431,959.5793,left,0,1.1244,,959.5793,960.5737,4,15,79,7,1,partial,1,images/Ex8.jpg,right,training,hard,3,,,,,
,,,,,652be58c7d5885fc2d4abe9e,001,64,female,British,Bachelor Degree,2024-03-06_16h32.11.137,CRL1h,2023.2.3,Win32,60.24096386,65e67470ae2fbf2172c317b2,65e87da09988e2eb938ce968,,,,,,,,,,,960.5744,1,961.5736,961.5738,962.623,left,1,1.0396,,962.6233,963.6216,5,0,80,8,1,partial,1,images/Ex1.jpg,left,training,hard,3,,,,,
,,,,,652be58c7d5885fc2d4abe9e,001,64,female,British,Bachelor Degree,2024-03-06_16h32.11.137,CRL1h,2023.2.3,Win32,60.24096386,65e67470ae2fbf2172c317b2,65e87da09988e2eb938ce968,,,,,,,,,,,963.622,1.1,964.7204,964.7204,965.4744,left,1,0.7418,,965.4747,966.468,5,1,81,1,1,partial,1,images/Ex2.jpg,left,training,hard,3,,,,,
,,,,,652be58c7d5885fc2d4abe9e,001,64,female,British,Bachelor Degree,2024-03-06_16h32.11.137,CRL1h,2023.2.3,Win32,60.24096386,65e67470ae2fbf2172c317b2,65e87da09988e2eb938ce968,,,,,,,,,,,966.4685,0.9,967.3677,967.3678,968.1392,left,0,0.766,,968.1392,969.1327,5,2,82,13,1,partial,1,images/Ex6.jpg,right,training,hard,3,,,,,
,,,,,652be58c7d5885fc2d4abe9e,001,64,female,British,Bachelor Degree,2024-03-06_16h32.11.137,CRL1h,2023.2.3,Win32,60.24096386,65e67470ae2fbf2172c317b2,65e87da09988e2eb938ce968,,,,,,,,,,,969.1337,0.7,969.8324,969.8324,970.6151,left,0,0.7787,,970.6152,971.6137,5,3,83,15,1,partial,1,images/Ex8.jpg,right,training,hard,3,,,,,
,,,,,652be58c7d5885fc2d4abe9e,001,64,female,British,Bachelor Degree,2024-03-06_16h32.11.137,CRL1h,2023.2.3,Win32,60.24096386,65e67470ae2fbf2172c317b2,65e87da09988e2eb938ce968,,,,,,,,,,,971.6147,1.2,972.8127,972.8128,973.6948,left,1,0.8724,,973.6949,974.6936,5,4,84,9,1,partial,1,images/Ex2.jpg,left,training,hard,3,,,,,
,,,,,652be58c7d5885fc2d4abe9e,001,64,female,British,Bachelor Degree,2024-03-06_16h32.11.137,CRL1h,2023.2.3,Win32,60.24096386,65e67470ae2fbf2172c317b2,65e87da09988e2eb938ce968,,,,,,,,,,,974.6943,1.3,975.9912,975.9913,976.8758,left,1,0.8828,,976.8759,977.8724,5,5,85,2,1,partial,1,images/Ex3.jpg,left,training,hard,3,,,,,
,,,,,652be58c7d5885fc2d4abe9e,001,64,female,British,Bachelor Degree,2024-03-06_16h32.11.137,CRL1h,2023.2.3,Win32,60.24096386,65e67470ae2fbf2172c317b2,65e87da09988e2eb938ce968,,,,,,,,,,,977.873,1.3,979.1712,979.1712,979.7394,left,0,0.563,,979.7395,980.7377,5,6,86,14,1,partial,1,images/Ex7.jpg,right,training,hard,3,,,,,
,,,,,652be58c7d5885fc2d4abe9e,001,64,female,British,Bachelor Degree,2024-03-06_16h32.11.137,CRL1h,2023.2.3,Win32,60.24096386,65e67470ae2fbf2172c317b2,65e87da09988e2eb938ce968,,,,,,,,,,,980.7388,1.5,982.2361,982.2362,983.5008,left,0,1.2561,,983.5009,984.4993,5,7,87,5,1,partial,1,images/Ex6.jpg,right,training,hard,3,,,,,
,,,,,652be58c7d5885fc2d4abe9e,001,64,female,British,Bachelor Degree,2024-03-06_16h32.11.137,CRL1h,2023.2.3,Win32,60.24096386,65e67470ae2fbf2172c317b2,65e87da09988e2eb938ce968,,,,,,,,,,,984.5,1,985.4993,985.4993,986.9482,right,1,1.4413,,986.9483,987.946,5,8,88,4,1,partial,1,images/Ex5.jpg,right,training,hard,3,,,,,
,,,,,652be58c7d5885fc2d4abe9e,001,64,female,British,Bachelor Degree,2024-03-06_16h32.11.137,CRL1h,2023.2.3,Win32,60.24096386,65e67470ae2fbf2172c317b2,65e87da09988e2eb938ce968,,,,,,,,,,,987.9467,1.2,989.145,989.1451,990.0447,left,1,0.8974,,990.0448,991.0431,5,9,89,11,1,partial,1,images/Ex4.jpg,left,training,hard,3,,,,,
,,,,,652be58c7d5885fc2d4abe9e,001,64,female,British,Bachelor Degree,2024-03-06_16h32.11.137,CRL1h,2023.2.3,Win32,60.24096386,65e67470ae2fbf2172c317b2,65e87da09988e2eb938ce968,,,,,,,,,,,991.0436,0.5,991.5427,991.5427,992.4252,right,1,0.8734,,992.4253,993.4234,5,10,90,6,1,partial,1,images/Ex7.jpg,right,training,hard,3,,,,,
,,,,,652be58c7d5885fc2d4abe9e,001,64,female,British,Bachelor Degree,2024-03-06_16h32.11.137,CRL1h,2023.2.3,Win32,60.24096386,65e67470ae2fbf2172c317b2,65e87da09988e2eb938ce968,,,,,,,,,,,993.424,1.3,994.7223,994.7223,995.7552,right,0,1.025,,995.7553,996.7535,5,11,91,0,1,partial,1,images/Ex1.jpg,left,training,hard,3,,,,,
,,,,,652be58c7d5885fc2d4abe9e,001,64,female,British,Bachelor Degree,2024-03-06_16h32.11.137,CRL1h,2023.2.3,Win32,60.24096386,65e67470ae2fbf2172c317b2,65e87da09988e2eb938ce968,,,,,,,,,,,996.7541,0.8,997.5529,997.5529,998.5361,right,1,0.9741,,998.5361,999.534,5,12,92,12,1,partial,1,images/Ex5.jpg,right,training,hard,3,,,,,
,,,,,652be58c7d5885fc2d4abe9e,001,64,female,British,Bachelor Degree,2024-03-06_16h32.11.137,CRL1h,2023.2.3,Win32,60.24096386,65e67470ae2fbf2172c317b2,65e87da09988e2eb938ce968,,,,,,,,,,,999.5344,0.7,1000.2335,1000.2336,1001.6341,left,0,1.3975,,1001.6341,1002.631,5,13,93,7,1,partial,1,images/Ex8.jpg,right,training,hard,3,,,,,
,,,,,652be58c7d5885fc2d4abe9e,001,64,female,British,Bachelor Degree,2024-03-06_16h32.11.137,CRL1h,2023.2.3,Win32,60.24096386,65e67470ae2fbf2172c317b2,65e87da09988e2eb938ce968,,,,,,,,,,,1002.6316,1.1,1003.7302,1003.7302,1004.4134,left,1,0.6743,,1004.4134,1005.4117,5,14,94,3,1,partial,1,images/Ex4.jpg,left,training,hard,3,,,,,
,,,,,652be58c7d5885fc2d4abe9e,001,64,female,British,Bachelor Degree,2024-03-06_16h32.11.137,CRL1h,2023.2.3,Win32,60.24096386,65e67470ae2fbf2172c317b2,65e87da09988e2eb938ce968,,,,,,,,,,,1005.4121,1,1006.4123,1006.4124,1007.1621,left,1,0.7388,,1007.1624,1008.1589,5,15,95,10,1,partial,1,images/Ex3.jpg,left,training,hard,3,,,,,
,,,,,652be58c7d5885fc2d4abe9e,001,64,female,British,Bachelor Degree,2024-03-06_16h32.11.137,CRL1h,2023.2.3,Win32,60.24096386,65e67470ae2fbf2172c317b2,65e87da09988e2eb938ce968,,,,,,,,,,,1008.1596,1.4,1009.5573,1009.5573,1010.575,right,0,1.0083,,1010.5751,1011.5719,6,0,96,0,1,partial,1,images/Ex1.jpg,left,training,hard,3,,,,,
,,,,,652be58c7d5885fc2d4abe9e,001,64,female,British,Bachelor Degree,2024-03-06_16h32.11.137,CRL1h,2023.2.3,Win32,60.24096386,65e67470ae2fbf2172c317b2,65e87da09988e2eb938ce968,,,,,,,,,,,1011.5726,0.6,1012.1712,1012.1712,1012.8212,left,1,0.6454,,1012.8212,1013.821,6,1,97,3,1,partial,1,images/Ex4.jpg,left,training,hard,3,,,,,
,,,,,652be58c7d5885fc2d4abe9e,001,64,female,British,Bachelor Degree,2024-03-06_16h32.11.137,CRL1h,2023.2.3,Win32,60.24096386,65e67470ae2fbf2172c317b2,65e87da09988e2eb938ce968,,,,,,,,,,,1013.8219,1,1014.8213,1014.8214,1015.504,left,0,0.6777,,1015.5043,1016.5013,6,2,98,15,1,partial,1,images/Ex8.jpg,right,training,hard,3,,,,,
,,,,,652be58c7d5885fc2d4abe9e,001,64,female,British,Bachelor Degree,2024-03-06_16h32.11.137,CRL1h,2023.2.3,Win32,60.24096386,65e67470ae2fbf2172c317b2,65e87da09988e2eb938ce968,,,,,,,,,,,1016.5018,1.1,1017.601,1017.601,1018.6338,right,0,1.0245,,1018.6339,1019.6312,6,3,99,2,1,partial,1,images/Ex3.jpg,left,training,hard,3,,,,,
,,,,,652be58c7d5885fc2d4abe9e,001,64,female,British,Bachelor Degree,2024-03-06_16h32.11.137,CRL1h,2023.2.3,Win32,60.24096386,65e67470ae2fbf2172c317b2,65e87da09988e2eb938ce968,,,,,,,,,,,1019.6318,0.9,1020.53,1020.5301,1021.5151,left,0,0.9743,,1021.5152,1022.5129,6,4,100,5,1,partial,1,images/Ex6.jpg,right,training,hard,3,,,,,
,,,,,652be58c7d5885fc2d4abe9e,001,64,female,British,Bachelor Degree,2024-03-06_16h32.11.137,CRL1h,2023.2.3,Win32,60.24096386,65e67470ae2fbf2172c317b2,65e87da09988e2eb938ce968,,,,,,,,,,,1022.5138,0.8,1023.3119,1023.312,1024.4456,right,1,1.1222,,1024.4456,1025.4422,6,5,101,14,1,partial,1,images/Ex7.jpg,right,training,hard,3,,,,,
,,,,,652be58c7d5885fc2d4abe9e,001,64,female,British,Bachelor Degree,2024-03-06_16h32.11.137,CRL1h,2023.2.3,Win32,60.24096386,65e67470ae2fbf2172c317b2,65e87da09988e2eb938ce968,,,,,,,,,,,1025.4429,0.9,1026.3416,1026.3417,1027.1602,left,1,0.8098,,1027.1603,1028.1559,6,6,102,1,1,partial,1,images/Ex2.jpg,left,training,hard,3,,,,,
,,,,,652be58c7d5885fc2d4abe9e,001,64,female,British,Bachelor Degree,2024-03-06_16h32.11.137,CRL1h,2023.2.3,Win32,60.24096386,65e67470ae2fbf2172c317b2,65e87da09988e2eb938ce968,,,,,,,,,,,1028.1566,1.1,1029.2549,1029.255,1030.5714,left,1,1.3099,,1030.5714,1031.5694,6,7,103,8,1,partial,1,images/Ex1.jpg,left,training,hard,3,,,,,
,,,,,652be58c7d5885fc2d4abe9e,001,64,female,British,Bachelor Degree,2024-03-06_16h32.11.137,CRL1h,2023.2.3,Win32,60.24096386,65e67470ae2fbf2172c317b2,65e87da09988e2eb938ce968,,,,,,,,,,,1031.5699,1.3,1032.8686,1032.8687,1033.6542,left,0,0.7821,,1033.6543,1034.6501,6,8,104,12,1,partial,1,images/Ex5.jpg,right,training,hard,3,,,,,
,,,,,652be58c7d5885fc2d4abe9e,001,64,female,British,Bachelor Degree,2024-03-06_16h32.11.137,CRL1h,2023.2.3,Win32,60.24096386,65e67470ae2fbf2172c317b2,65e87da09988e2eb938ce968,,,,,,,,,,,1034.6513,1.5,1036.1489,1036.149,1037.1644,left,0,1.0072,,1037.1644,1038.1629,6,9,105,6,1,partial,1,images/Ex7.jpg,right,training,hard,3,,,,,
,,,,,652be58c7d5885fc2d4abe9e,001,64,female,British,Bachelor Degree,2024-03-06_16h32.11.137,CRL1h,2023.2.3,Win32,60.24096386,65e67470ae2fbf2172c317b2,65e87da09988e2eb938ce968,,,,,,,,,,,1038.1644,1.2,1039.3627,1039.3628,1040.3131,right,0,0.9433,,1040.3131,1041.3109,6,10,106,10,1,partial,1,images/Ex3.jpg,left,training,hard,3,,,,,
,,,,,652be58c7d5885fc2d4abe9e,001,64,female,British,Bachelor Degree,2024-03-06_16h32.11.137,CRL1h,2023.2.3,Win32,60.24096386,65e67470ae2fbf2172c317b2,65e87da09988e2eb938ce968,,,,,,,,,,,1041.3117,0.7,1042.01,1042.0101,1043.2243,left,0,1.2078,,1043.2245,1044.2224,6,11,107,7,1,partial,1,images/Ex8.jpg,right,training,hard,3,,,,,
,,,,,652be58c7d5885fc2d4abe9e,001,64,female,British,Bachelor Degree,2024-03-06_16h32.11.137,CRL1h,2023.2.3,Win32,60.24096386,65e67470ae2fbf2172c317b2,65e87da09988e2eb938ce968,,,,,,,,,,,1044.2232,1.1,1045.3216,1045.3216,1046.3052,left,0,0.9822,,1046.3054,1047.3038,6,12,108,13,1,partial,1,images/Ex6.jpg,right,training,hard,3,,,,,
,,,,,652be58c7d5885fc2d4abe9e,001,64,female,British,Bachelor Degree,2024-03-06_16h32.11.137,CRL1h,2023.2.3,Win32,60.24096386,65e67470ae2fbf2172c317b2,65e87da09988e2eb938ce968,,,,,,,,,,,1047.3046,0.5,1047.8036,1047.8037,1048.7364,left,0,0.9244,,1048.7366,1049.7348,6,13,109,4,1,partial,1,images/Ex5.jpg,right,training,hard,3,,,,,
,,,,,652be58c7d5885fc2d4abe9e,001,64,female,British,Bachelor Degree,2024-03-06_16h32.11.137,CRL1h,2023.2.3,Win32,60.24096386,65e67470ae2fbf2172c317b2,65e87da09988e2eb938ce968,,,,,,,,,,,1049.7354,0.7,1050.4348,1050.4349,1051.3544,left,1,0.9087,,1051.3545,1052.3497,6,14,110,11,1,partial,1,images/Ex4.jpg,left,training,hard,3,,,,,
,,,,,652be58c7d5885fc2d4abe9e,001,64,female,British,Bachelor Degree,2024-03-06_16h32.11.137,CRL1h,2023.2.3,Win32,60.24096386,65e67470ae2fbf2172c317b2,65e87da09988e2eb938ce968,,,,,,,,,,,1052.3506,1,1053.3474,1053.3474,1054.5508,left,1,1.192,,1054.5509,1055.5447,6,15,111,9,1,partial,1,images/Ex2.jpg,left,training,hard,3,,,,,
,,,,,652be58c7d5885fc2d4abe9e,001,64,female,British,Bachelor Degree,2024-03-06_16h32.11.137,CRL1h,2023.2.3,Win32,60.24096386,65e67470ae2fbf2172c317b2,65e87da09988e2eb938ce968,,,,,,,,,,,1055.5455,1,1056.5441,1056.5441,1057.415,right,1,0.8587,,1057.4152,1058.4089,7,0,112,7,1,partial,1,images/Ex8.jpg,right,training,hard,3,,,,,
,,,,,652be58c7d5885fc2d4abe9e,001,64,female,British,Bachelor Degree,2024-03-06_16h32.11.137,CRL1h,2023.2.3,Win32,60.24096386,65e67470ae2fbf2172c317b2,65e87da09988e2eb938ce968,,,,,,,,,,,1058.4093,1.2,1059.6077,1059.6078,1060.6796,right,1,1.0687,,1060.6797,1061.6725,7,1,113,6,1,partial,1,images/Ex7.jpg,right,training,hard,3,,,,,
,,,,,652be58c7d5885fc2d4abe9e,001,64,female,British,Bachelor Degree,2024-03-06_16h32.11.137,CRL1h,2023.2.3,Win32,60.24096386,65e67470ae2fbf2172c317b2,65e87da09988e2eb938ce968,,,,,,,,,,,1061.6739,0.9,1062.5722,1062.5723,1063.4377,right,1,0.8562,,1063.4378,1064.4358,7,2,114,12,1,partial,1,images/Ex5.jpg,right,training,hard,3,,,,,
