infCons.started,infCons.stopped,resp_consent.keys,resp_consent.rt,resp_consent.duration,participant,session,Age?,Gender?,Nationality?,Highest Educational Degree?,date,expName,psychopyVersion,OS,frameRate,STUDY_ID,SESSION_ID,instructions.started,instructions.stopped,resp_instructions.keys,resp_instructions.rt,resp_instructions.duration,nextTask.started,nextTask.stopped,ready_task.keys,ready_task.rt,ready_task.duration,fixation.started,ITI,fixation.stopped,stim.started,stim.stopped,response.keys,response.corr,response.rt,response.duration,feedback.started,feedback.stopped,trials.thisRepN,trials.thisTrialN,trials.thisN,trials.thisIndex,trials.ran,task,phase,Exemplars,r_correct,condition,difficulty,set,end.started,end.stopped,resp_end.keys,resp_end.rt,resp_end.duration
0.0002,3.4058,space,3.3857,,6570824312e21ad0a49858f4,001,30,Male,Malaysia,Master,2024-03-05_22h20.49.494,CRL1h,2023.2.3,MacIntel,64.1025641,65e67470ae2fbf2172c317b2,65e79a8f010247fd67c1a9e4,,,,,,,,,,,,,,,,,,,,,,,,,,,,,,,,,,,,,,
,,,,,6570824312e21ad0a49858f4,001,30,Male,Malaysia,Master,2024-03-05_22h20.49.494,CRL1h,2023.2.3,MacIntel,64.1025641,65e67470ae2fbf2172c317b2,65e79a8f010247fd67c1a9e4,3.4061,31.4966,space,28.0645,,,,,,,,,,,,,,,,,,,,,,,,,,,,,,,,,,
,,,,,6570824312e21ad0a49858f4,001,30,Male,Malaysia,Master,2024-03-05_22h20.49.494,CRL1h,2023.2.3,MacIntel,64.1025641,65e67470ae2fbf2172c317b2,65e79a8f010247fd67c1a9e4,,,,,,31.5074,33.1554,space,1.6238,,33.1626,1,34.1551,34.1553,37.9553,left,1,3.79,,37.9657,38.955,0,0,0,9,1,total,1,images/Ex2.jpg,left,training,hard,1,,,,,
,,,,,6570824312e21ad0a49858f4,001,30,Male,Malaysia,Master,2024-03-05_22h20.49.494,CRL1h,2023.2.3,MacIntel,64.1025641,65e67470ae2fbf2172c317b2,65e79a8f010247fd67c1a9e4,,,,,,,,,,,38.9559,1.3,40.2459,40.2459,41.2543,right,0,0.998,,41.2543,42.2548,0,1,1,10,1,total,1,images/Ex3.jpg,left,training,hard,1,,,,,
,,,,,6570824312e21ad0a49858f4,001,30,Male,Malaysia,Master,2024-03-05_22h20.49.494,CRL1h,2023.2.3,MacIntel,64.1025641,65e67470ae2fbf2172c317b2,65e79a8f010247fd67c1a9e4,,,,,,,,,,,42.2555,0.7,42.9548,42.9549,44.0119,right,0,1.0556,,44.0119,45.0049,0,2,2,3,1,total,1,images/Ex4.jpg,left,training,hard,1,,,,,
,,,,,6570824312e21ad0a49858f4,001,30,Male,Malaysia,Master,2024-03-05_22h20.49.494,CRL1h,2023.2.3,MacIntel,64.1025641,65e67470ae2fbf2172c317b2,65e79a8f010247fd67c1a9e4,,,,,,,,,,,45.0056,1.4,46.4049,46.4049,47.3039,left,0,0.8961,,47.3039,48.3039,0,3,3,4,1,total,1,images/Ex5.jpg,right,training,hard,1,,,,,
,,,,,6570824312e21ad0a49858f4,001,30,Male,Malaysia,Master,2024-03-05_22h20.49.494,CRL1h,2023.2.3,MacIntel,64.1025641,65e67470ae2fbf2172c317b2,65e79a8f010247fd67c1a9e4,,,,,,,,,,,48.3045,0.8,49.1043,49.1044,50.0546,right,1,0.9488,,50.0546,51.0601,0,4,4,6,1,total,1,images/Ex7.jpg,right,training,hard,1,,,,,
,,,,,6570824312e21ad0a49858f4,001,30,Male,Malaysia,Master,2024-03-05_22h20.49.494,CRL1h,2023.2.3,MacIntel,64.1025641,65e67470ae2fbf2172c317b2,65e79a8f010247fd67c1a9e4,,,,,,,,,,,51.0606,0.8,51.8547,51.8548,53.855,right,0,1.9898,,53.8551,54.8546,0,5,5,2,1,total,1,images/Ex3.jpg,left,training,hard,1,,,,,
,,,,,6570824312e21ad0a49858f4,001,30,Male,Malaysia,Master,2024-03-05_22h20.49.494,CRL1h,2023.2.3,MacIntel,64.1025641,65e67470ae2fbf2172c317b2,65e79a8f010247fd67c1a9e4,,,,,,,,,,,54.855,0.6,55.4539,55.454,57.3043,right,1,1.8478,,57.3044,58.2926,0,6,6,15,1,total,1,images/Ex8.jpg,right,training,hard,1,,,,,
,,,,,6570824312e21ad0a49858f4,001,30,Male,Malaysia,Master,2024-03-05_22h20.49.494,CRL1h,2023.2.3,MacIntel,64.1025641,65e67470ae2fbf2172c317b2,65e79a8f010247fd67c1a9e4,,,,,,,,,,,58.293,0.8,59.0873,59.0874,60.5046,right,0,1.4058,,60.5047,61.5047,0,7,7,8,1,total,1,images/Ex1.jpg,left,training,hard,1,,,,,
,,,,,6570824312e21ad0a49858f4,001,30,Male,Malaysia,Master,2024-03-05_22h20.49.494,CRL1h,2023.2.3,MacIntel,64.1025641,65e67470ae2fbf2172c317b2,65e79a8f010247fd67c1a9e4,,,,,,,,,,,61.5187,1.5,63.0212,63.0213,64.1872,left,0,1.1634,,64.1872,65.1939,0,8,8,7,1,total,1,images/Ex8.jpg,right,training,hard,1,,,,,
,,,,,6570824312e21ad0a49858f4,001,30,Male,Malaysia,Master,2024-03-05_22h20.49.494,CRL1h,2023.2.3,MacIntel,64.1025641,65e67470ae2fbf2172c317b2,65e79a8f010247fd67c1a9e4,,,,,,,,,,,65.1944,0.8,65.9879,65.988,67.1215,right,0,1.1256,,67.1216,68.1277,0,9,9,0,1,total,1,images/Ex1.jpg,left,training,hard,1,,,,,
,,,,,6570824312e21ad0a49858f4,001,30,Male,Malaysia,Master,2024-03-05_22h20.49.494,CRL1h,2023.2.3,MacIntel,64.1025641,65e67470ae2fbf2172c317b2,65e79a8f010247fd67c1a9e4,,,,,,,,,,,68.1282,1.4,69.5211,69.5211,70.5541,left,0,1.0304,,70.5541,71.5607,0,10,10,12,1,total,1,images/Ex5.jpg,right,training,hard,1,,,,,
,,,,,6570824312e21ad0a49858f4,001,30,Male,Malaysia,Master,2024-03-05_22h20.49.494,CRL1h,2023.2.3,MacIntel,64.1025641,65e67470ae2fbf2172c317b2,65e79a8f010247fd67c1a9e4,,,,,,,,,,,71.5612,1.3,72.8545,72.8545,73.7378,right,1,0.8778,,73.7378,74.7377,0,11,11,14,1,total,1,images/Ex7.jpg,right,training,hard,1,,,,,
,,,,,6570824312e21ad0a49858f4,001,30,Male,Malaysia,Master,2024-03-05_22h20.49.494,CRL1h,2023.2.3,MacIntel,64.1025641,65e67470ae2fbf2172c317b2,65e79a8f010247fd67c1a9e4,,,,,,,,,,,74.7382,1.2,75.9273,75.9274,77.0384,right,1,1.1095,,77.0384,78.0376,0,12,12,13,1,total,1,images/Ex6.jpg,right,training,hard,1,,,,,
,,,,,6570824312e21ad0a49858f4,001,30,Male,Malaysia,Master,2024-03-05_22h20.49.494,CRL1h,2023.2.3,MacIntel,64.1025641,65e67470ae2fbf2172c317b2,65e79a8f010247fd67c1a9e4,,,,,,,,,,,78.0381,0.8,78.8442,78.8443,79.9711,left,1,1.1159,,79.9711,80.9616,0,13,13,11,1,total,1,images/Ex4.jpg,left,training,hard,1,,,,,
,,,,,6570824312e21ad0a49858f4,001,30,Male,Malaysia,Master,2024-03-05_22h20.49.494,CRL1h,2023.2.3,MacIntel,64.1025641,65e67470ae2fbf2172c317b2,65e79a8f010247fd67c1a9e4,,,,,,,,,,,80.9621,1.3,82.2544,82.2545,83.2707,right,1,1.012,,83.2707,84.271,0,14,14,5,1,total,1,images/Ex6.jpg,right,training,hard,1,,,,,
,,,,,6570824312e21ad0a49858f4,001,30,Male,Malaysia,Master,2024-03-05_22h20.49.494,CRL1h,2023.2.3,MacIntel,64.1025641,65e67470ae2fbf2172c317b2,65e79a8f010247fd67c1a9e4,,,,,,,,,,,84.2714,0.6,84.8709,84.8709,85.8301,left,1,0.958,,85.8301,86.8203,0,15,15,1,1,total,1,images/Ex2.jpg,left,training,hard,1,,,,,
,,,,,6570824312e21ad0a49858f4,001,30,Male,Malaysia,Master,2024-03-05_22h20.49.494,CRL1h,2023.2.3,MacIntel,64.1025641,65e67470ae2fbf2172c317b2,65e79a8f010247fd67c1a9e4,,,,,,,,,,,86.8207,1.2,88.021,88.021,88.9877,left,0,0.958,,88.9878,89.9876,1,0,16,15,1,total,1,images/Ex8.jpg,right,training,hard,1,,,,,
,,,,,6570824312e21ad0a49858f4,001,30,Male,Malaysia,Master,2024-03-05_22h20.49.494,CRL1h,2023.2.3,MacIntel,64.1025641,65e67470ae2fbf2172c317b2,65e79a8f010247fd67c1a9e4,,,,,,,,,,,89.9879,0.6,90.5876,90.5876,91.5772,right,1,0.9885,,91.5773,92.5712,1,1,17,4,1,total,1,images/Ex5.jpg,right,training,hard,1,,,,,
,,,,,6570824312e21ad0a49858f4,001,30,Male,Malaysia,Master,2024-03-05_22h20.49.494,CRL1h,2023.2.3,MacIntel,64.1025641,65e67470ae2fbf2172c317b2,65e79a8f010247fd67c1a9e4,,,,,,,,,,,92.5716,0.6,93.1638,93.1638,94.1208,left,0,0.9467,,94.1209,95.1272,1,2,18,6,1,total,1,images/Ex7.jpg,right,training,hard,1,,,,,
,,,,,6570824312e21ad0a49858f4,001,30,Male,Malaysia,Master,2024-03-05_22h20.49.494,CRL1h,2023.2.3,MacIntel,64.1025641,65e67470ae2fbf2172c317b2,65e79a8f010247fd67c1a9e4,,,,,,,,,,,95.1277,1,96.1207,96.1208,97.5208,right,0,1.396,,97.5208,98.525,1,3,19,3,1,total,1,images/Ex4.jpg,left,training,hard,1,,,,,
,,,,,6570824312e21ad0a49858f4,001,30,Male,Malaysia,Master,2024-03-05_22h20.49.494,CRL1h,2023.2.3,MacIntel,64.1025641,65e67470ae2fbf2172c317b2,65e79a8f010247fd67c1a9e4,,,,,,,,,,,98.5254,1.3,99.8153,99.8155,101.011,right,1,1.194,,101.0111,102.0102,1,4,20,5,1,total,1,images/Ex6.jpg,right,training,hard,1,,,,,
,,,,,6570824312e21ad0a49858f4,001,30,Male,Malaysia,Master,2024-03-05_22h20.49.494,CRL1h,2023.2.3,MacIntel,64.1025641,65e67470ae2fbf2172c317b2,65e79a8f010247fd67c1a9e4,,,,,,,,,,,102.0108,0.9,102.9118,102.9118,104.9428,left,0,2.03,,104.9428,105.9375,1,5,21,13,1,total,1,images/Ex6.jpg,right,training,hard,1,,,,,
,,,,,6570824312e21ad0a49858f4,001,30,Male,Malaysia,Master,2024-03-05_22h20.49.494,CRL1h,2023.2.3,MacIntel,64.1025641,65e67470ae2fbf2172c317b2,65e79a8f010247fd67c1a9e4,,,,,,,,,,,105.9509,1.3,107.2539,107.2539,108.0874,right,0,0.8238,,108.0875,109.0873,1,6,22,10,1,total,1,images/Ex3.jpg,left,training,hard,1,,,,,
,,,,,6570824312e21ad0a49858f4,001,30,Male,Malaysia,Master,2024-03-05_22h20.49.494,CRL1h,2023.2.3,MacIntel,64.1025641,65e67470ae2fbf2172c317b2,65e79a8f010247fd67c1a9e4,,,,,,,,,,,109.0878,1,110.0871,110.0872,112.0872,right,0,1.9957,,112.0872,113.0871,1,7,23,8,1,total,1,images/Ex1.jpg,left,training,hard,1,,,,,
,,,,,6570824312e21ad0a49858f4,001,30,Male,Malaysia,Master,2024-03-05_22h20.49.494,CRL1h,2023.2.3,MacIntel,64.1025641,65e67470ae2fbf2172c317b2,65e79a8f010247fd67c1a9e4,,,,,,,,,,,113.0876,1.2,114.2872,114.2872,114.9757,right,1,0.6873,,114.9758,115.9705,1,8,24,7,1,total,1,images/Ex8.jpg,right,training,hard,1,,,,,
,,,,,6570824312e21ad0a49858f4,001,30,Male,Malaysia,Master,2024-03-05_22h20.49.494,CRL1h,2023.2.3,MacIntel,64.1025641,65e67470ae2fbf2172c317b2,65e79a8f010247fd67c1a9e4,,,,,,,,,,,115.9709,1.1,117.0539,117.054,117.9536,left,1,0.8963,,117.9536,118.9533,1,9,25,9,1,total,1,images/Ex2.jpg,left,training,hard,1,,,,,
,,,,,6570824312e21ad0a49858f4,001,30,Male,Malaysia,Master,2024-03-05_22h20.49.494,CRL1h,2023.2.3,MacIntel,64.1025641,65e67470ae2fbf2172c317b2,65e79a8f010247fd67c1a9e4,,,,,,,,,,,118.9537,1.1,120.0601,120.0602,120.8704,left,1,0.8077,,120.8704,121.8703,1,10,26,1,1,total,1,images/Ex2.jpg,left,training,hard,1,,,,,
,,,,,6570824312e21ad0a49858f4,001,30,Male,Malaysia,Master,2024-03-05_22h20.49.494,CRL1h,2023.2.3,MacIntel,64.1025641,65e67470ae2fbf2172c317b2,65e79a8f010247fd67c1a9e4,,,,,,,,,,,121.8707,0.6,122.4707,122.4707,123.4435,right,1,0.9715,,123.4435,124.4371,1,11,27,14,1,total,1,images/Ex7.jpg,right,training,hard,1,,,,,
,,,,,6570824312e21ad0a49858f4,001,30,Male,Malaysia,Master,2024-03-05_22h20.49.494,CRL1h,2023.2.3,MacIntel,64.1025641,65e67470ae2fbf2172c317b2,65e79a8f010247fd67c1a9e4,,,,,,,,,,,124.4374,1.5,125.9371,125.9371,126.8703,left,0,0.9276,,126.8704,127.8704,1,12,28,12,1,total,1,images/Ex5.jpg,right,training,hard,1,,,,,
,,,,,6570824312e21ad0a49858f4,001,30,Male,Malaysia,Master,2024-03-05_22h20.49.494,CRL1h,2023.2.3,MacIntel,64.1025641,65e67470ae2fbf2172c317b2,65e79a8f010247fd67c1a9e4,,,,,,,,,,,127.8708,0.8,128.6703,128.6703,131.0607,right,0,2.3892,,131.0607,132.0531,1,13,29,2,1,total,1,images/Ex3.jpg,left,training,hard,1,,,,,
,,,,,6570824312e21ad0a49858f4,001,30,Male,Malaysia,Master,2024-03-05_22h20.49.494,CRL1h,2023.2.3,MacIntel,64.1025641,65e67470ae2fbf2172c317b2,65e79a8f010247fd67c1a9e4,,,,,,,,,,,132.0669,1.4,133.4696,133.4696,134.67,right,0,1.1981,,134.67,135.6702,1,14,30,0,1,total,1,images/Ex1.jpg,left,training,hard,1,,,,,
,,,,,6570824312e21ad0a49858f4,001,30,Male,Malaysia,Master,2024-03-05_22h20.49.494,CRL1h,2023.2.3,MacIntel,64.1025641,65e67470ae2fbf2172c317b2,65e79a8f010247fd67c1a9e4,,,,,,,,,,,135.6836,0.6,136.2869,136.2869,137.4366,left,1,1.147,,137.4367,138.436,1,15,31,11,1,total,1,images/Ex4.jpg,left,training,hard,1,,,,,
,,,,,6570824312e21ad0a49858f4,001,30,Male,Malaysia,Master,2024-03-05_22h20.49.494,CRL1h,2023.2.3,MacIntel,64.1025641,65e67470ae2fbf2172c317b2,65e79a8f010247fd67c1a9e4,,,,,,,,,,,138.4365,0.8,139.2295,139.2295,139.9536,left,1,0.7187,,139.9537,140.9533,2,0,32,3,1,total,1,images/Ex4.jpg,left,training,hard,1,,,,,
,,,,,6570824312e21ad0a49858f4,001,30,Male,Malaysia,Master,2024-03-05_22h20.49.494,CRL1h,2023.2.3,MacIntel,64.1025641,65e67470ae2fbf2172c317b2,65e79a8f010247fd67c1a9e4,,,,,,,,,,,140.9538,1.3,142.2534,142.2535,143.0598,right,1,0.8051,,143.0598,144.0536,2,1,33,5,1,total,1,images/Ex6.jpg,right,training,hard,1,,,,,
,,,,,6570824312e21ad0a49858f4,001,30,Male,Malaysia,Master,2024-03-05_22h20.49.494,CRL1h,2023.2.3,MacIntel,64.1025641,65e67470ae2fbf2172c317b2,65e79a8f010247fd67c1a9e4,,,,,,,,,,,144.0542,0.6,144.6533,144.6534,145.3202,left,1,0.6622,,145.3202,146.3192,2,2,34,11,1,total,1,images/Ex4.jpg,left,training,hard,1,,,,,
,,,,,6570824312e21ad0a49858f4,001,30,Male,Malaysia,Master,2024-03-05_22h20.49.494,CRL1h,2023.2.3,MacIntel,64.1025641,65e67470ae2fbf2172c317b2,65e79a8f010247fd67c1a9e4,,,,,,,,,,,146.3197,1.3,147.6204,147.6205,148.3703,right,0,0.74,,148.3703,149.3692,2,3,35,10,1,total,1,images/Ex3.jpg,left,training,hard,1,,,,,
,,,,,6570824312e21ad0a49858f4,001,30,Male,Malaysia,Master,2024-03-05_22h20.49.494,CRL1h,2023.2.3,MacIntel,64.1025641,65e67470ae2fbf2172c317b2,65e79a8f010247fd67c1a9e4,,,,,,,,,,,149.3698,1.2,150.57,150.57,153.1529,right,1,2.5745,,153.1529,154.1535,2,4,36,7,1,total,1,images/Ex8.jpg,right,training,hard,1,,,,,
,,,,,6570824312e21ad0a49858f4,001,30,Male,Malaysia,Master,2024-03-05_22h20.49.494,CRL1h,2023.2.3,MacIntel,64.1025641,65e67470ae2fbf2172c317b2,65e79a8f010247fd67c1a9e4,,,,,,,,,,,154.1672,1.3,155.47,155.47,157.6534,right,1,2.1799,,157.6534,158.6526,2,5,37,12,1,total,1,images/Ex5.jpg,right,training,hard,1,,,,,
,,,,,6570824312e21ad0a49858f4,001,30,Male,Malaysia,Master,2024-03-05_22h20.49.494,CRL1h,2023.2.3,MacIntel,64.1025641,65e67470ae2fbf2172c317b2,65e79a8f010247fd67c1a9e4,,,,,,,,,,,158.6661,1.1,159.7698,159.7699,160.8534,right,0,1.0713,,160.8534,161.8532,2,6,38,8,1,total,1,images/Ex1.jpg,left,training,hard,1,,,,,
,,,,,6570824312e21ad0a49858f4,001,30,Male,Malaysia,Master,2024-03-05_22h20.49.494,CRL1h,2023.2.3,MacIntel,64.1025641,65e67470ae2fbf2172c317b2,65e79a8f010247fd67c1a9e4,,,,,,,,,,,161.8537,1.1,162.9534,162.9534,165.07,right,1,2.1062,,165.07,166.0695,2,7,39,13,1,total,1,images/Ex6.jpg,right,training,hard,1,,,,,
,,,,,6570824312e21ad0a49858f4,001,30,Male,Malaysia,Master,2024-03-05_22h20.49.494,CRL1h,2023.2.3,MacIntel,64.1025641,65e67470ae2fbf2172c317b2,65e79a8f010247fd67c1a9e4,,,,,,,,,,,166.0832,0.8,166.876,166.8761,168.1065,right,1,1.2292,,168.1066,169.1117,2,8,40,15,1,total,1,images/Ex8.jpg,right,training,hard,1,,,,,
,,,,,6570824312e21ad0a49858f4,001,30,Male,Malaysia,Master,2024-03-05_22h20.49.494,CRL1h,2023.2.3,MacIntel,64.1025641,65e67470ae2fbf2172c317b2,65e79a8f010247fd67c1a9e4,,,,,,,,,,,169.1122,0.5,169.6098,169.6098,170.4433,left,0,0.8321,,170.4434,171.4432,2,9,41,14,1,total,1,images/Ex7.jpg,right,training,hard,1,,,,,
,,,,,6570824312e21ad0a49858f4,001,30,Male,Malaysia,Master,2024-03-05_22h20.49.494,CRL1h,2023.2.3,MacIntel,64.1025641,65e67470ae2fbf2172c317b2,65e79a8f010247fd67c1a9e4,,,,,,,,,,,171.4439,0.9,172.3449,172.345,173.3032,left,1,0.9479,,173.3033,174.2929,2,10,42,1,1,total,1,images/Ex2.jpg,left,training,hard,1,,,,,
,,,,,6570824312e21ad0a49858f4,001,30,Male,Malaysia,Master,2024-03-05_22h20.49.494,CRL1h,2023.2.3,MacIntel,64.1025641,65e67470ae2fbf2172c317b2,65e79a8f010247fd67c1a9e4,,,,,,,,,,,174.2937,0.8,175.0858,175.0858,175.903,left,1,0.8149,,175.903,176.9029,2,11,43,9,1,total,1,images/Ex2.jpg,left,training,hard,1,,,,,
,,,,,6570824312e21ad0a49858f4,001,30,Male,Malaysia,Master,2024-03-05_22h20.49.494,CRL1h,2023.2.3,MacIntel,64.1025641,65e67470ae2fbf2172c317b2,65e79a8f010247fd67c1a9e4,,,,,,,,,,,176.9034,1.1,177.9916,177.9916,181.6427,right,1,3.6504,,181.6428,182.6363,2,12,44,4,1,total,1,images/Ex5.jpg,right,training,hard,1,,,,,
,,,,,6570824312e21ad0a49858f4,001,30,Male,Malaysia,Master,2024-03-05_22h20.49.494,CRL1h,2023.2.3,MacIntel,64.1025641,65e67470ae2fbf2172c317b2,65e79a8f010247fd67c1a9e4,,,,,,,,,,,182.6494,0.6,183.2529,183.253,185.2926,right,1,2.0385,,185.2926,186.2854,2,13,45,6,1,total,1,images/Ex7.jpg,right,training,hard,1,,,,,
,,,,,6570824312e21ad0a49858f4,001,30,Male,Malaysia,Master,2024-03-05_22h20.49.494,CRL1h,2023.2.3,MacIntel,64.1025641,65e67470ae2fbf2172c317b2,65e79a8f010247fd67c1a9e4,,,,,,,,,,,186.2985,1.3,187.6029,187.6029,188.3863,right,0,0.7781,,188.3864,189.3854,2,14,46,0,1,total,1,images/Ex1.jpg,left,training,hard,1,,,,,
,,,,,6570824312e21ad0a49858f4,001,30,Male,Malaysia,Master,2024-03-05_22h20.49.494,CRL1h,2023.2.3,MacIntel,64.1025641,65e67470ae2fbf2172c317b2,65e79a8f010247fd67c1a9e4,,,,,,,,,,,189.3859,0.8,190.1924,190.1924,191.1295,right,0,0.9359,,191.1295,192.1195,2,15,47,2,1,total,1,images/Ex3.jpg,left,training,hard,1,,,,,
,,,,,6570824312e21ad0a49858f4,001,30,Male,Malaysia,Master,2024-03-05_22h20.49.494,CRL1h,2023.2.3,MacIntel,64.1025641,65e67470ae2fbf2172c317b2,65e79a8f010247fd67c1a9e4,,,,,,,,,,,192.12,0.9,193.0227,193.0227,195.0928,right,0,2.0691,,195.0928,196.0862,3,0,48,10,1,total,1,images/Ex3.jpg,left,training,hard,1,,,,,
,,,,,6570824312e21ad0a49858f4,001,30,Male,Malaysia,Master,2024-03-05_22h20.49.494,CRL1h,2023.2.3,MacIntel,64.1025641,65e67470ae2fbf2172c317b2,65e79a8f010247fd67c1a9e4,,,,,,,,,,,196.0992,1.1,197.1946,197.1946,198.1364,right,1,0.9338,,198.1365,199.1275,3,1,49,7,1,total,1,images/Ex8.jpg,right,training,hard,1,,,,,
,,,,,6570824312e21ad0a49858f4,001,30,Male,Malaysia,Master,2024-03-05_22h20.49.494,CRL1h,2023.2.3,MacIntel,64.1025641,65e67470ae2fbf2172c317b2,65e79a8f010247fd67c1a9e4,,,,,,,,,,,199.128,0.7,199.8193,199.8193,202.1686,right,0,2.3467,,202.1687,203.1693,3,2,50,2,1,total,1,images/Ex3.jpg,left,training,hard,1,,,,,
,,,,,6570824312e21ad0a49858f4,001,30,Male,Malaysia,Master,2024-03-05_22h20.49.494,CRL1h,2023.2.3,MacIntel,64.1025641,65e67470ae2fbf2172c317b2,65e79a8f010247fd67c1a9e4,,,,,,,,,,,203.1698,1,204.1583,204.1584,205.7691,right,1,1.6078,,205.7692,206.7694,3,3,51,4,1,total,1,images/Ex5.jpg,right,training,hard,1,,,,,
,,,,,6570824312e21ad0a49858f4,001,30,Male,Malaysia,Master,2024-03-05_22h20.49.494,CRL1h,2023.2.3,MacIntel,64.1025641,65e67470ae2fbf2172c317b2,65e79a8f010247fd67c1a9e4,,,,,,,,,,,206.7699,0.7,207.476,207.4761,209.5016,left,1,2.0241,,209.5016,210.5026,3,4,52,8,1,total,1,images/Ex1.jpg,left,training,hard,1,,,,,
,,,,,6570824312e21ad0a49858f4,001,30,Male,Malaysia,Master,2024-03-05_22h20.49.494,CRL1h,2023.2.3,MacIntel,64.1025641,65e67470ae2fbf2172c317b2,65e79a8f010247fd67c1a9e4,,,,,,,,,,,210.5164,1.5,212.0192,212.0192,213.9024,right,1,1.8751,,213.9024,214.9025,3,5,53,5,1,total,1,images/Ex6.jpg,right,training,hard,1,,,,,
,,,,,6570824312e21ad0a49858f4,001,30,Male,Malaysia,Master,2024-03-05_22h20.49.494,CRL1h,2023.2.3,MacIntel,64.1025641,65e67470ae2fbf2172c317b2,65e79a8f010247fd67c1a9e4,,,,,,,,,,,214.9029,0.8,215.6949,215.6949,216.9526,left,1,1.246,,216.9527,217.9524,3,6,54,0,1,total,1,images/Ex1.jpg,left,training,hard,1,,,,,
,,,,,6570824312e21ad0a49858f4,001,30,Male,Malaysia,Master,2024-03-05_22h20.49.494,CRL1h,2023.2.3,MacIntel,64.1025641,65e67470ae2fbf2172c317b2,65e79a8f010247fd67c1a9e4,,,,,,,,,,,217.9663,1,218.9692,218.9692,220.7524,right,1,1.7784,,220.7524,221.7523,3,7,55,13,1,total,1,images/Ex6.jpg,right,training,hard,1,,,,,
,,,,,6570824312e21ad0a49858f4,001,30,Male,Malaysia,Master,2024-03-05_22h20.49.494,CRL1h,2023.2.3,MacIntel,64.1025641,65e67470ae2fbf2172c317b2,65e79a8f010247fd67c1a9e4,,,,,,,,,,,221.7527,0.6,222.3525,222.3525,223.2848,left,1,0.9298,,223.2849,224.2923,3,8,56,9,1,total,1,images/Ex2.jpg,left,training,hard,1,,,,,
,,,,,6570824312e21ad0a49858f4,001,30,Male,Malaysia,Master,2024-03-05_22h20.49.494,CRL1h,2023.2.3,MacIntel,64.1025641,65e67470ae2fbf2172c317b2,65e79a8f010247fd67c1a9e4,,,,,,,,,,,224.2927,0.8,225.0943,225.0943,228.019,right,1,2.9235,,228.019,229.0256,3,9,57,15,1,total,1,images/Ex8.jpg,right,training,hard,1,,,,,
,,,,,6570824312e21ad0a49858f4,001,30,Male,Malaysia,Master,2024-03-05_22h20.49.494,CRL1h,2023.2.3,MacIntel,64.1025641,65e67470ae2fbf2172c317b2,65e79a8f010247fd67c1a9e4,,,,,,,,,,,229.039,1.2,230.2357,230.2358,232.3742,right,1,2.1371,,232.3743,233.3691,3,10,58,14,1,total,1,images/Ex7.jpg,right,training,hard,1,,,,,
,,,,,6570824312e21ad0a49858f4,001,30,Male,Malaysia,Master,2024-03-05_22h20.49.494,CRL1h,2023.2.3,MacIntel,64.1025641,65e67470ae2fbf2172c317b2,65e79a8f010247fd67c1a9e4,,,,,,,,,,,233.3697,1,234.3585,234.3586,235.3359,right,1,0.9692,,235.3359,236.3354,3,11,59,6,1,total,1,images/Ex7.jpg,right,training,hard,1,,,,,
,,,,,6570824312e21ad0a49858f4,001,30,Male,Malaysia,Master,2024-03-05_22h20.49.494,CRL1h,2023.2.3,MacIntel,64.1025641,65e67470ae2fbf2172c317b2,65e79a8f010247fd67c1a9e4,,,,,,,,,,,236.3358,1,237.3282,237.3282,240.3188,right,1,2.9861,,240.3189,241.319,3,12,60,12,1,total,1,images/Ex5.jpg,right,training,hard,1,,,,,
,,,,,6570824312e21ad0a49858f4,001,30,Male,Malaysia,Master,2024-03-05_22h20.49.494,CRL1h,2023.2.3,MacIntel,64.1025641,65e67470ae2fbf2172c317b2,65e79a8f010247fd67c1a9e4,,,,,,,,,,,241.3323,1,242.3272,242.3272,243.1225,left,1,0.7943,,243.1226,244.1187,3,13,61,1,1,total,1,images/Ex2.jpg,left,training,hard,1,,,,,
,,,,,6570824312e21ad0a49858f4,001,30,Male,Malaysia,Master,2024-03-05_22h20.49.494,CRL1h,2023.2.3,MacIntel,64.1025641,65e67470ae2fbf2172c317b2,65e79a8f010247fd67c1a9e4,,,,,,,,,,,244.1192,1.2,245.3188,245.3188,246.5181,left,1,1.1889,,246.5181,247.518,3,14,62,3,1,total,1,images/Ex4.jpg,left,training,hard,1,,,,,
,,,,,6570824312e21ad0a49858f4,001,30,Male,Malaysia,Master,2024-03-05_22h20.49.494,CRL1h,2023.2.3,MacIntel,64.1025641,65e67470ae2fbf2172c317b2,65e79a8f010247fd67c1a9e4,,,,,,,,,,,247.5184,0.9,248.4091,248.4091,249.1512,left,1,0.7411,,249.1512,250.142,3,15,63,11,1,total,1,images/Ex4.jpg,left,training,hard,1,,,,,
,,,,,6570824312e21ad0a49858f4,001,30,Male,Malaysia,Master,2024-03-05_22h20.49.494,CRL1h,2023.2.3,MacIntel,64.1025641,65e67470ae2fbf2172c317b2,65e79a8f010247fd67c1a9e4,,,,,,,,,,,250.1429,0.8,250.9355,250.9355,251.8521,right,1,0.9058,,251.8522,252.8353,4,0,64,14,1,total,1,images/Ex7.jpg,right,training,hard,1,,,,,
,,,,,6570824312e21ad0a49858f4,001,30,Male,Malaysia,Master,2024-03-05_22h20.49.494,CRL1h,2023.2.3,MacIntel,64.1025641,65e67470ae2fbf2172c317b2,65e79a8f010247fd67c1a9e4,,,,,,,,,,,252.8357,0.8,253.6353,253.6353,256.0856,right,1,2.4422,,256.0856,257.0855,4,1,65,4,1,total,1,images/Ex5.jpg,right,training,hard,1,,,,,
,,,,,6570824312e21ad0a49858f4,001,30,Male,Malaysia,Master,2024-03-05_22h20.49.494,CRL1h,2023.2.3,MacIntel,64.1025641,65e67470ae2fbf2172c317b2,65e79a8f010247fd67c1a9e4,,,,,,,,,,,257.099,1.3,258.4011,258.4011,261.4846,left,1,3.081,,261.4847,262.4737,4,2,66,2,1,total,1,images/Ex3.jpg,left,training,hard,1,,,,,
,,,,,6570824312e21ad0a49858f4,001,30,Male,Malaysia,Master,2024-03-05_22h20.49.494,CRL1h,2023.2.3,MacIntel,64.1025641,65e67470ae2fbf2172c317b2,65e79a8f010247fd67c1a9e4,,,,,,,,,,,262.4871,0.5,262.9851,262.9852,263.835,left,1,0.8425,,263.835,264.8348,4,3,67,11,1,total,1,images/Ex4.jpg,left,training,hard,1,,,,,
,,,,,6570824312e21ad0a49858f4,001,30,Male,Malaysia,Master,2024-03-05_22h20.49.494,CRL1h,2023.2.3,MacIntel,64.1025641,65e67470ae2fbf2172c317b2,65e79a8f010247fd67c1a9e4,,,,,,,,,,,264.8352,1.4,266.2351,266.2352,269.6346,left,0,3.3944,,269.6346,270.6343,4,4,68,15,1,total,1,images/Ex8.jpg,right,training,hard,1,,,,,
,,,,,6570824312e21ad0a49858f4,001,30,Male,Malaysia,Master,2024-03-05_22h20.49.494,CRL1h,2023.2.3,MacIntel,64.1025641,65e67470ae2fbf2172c317b2,65e79a8f010247fd67c1a9e4,,,,,,,,,,,270.648,1.2,271.851,271.851,272.6683,left,1,0.8129,,272.6685,273.6684,4,5,69,1,1,total,1,images/Ex2.jpg,left,training,hard,1,,,,,
,,,,,6570824312e21ad0a49858f4,001,30,Male,Malaysia,Master,2024-03-05_22h20.49.494,CRL1h,2023.2.3,MacIntel,64.1025641,65e67470ae2fbf2172c317b2,65e79a8f010247fd67c1a9e4,,,,,,,,,,,273.6688,1.2,274.8684,274.8684,275.6092,right,1,0.7395,,275.6092,276.608,4,6,70,6,1,total,1,images/Ex7.jpg,right,training,hard,1,,,,,
,,,,,6570824312e21ad0a49858f4,001,30,Male,Malaysia,Master,2024-03-05_22h20.49.494,CRL1h,2023.2.3,MacIntel,64.1025641,65e67470ae2fbf2172c317b2,65e79a8f010247fd67c1a9e4,,,,,,,,,,,276.6084,0.5,277.1017,277.1017,278.3351,left,0,1.222,,278.3352,279.335,4,7,71,12,1,total,1,images/Ex5.jpg,right,training,hard,1,,,,,
,,,,,6570824312e21ad0a49858f4,001,30,Male,Malaysia,Master,2024-03-05_22h20.49.494,CRL1h,2023.2.3,MacIntel,64.1025641,65e67470ae2fbf2172c317b2,65e79a8f010247fd67c1a9e4,,,,,,,,,,,279.3354,1.4,280.7349,280.7349,282.393,left,1,1.6569,,282.393,283.3848,4,8,72,8,1,total,1,images/Ex1.jpg,left,training,hard,1,,,,,
,,,,,6570824312e21ad0a49858f4,001,30,Male,Malaysia,Master,2024-03-05_22h20.49.494,CRL1h,2023.2.3,MacIntel,64.1025641,65e67470ae2fbf2172c317b2,65e79a8f010247fd67c1a9e4,,,,,,,,,,,283.3853,0.9,284.285,284.285,285.0842,left,1,0.7925,,285.0842,286.0776,4,9,73,0,1,total,1,images/Ex1.jpg,left,training,hard,1,,,,,
,,,,,6570824312e21ad0a49858f4,001,30,Male,Malaysia,Master,2024-03-05_22h20.49.494,CRL1h,2023.2.3,MacIntel,64.1025641,65e67470ae2fbf2172c317b2,65e79a8f010247fd67c1a9e4,,,,,,,,,,,286.0781,1.5,287.5679,287.5679,288.635,left,0,1.0574,,288.635,289.6341,4,10,74,7,1,total,1,images/Ex8.jpg,right,training,hard,1,,,,,
,,,,,6570824312e21ad0a49858f4,001,30,Male,Malaysia,Master,2024-03-05_22h20.49.494,CRL1h,2023.2.3,MacIntel,64.1025641,65e67470ae2fbf2172c317b2,65e79a8f010247fd67c1a9e4,,,,,,,,,,,289.6346,0.9,290.5347,290.5347,291.6675,left,1,1.1316,,291.6675,292.6682,4,11,75,10,1,total,1,images/Ex3.jpg,left,training,hard,1,,,,,
,,,,,6570824312e21ad0a49858f4,001,30,Male,Malaysia,Master,2024-03-05_22h20.49.494,CRL1h,2023.2.3,MacIntel,64.1025641,65e67470ae2fbf2172c317b2,65e79a8f010247fd67c1a9e4,,,,,,,,,,,292.6688,1,293.6682,293.6682,294.5349,right,0,0.855,,294.5349,295.5349,4,12,76,9,1,total,1,images/Ex2.jpg,left,training,hard,1,,,,,
,,,,,6570824312e21ad0a49858f4,001,30,Male,Malaysia,Master,2024-03-05_22h20.49.494,CRL1h,2023.2.3,MacIntel,64.1025641,65e67470ae2fbf2172c317b2,65e79a8f010247fd67c1a9e4,,,,,,,,,,,295.5355,1.5,297.0346,297.0346,297.7015,left,1,0.6563,,297.7016,298.7013,4,13,77,3,1,total,1,images/Ex4.jpg,left,training,hard,1,,,,,
,,,,,6570824312e21ad0a49858f4,001,30,Male,Malaysia,Master,2024-03-05_22h20.49.494,CRL1h,2023.2.3,MacIntel,64.1025641,65e67470ae2fbf2172c317b2,65e79a8f010247fd67c1a9e4,,,,,,,,,,,298.7018,1.2,299.9005,299.9005,301.8782,right,1,1.9766,,301.8783,302.8681,4,14,78,13,1,total,1,images/Ex6.jpg,right,training,hard,1,,,,,
,,,,,6570824312e21ad0a49858f4,001,30,Male,Malaysia,Master,2024-03-05_22h20.49.494,CRL1h,2023.2.3,MacIntel,64.1025641,65e67470ae2fbf2172c317b2,65e79a8f010247fd67c1a9e4,,,,,,,,,,,302.882,0.7,303.5909,303.5909,304.2928,right,1,0.701,,304.2928,305.2912,4,15,79,5,1,total,1,images/Ex6.jpg,right,training,hard,1,,,,,
,,,,,6570824312e21ad0a49858f4,001,30,Male,Malaysia,Master,2024-03-05_22h20.49.494,CRL1h,2023.2.3,MacIntel,64.1025641,65e67470ae2fbf2172c317b2,65e79a8f010247fd67c1a9e4,,,,,,,,,,,305.2918,1.4,306.6845,306.6846,307.3076,right,1,0.6222,,307.3076,308.3012,5,0,80,5,1,total,1,images/Ex6.jpg,right,training,hard,1,,,,,
,,,,,6570824312e21ad0a49858f4,001,30,Male,Malaysia,Master,2024-03-05_22h20.49.494,CRL1h,2023.2.3,MacIntel,64.1025641,65e67470ae2fbf2172c317b2,65e79a8f010247fd67c1a9e4,,,,,,,,,,,308.3017,1.1,309.4009,309.401,310.7347,left,0,1.3248,,310.7347,311.7404,5,1,81,4,1,total,1,images/Ex5.jpg,right,training,hard,1,,,,,
,,,,,6570824312e21ad0a49858f4,001,30,Male,Malaysia,Master,2024-03-05_22h20.49.494,CRL1h,2023.2.3,MacIntel,64.1025641,65e67470ae2fbf2172c317b2,65e79a8f010247fd67c1a9e4,,,,,,,,,,,311.7408,1.4,313.1346,313.1347,313.9022,left,1,0.7665,,313.9022,314.9006,5,2,82,9,1,total,1,images/Ex2.jpg,left,training,hard,1,,,,,
,,,,,6570824312e21ad0a49858f4,001,30,Male,Malaysia,Master,2024-03-05_22h20.49.494,CRL1h,2023.2.3,MacIntel,64.1025641,65e67470ae2fbf2172c317b2,65e79a8f010247fd67c1a9e4,,,,,,,,,,,314.9012,1,315.905,315.9051,317.8079,left,1,1.9015,,317.8079,318.8013,5,3,83,10,1,total,1,images/Ex3.jpg,left,training,hard,1,,,,,
,,,,,6570824312e21ad0a49858f4,001,30,Male,Malaysia,Master,2024-03-05_22h20.49.494,CRL1h,2023.2.3,MacIntel,64.1025641,65e67470ae2fbf2172c317b2,65e79a8f010247fd67c1a9e4,,,,,,,,,,,318.815,1.2,320.0179,320.0179,324.0246,right,1,4.0055,,324.0246,325.0176,5,4,84,6,1,total,1,images/Ex7.jpg,right,training,hard,1,,,,,
,,,,,6570824312e21ad0a49858f4,001,30,Male,Malaysia,Master,2024-03-05_22h20.49.494,CRL1h,2023.2.3,MacIntel,64.1025641,65e67470ae2fbf2172c317b2,65e79a8f010247fd67c1a9e4,,,,,,,,,,,325.0314,1.1,326.1342,326.1343,327.1012,left,1,0.9563,,327.1012,328.1006,5,5,85,0,1,total,1,images/Ex1.jpg,left,training,hard,1,,,,,
,,,,,6570824312e21ad0a49858f4,001,30,Male,Malaysia,Master,2024-03-05_22h20.49.494,CRL1h,2023.2.3,MacIntel,64.1025641,65e67470ae2fbf2172c317b2,65e79a8f010247fd67c1a9e4,,,,,,,,,,,328.1011,0.9,328.9907,328.9908,329.4167,left,1,0.4248,,329.4167,330.417,5,6,86,8,1,total,1,images/Ex1.jpg,left,training,hard,1,,,,,
,,,,,6570824312e21ad0a49858f4,001,30,Male,Malaysia,Master,2024-03-05_22h20.49.494,CRL1h,2023.2.3,MacIntel,64.1025641,65e67470ae2fbf2172c317b2,65e79a8f010247fd67c1a9e4,,,,,,,,,,,330.4174,0.8,331.2086,331.2086,331.7345,left,1,0.5209,,331.7346,332.7342,5,7,87,3,1,total,1,images/Ex4.jpg,left,training,hard,1,,,,,
,,,,,6570824312e21ad0a49858f4,001,30,Male,Malaysia,Master,2024-03-05_22h20.49.494,CRL1h,2023.2.3,MacIntel,64.1025641,65e67470ae2fbf2172c317b2,65e79a8f010247fd67c1a9e4,,,,,,,,,,,332.7346,0.8,333.5258,333.5258,333.9679,left,1,0.4374,,333.9679,334.9587,5,8,88,11,1,total,1,images/Ex4.jpg,left,training,hard,1,,,,,
,,,,,6570824312e21ad0a49858f4,001,30,Male,Malaysia,Master,2024-03-05_22h20.49.494,CRL1h,2023.2.3,MacIntel,64.1025641,65e67470ae2fbf2172c317b2,65e79a8f010247fd67c1a9e4,,,,,,,,,,,334.9592,1.1,336.0572,336.0573,337.276,left,1,1.2173,,337.276,338.2676,5,9,89,2,1,total,1,images/Ex3.jpg,left,training,hard,1,,,,,
,,,,,6570824312e21ad0a49858f4,001,30,Male,Malaysia,Master,2024-03-05_22h20.49.494,CRL1h,2023.2.3,MacIntel,64.1025641,65e67470ae2fbf2172c317b2,65e79a8f010247fd67c1a9e4,,,,,,,,,,,338.2683,1.5,339.7733,339.7734,340.6937,left,0,0.919,,340.6938,341.6838,5,10,90,15,1,total,1,images/Ex8.jpg,right,training,hard,1,,,,,
,,,,,6570824312e21ad0a49858f4,001,30,Male,Malaysia,Master,2024-03-05_22h20.49.494,CRL1h,2023.2.3,MacIntel,64.1025641,65e67470ae2fbf2172c317b2,65e79a8f010247fd67c1a9e4,,,,,,,,,,,341.6843,1.3,342.9843,342.9843,343.8394,right,1,0.8543,,343.8395,344.8402,5,11,91,7,1,total,1,images/Ex8.jpg,right,training,hard,1,,,,,
,,,,,6570824312e21ad0a49858f4,001,30,Male,Malaysia,Master,2024-03-05_22h20.49.494,CRL1h,2023.2.3,MacIntel,64.1025641,65e67470ae2fbf2172c317b2,65e79a8f010247fd67c1a9e4,,,,,,,,,,,344.8407,0.6,345.4437,345.4437,346.9841,right,1,1.5296,,346.9842,347.9767,5,12,92,12,1,total,1,images/Ex5.jpg,right,training,hard,1,,,,,
,,,,,6570824312e21ad0a49858f4,001,30,Male,Malaysia,Master,2024-03-05_22h20.49.494,CRL1h,2023.2.3,MacIntel,64.1025641,65e67470ae2fbf2172c317b2,65e79a8f010247fd67c1a9e4,,,,,,,,,,,347.9771,1,348.9751,348.9752,349.7075,left,1,0.7311,,349.7076,350.7006,5,13,93,1,1,total,1,images/Ex2.jpg,left,training,hard,1,,,,,
,,,,,6570824312e21ad0a49858f4,001,30,Male,Malaysia,Master,2024-03-05_22h20.49.494,CRL1h,2023.2.3,MacIntel,64.1025641,65e67470ae2fbf2172c317b2,65e79a8f010247fd67c1a9e4,,,,,,,,,,,350.7011,1.1,351.8006,351.8007,353.4338,right,1,1.6319,,353.4338,354.4238,5,14,94,13,1,total,1,images/Ex6.jpg,right,training,hard,1,,,,,
,,,,,6570824312e21ad0a49858f4,001,30,Male,Malaysia,Master,2024-03-05_22h20.49.494,CRL1h,2023.2.3,MacIntel,64.1025641,65e67470ae2fbf2172c317b2,65e79a8f010247fd67c1a9e4,,,,,,,,,,,354.437,1.3,355.743,355.743,358.7164,right,1,2.9707,,358.7164,359.7098,5,15,95,14,1,total,1,images/Ex7.jpg,right,training,hard,1,,,,,
,,,,,6570824312e21ad0a49858f4,001,30,Male,Malaysia,Master,2024-03-05_22h20.49.494,CRL1h,2023.2.3,MacIntel,64.1025641,65e67470ae2fbf2172c317b2,65e79a8f010247fd67c1a9e4,,,,,,,,,,,359.7221,0.6,360.3172,360.3172,361.1506,left,0,0.8242,,361.1507,362.1505,6,0,96,7,1,total,1,images/Ex8.jpg,right,training,hard,1,,,,,
,,,,,6570824312e21ad0a49858f4,001,30,Male,Malaysia,Master,2024-03-05_22h20.49.494,CRL1h,2023.2.3,MacIntel,64.1025641,65e67470ae2fbf2172c317b2,65e79a8f010247fd67c1a9e4,,,,,,,,,,,362.1509,1,363.1506,363.1506,364.0173,left,1,0.8556,,364.0173,365.0234,6,1,97,2,1,total,1,images/Ex3.jpg,left,training,hard,1,,,,,
,,,,,6570824312e21ad0a49858f4,001,30,Male,Malaysia,Master,2024-03-05_22h20.49.494,CRL1h,2023.2.3,MacIntel,64.1025641,65e67470ae2fbf2172c317b2,65e79a8f010247fd67c1a9e4,,,,,,,,,,,365.0239,0.6,365.6173,365.6173,366.343,left,0,0.7244,,366.3431,367.337,6,2,98,15,1,total,1,images/Ex8.jpg,right,training,hard,1,,,,,
,,,,,6570824312e21ad0a49858f4,001,30,Male,Malaysia,Master,2024-03-05_22h20.49.494,CRL1h,2023.2.3,MacIntel,64.1025641,65e67470ae2fbf2172c317b2,65e79a8f010247fd67c1a9e4,,,,,,,,,,,367.3375,1,368.3339,368.3339,369.0666,left,1,0.73,,369.0666,370.0665,6,3,99,9,1,total,1,images/Ex2.jpg,left,training,hard,1,,,,,
,,,,,6570824312e21ad0a49858f4,001,30,Male,Malaysia,Master,2024-03-05_22h20.49.494,CRL1h,2023.2.3,MacIntel,64.1025641,65e67470ae2fbf2172c317b2,65e79a8f010247fd67c1a9e4,,,,,,,,,,,370.067,0.5,370.5666,370.5667,371.3918,left,1,0.8239,,371.3918,372.3837,6,4,100,8,1,total,1,images/Ex1.jpg,left,training,hard,1,,,,,
,,,,,6570824312e21ad0a49858f4,001,30,Male,Malaysia,Master,2024-03-05_22h20.49.494,CRL1h,2023.2.3,MacIntel,64.1025641,65e67470ae2fbf2172c317b2,65e79a8f010247fd67c1a9e4,,,,,,,,,,,372.3841,0.5,372.8837,372.8837,373.6173,left,1,0.7268,,373.6173,374.617,6,5,101,1,1,total,1,images/Ex2.jpg,left,training,hard,1,,,,,
,,,,,6570824312e21ad0a49858f4,001,30,Male,Malaysia,Master,2024-03-05_22h20.49.494,CRL1h,2023.2.3,MacIntel,64.1025641,65e67470ae2fbf2172c317b2,65e79a8f010247fd67c1a9e4,,,,,,,,,,,374.6174,0.6,375.2089,375.2089,376.0496,left,0,0.838,,376.0496,377.0503,6,6,102,13,1,total,1,images/Ex6.jpg,right,training,hard,1,,,,,
,,,,,6570824312e21ad0a49858f4,001,30,Male,Malaysia,Master,2024-03-05_22h20.49.494,CRL1h,2023.2.3,MacIntel,64.1025641,65e67470ae2fbf2172c317b2,65e79a8f010247fd67c1a9e4,,,,,,,,,,,377.0507,0.6,377.6503,377.6503,378.7838,right,1,1.1235,,378.7839,379.7834,6,7,103,14,1,total,1,images/Ex7.jpg,right,training,hard,1,,,,,
,,,,,6570824312e21ad0a49858f4,001,30,Male,Malaysia,Master,2024-03-05_22h20.49.494,CRL1h,2023.2.3,MacIntel,64.1025641,65e67470ae2fbf2172c317b2,65e79a8f010247fd67c1a9e4,,,,,,,,,,,379.784,0.7,380.4837,380.4838,382.0237,right,1,1.5386,,382.0237,383.0235,6,8,104,5,1,total,1,images/Ex6.jpg,right,training,hard,1,,,,,
,,,,,6570824312e21ad0a49858f4,001,30,Male,Malaysia,Master,2024-03-05_22h20.49.494,CRL1h,2023.2.3,MacIntel,64.1025641,65e67470ae2fbf2172c317b2,65e79a8f010247fd67c1a9e4,,,,,,,,,,,383.0241,1.3,384.3246,384.3246,386.3935,right,0,2.0677,,386.3935,387.3924,6,9,105,10,1,total,1,images/Ex3.jpg,left,training,hard,1,,,,,
,,,,,6570824312e21ad0a49858f4,001,30,Male,Malaysia,Master,2024-03-05_22h20.49.494,CRL1h,2023.2.3,MacIntel,64.1025641,65e67470ae2fbf2172c317b2,65e79a8f010247fd67c1a9e4,,,,,,,,,,,387.4055,1.4,388.7993,388.7993,389.4936,left,1,0.6934,,389.4937,390.4829,6,10,106,11,1,total,1,images/Ex4.jpg,left,training,hard,1,,,,,
,,,,,6570824312e21ad0a49858f4,001,30,Male,Malaysia,Master,2024-03-05_22h20.49.494,CRL1h,2023.2.3,MacIntel,64.1025641,65e67470ae2fbf2172c317b2,65e79a8f010247fd67c1a9e4,,,,,,,,,,,390.4834,1.1,391.5835,391.5835,393.4659,right,1,1.8785,,393.466,394.4669,6,11,107,4,1,total,1,images/Ex5.jpg,right,training,hard,1,,,,,
,,,,,6570824312e21ad0a49858f4,001,30,Male,Malaysia,Master,2024-03-05_22h20.49.494,CRL1h,2023.2.3,MacIntel,64.1025641,65e67470ae2fbf2172c317b2,65e79a8f010247fd67c1a9e4,,,,,,,,,,,394.4806,1.2,395.6834,395.6834,396.4401,right,1,0.7559,,396.4402,397.4336,6,12,108,12,1,total,1,images/Ex5.jpg,right,training,hard,1,,,,,
,,,,,6570824312e21ad0a49858f4,001,30,Male,Malaysia,Master,2024-03-05_22h20.49.494,CRL1h,2023.2.3,MacIntel,64.1025641,65e67470ae2fbf2172c317b2,65e79a8f010247fd67c1a9e4,,,,,,,,,,,397.4342,0.7,398.1395,398.1396,399.0334,right,1,0.8824,,399.0335,400.0333,6,13,109,6,1,total,1,images/Ex7.jpg,right,training,hard,1,,,,,
,,,,,6570824312e21ad0a49858f4,001,30,Male,Malaysia,Master,2024-03-05_22h20.49.494,CRL1h,2023.2.3,MacIntel,64.1025641,65e67470ae2fbf2172c317b2,65e79a8f010247fd67c1a9e4,,,,,,,,,,,400.0336,0.6,400.6257,400.6258,403.3499,right,0,2.7228,,403.3499,404.3501,6,14,110,0,1,total,1,images/Ex1.jpg,left,training,hard,1,,,,,
,,,,,6570824312e21ad0a49858f4,001,30,Male,Malaysia,Master,2024-03-05_22h20.49.494,CRL1h,2023.2.3,MacIntel,64.1025641,65e67470ae2fbf2172c317b2,65e79a8f010247fd67c1a9e4,,,,,,,,,,,404.3507,0.9,405.2499,405.2499,405.9501,left,1,0.6947,,405.9501,406.9501,6,15,111,3,1,total,1,images/Ex4.jpg,left,training,hard,1,,,,,
,,,,,6570824312e21ad0a49858f4,001,30,Male,Malaysia,Master,2024-03-05_22h20.49.494,CRL1h,2023.2.3,MacIntel,64.1025641,65e67470ae2fbf2172c317b2,65e79a8f010247fd67c1a9e4,,,,,,,,,,,406.9507,1.2,408.15,408.15,408.7161,left,1,0.5636,,408.7161,409.7161,7,0,112,0,1,total,1,images/Ex1.jpg,left,training,hard,1,,,,,
,,,,,6570824312e21ad0a49858f4,001,30,Male,Malaysia,Master,2024-03-05_22h20.49.494,CRL1h,2023.2.3,MacIntel,64.1025641,65e67470ae2fbf2172c317b2,65e79a8f010247fd67c1a9e4,,,,,,,,,,,409.7166,1.4,411.1226,411.1227,412.4998,right,1,1.3689,,412.4998,413.4999,7,1,113,4,1,total,1,images/Ex5.jpg,right,training,hard,1,,,,,
,,,,,6570824312e21ad0a49858f4,001,30,Male,Malaysia,Master,2024-03-05_22h20.49.494,CRL1h,2023.2.3,MacIntel,64.1025641,65e67470ae2fbf2172c317b2,65e79a8f010247fd67c1a9e4,,,,,,,,,,,413.5005,0.8,414.299,414.299,415.1601,right,1,0.8599,,415.1601,416.1497,7,2,114,14,1,total,1,images/Ex7.jpg,right,training,hard,1,,,,,
,,,,,6570824312e21ad0a49858f4,001,30,Male,Malaysia,Master,2024-03-05_22h20.49.494,CRL1h,2023.2.3,MacIntel,64.1025641,65e67470ae2fbf2172c317b2,65e79a8f010247fd67c1a9e4,,,,,,,,,,,416.1502,1.3,417.4495,417.4495,418.0222,left,1,0.5716,,418.0222,419.0233,7,3,115,11,1,total,1,images/Ex4.jpg,left,training,hard,1,,,,,
,,,,,6570824312e21ad0a49858f4,001,30,Male,Malaysia,Master,2024-03-05_22h20.49.494,CRL1h,2023.2.3,MacIntel,64.1025641,65e67470ae2fbf2172c317b2,65e79a8f010247fd67c1a9e4,,,,,,,,,,,419.0238,1.4,420.4164,420.4164,422.1987,right,1,1.7787,,422.1988,423.2042,7,4,116,7,1,total,1,images/Ex8.jpg,right,training,hard,1,,,,,
,,,,,6570824312e21ad0a49858f4,001,30,Male,Malaysia,Master,2024-03-05_22h20.49.494,CRL1h,2023.2.3,MacIntel,64.1025641,65e67470ae2fbf2172c317b2,65e79a8f010247fd67c1a9e4,,,,,,,,,,,423.2175,0.9,424.1059,424.1059,425.1825,right,1,1.0705,,425.1826,426.1821,7,5,117,13,1,total,1,images/Ex6.jpg,right,training,hard,1,,,,,
,,,,,6570824312e21ad0a49858f4,001,30,Male,Malaysia,Master,2024-03-05_22h20.49.494,CRL1h,2023.2.3,MacIntel,64.1025641,65e67470ae2fbf2172c317b2,65e79a8f010247fd67c1a9e4,,,,,,,,,,,426.1827,0.8,426.983,426.983,427.9989,right,1,1.0116,,427.9989,429.0048,7,6,118,6,1,total,1,images/Ex7.jpg,right,training,hard,1,,,,,
,,,,,6570824312e21ad0a49858f4,001,30,Male,Malaysia,Master,2024-03-05_22h20.49.494,CRL1h,2023.2.3,MacIntel,64.1025641,65e67470ae2fbf2172c317b2,65e79a8f010247fd67c1a9e4,,,,,,,,,,,429.0053,1,429.9996,429.9997,431.257,left,0,1.2558,,431.2571,432.2488,7,7,119,12,1,total,1,images/Ex5.jpg,right,training,hard,1,,,,,
,,,,,6570824312e21ad0a49858f4,001,30,Male,Malaysia,Master,2024-03-05_22h20.49.494,CRL1h,2023.2.3,MacIntel,64.1025641,65e67470ae2fbf2172c317b2,65e79a8f010247fd67c1a9e4,,,,,,,,,,,432.2493,0.7,432.9497,432.9497,433.7321,left,1,0.78,,433.7322,434.732,7,8,120,9,1,total,1,images/Ex2.jpg,left,training,hard,1,,,,,
,,,,,6570824312e21ad0a49858f4,001,30,Male,Malaysia,Master,2024-03-05_22h20.49.494,CRL1h,2023.2.3,MacIntel,64.1025641,65e67470ae2fbf2172c317b2,65e79a8f010247fd67c1a9e4,,,,,,,,,,,434.7325,1,435.7328,435.7329,436.3998,left,1,0.6596,,436.3998,437.389,7,9,121,1,1,total,1,images/Ex2.jpg,left,training,hard,1,,,,,
,,,,,6570824312e21ad0a49858f4,001,30,Male,Malaysia,Master,2024-03-05_22h20.49.494,CRL1h,2023.2.3,MacIntel,64.1025641,65e67470ae2fbf2172c317b2,65e79a8f010247fd67c1a9e4,,,,,,,,,,,437.3895,0.9,438.2828,438.2828,439.5497,left,1,1.2573,,439.5498,440.5496,7,10,122,8,1,total,1,images/Ex1.jpg,left,training,hard,1,,,,,
,,,,,6570824312e21ad0a49858f4,001,30,Male,Malaysia,Master,2024-03-05_22h20.49.494,CRL1h,2023.2.3,MacIntel,64.1025641,65e67470ae2fbf2172c317b2,65e79a8f010247fd67c1a9e4,,,,,,,,,,,440.5501,0.6,441.1558,441.1558,442.0073,left,1,0.8505,,442.0074,443.0026,7,11,123,10,1,total,1,images/Ex3.jpg,left,training,hard,1,,,,,
,,,,,6570824312e21ad0a49858f4,001,30,Male,Malaysia,Master,2024-03-05_22h20.49.494,CRL1h,2023.2.3,MacIntel,64.1025641,65e67470ae2fbf2172c317b2,65e79a8f010247fd67c1a9e4,,,,,,,,,,,443.003,0.8,443.799,443.799,444.6162,left,1,0.8065,,444.6163,445.6162,7,12,124,2,1,total,1,images/Ex3.jpg,left,training,hard,1,,,,,
,,,,,6570824312e21ad0a49858f4,001,30,Male,Malaysia,Master,2024-03-05_22h20.49.494,CRL1h,2023.2.3,MacIntel,64.1025641,65e67470ae2fbf2172c317b2,65e79a8f010247fd67c1a9e4,,,,,,,,,,,445.6167,0.7,446.316,446.316,448.0821,right,1,1.7637,,448.0822,449.0826,7,13,125,15,1,total,1,images/Ex8.jpg,right,training,hard,1,,,,,
,,,,,6570824312e21ad0a49858f4,001,30,Male,Malaysia,Master,2024-03-05_22h20.49.494,CRL1h,2023.2.3,MacIntel,64.1025641,65e67470ae2fbf2172c317b2,65e79a8f010247fd67c1a9e4,,,,,,,,,,,449.0963,1.4,450.4989,450.4989,451.1996,left,1,0.6927,,451.1996,452.1993,7,14,126,3,1,total,1,images/Ex4.jpg,left,training,hard,1,,,,,
,,,,,6570824312e21ad0a49858f4,001,30,Male,Malaysia,Master,2024-03-05_22h20.49.494,CRL1h,2023.2.3,MacIntel,64.1025641,65e67470ae2fbf2172c317b2,65e79a8f010247fd67c1a9e4,,,,,,,,,,,452.1998,1,453.1892,453.1892,454.1828,right,1,0.9858,,454.1829,455.1893,7,15,127,5,1,total,1,images/Ex6.jpg,right,training,hard,1,,,,,
,,,,,6570824312e21ad0a49858f4,001,30,Male,Malaysia,Master,2024-03-05_22h20.49.494,CRL1h,2023.2.3,MacIntel,64.1025641,65e67470ae2fbf2172c317b2,65e79a8f010247fd67c1a9e4,,,,,,,,,,,455.1964,1.3,456.4989,456.4989,457.2159,left,1,0.7084,,457.216,458.2058,0,0,0,6,1,total,2,images/Ex7.jpg,left,reversed,hard,1,,,,,
,,,,,6570824312e21ad0a49858f4,001,30,Male,Malaysia,Master,2024-03-05_22h20.49.494,CRL1h,2023.2.3,MacIntel,64.1025641,65e67470ae2fbf2172c317b2,65e79a8f010247fd67c1a9e4,,,,,,,,,,,458.2063,1.3,459.4992,459.4993,460.9826,right,0,1.4724,,460.9827,461.9825,0,1,1,12,1,total,2,images/Ex5.jpg,left,reversed,hard,1,,,,,
,,,,,6570824312e21ad0a49858f4,001,30,Male,Malaysia,Master,2024-03-05_22h20.49.494,CRL1h,2023.2.3,MacIntel,64.1025641,65e67470ae2fbf2172c317b2,65e79a8f010247fd67c1a9e4,,,,,,,,,,,461.983,0.5,462.4825,462.4825,463.4047,left,0,0.921,,463.4047,464.4032,0,2,2,10,1,total,2,images/Ex3.jpg,right,reversed,hard,1,,,,,
,,,,,6570824312e21ad0a49858f4,001,30,Male,Malaysia,Master,2024-03-05_22h20.49.494,CRL1h,2023.2.3,MacIntel,64.1025641,65e67470ae2fbf2172c317b2,65e79a8f010247fd67c1a9e4,,,,,,,,,,,464.4036,0.6,464.9989,464.9989,466.7907,left,0,1.7906,,466.7908,467.7823,0,3,3,8,1,total,2,images/Ex1.jpg,right,reversed,hard,1,,,,,
,,,,,6570824312e21ad0a49858f4,001,30,Male,Malaysia,Master,2024-03-05_22h20.49.494,CRL1h,2023.2.3,MacIntel,64.1025641,65e67470ae2fbf2172c317b2,65e79a8f010247fd67c1a9e4,,,,,,,,,,,467.7827,1.3,469.0824,469.0824,472.3491,left,1,3.2579,,472.3492,473.3481,0,4,4,4,1,total,2,images/Ex5.jpg,left,reversed,hard,1,,,,,
,,,,,6570824312e21ad0a49858f4,001,30,Male,Malaysia,Master,2024-03-05_22h20.49.494,CRL1h,2023.2.3,MacIntel,64.1025641,65e67470ae2fbf2172c317b2,65e79a8f010247fd67c1a9e4,,,,,,,,,,,473.3616,0.7,474.049,474.0491,475.2239,left,0,1.1733,,475.224,476.2155,0,5,5,11,1,total,2,images/Ex4.jpg,right,reversed,hard,1,,,,,
,,,,,6570824312e21ad0a49858f4,001,30,Male,Malaysia,Master,2024-03-05_22h20.49.494,CRL1h,2023.2.3,MacIntel,64.1025641,65e67470ae2fbf2172c317b2,65e79a8f010247fd67c1a9e4,,,,,,,,,,,476.216,1.3,477.5158,477.5158,479.3488,right,1,1.8317,,479.3488,480.3487,0,6,6,0,1,total,2,images/Ex1.jpg,right,reversed,hard,1,,,,,
,,,,,6570824312e21ad0a49858f4,001,30,Male,Malaysia,Master,2024-03-05_22h20.49.494,CRL1h,2023.2.3,MacIntel,64.1025641,65e67470ae2fbf2172c317b2,65e79a8f010247fd67c1a9e4,,,,,,,,,,,480.3493,0.9,481.2483,481.2484,482.6656,left,1,1.4055,,482.6656,483.658,0,7,7,5,1,total,2,images/Ex6.jpg,left,reversed,hard,1,,,,,
,,,,,6570824312e21ad0a49858f4,001,30,Male,Malaysia,Master,2024-03-05_22h20.49.494,CRL1h,2023.2.3,MacIntel,64.1025641,65e67470ae2fbf2172c317b2,65e79a8f010247fd67c1a9e4,,,,,,,,,,,483.6585,0.9,484.5489,484.5489,487.6489,right,0,3.0956,,487.649,488.6386,0,8,8,7,1,total,2,images/Ex8.jpg,left,reversed,hard,1,,,,,
,,,,,6570824312e21ad0a49858f4,001,30,Male,Malaysia,Master,2024-03-05_22h20.49.494,CRL1h,2023.2.3,MacIntel,64.1025641,65e67470ae2fbf2172c317b2,65e79a8f010247fd67c1a9e4,,,,,,,,,,,488.6518,0.9,489.5476,489.5476,491.0151,left,1,1.4664,,491.0151,492.0154,0,9,9,14,1,total,2,images/Ex7.jpg,left,reversed,hard,1,,,,,
,,,,,6570824312e21ad0a49858f4,001,30,Male,Malaysia,Master,2024-03-05_22h20.49.494,CRL1h,2023.2.3,MacIntel,64.1025641,65e67470ae2fbf2172c317b2,65e79a8f010247fd67c1a9e4,,,,,,,,,,,492.0159,1.1,493.1214,493.1215,494.5656,right,1,1.4339,,494.5656,495.5551,0,10,10,1,1,total,2,images/Ex2.jpg,right,reversed,hard,1,,,,,
,,,,,6570824312e21ad0a49858f4,001,30,Male,Malaysia,Master,2024-03-05_22h20.49.494,CRL1h,2023.2.3,MacIntel,64.1025641,65e67470ae2fbf2172c317b2,65e79a8f010247fd67c1a9e4,,,,,,,,,,,495.5558,0.6,496.1487,496.1487,498.4407,left,1,2.2908,,498.4407,499.4379,0,11,11,13,1,total,2,images/Ex6.jpg,left,reversed,hard,1,,,,,
,,,,,6570824312e21ad0a49858f4,001,30,Male,Malaysia,Master,2024-03-05_22h20.49.494,CRL1h,2023.2.3,MacIntel,64.1025641,65e67470ae2fbf2172c317b2,65e79a8f010247fd67c1a9e4,,,,,,,,,,,499.4511,0.7,500.1577,500.1578,500.9483,right,1,0.7873,,500.9484,501.9383,0,12,12,3,1,total,2,images/Ex4.jpg,right,reversed,hard,1,,,,,
,,,,,6570824312e21ad0a49858f4,001,30,Male,Malaysia,Master,2024-03-05_22h20.49.494,CRL1h,2023.2.3,MacIntel,64.1025641,65e67470ae2fbf2172c317b2,65e79a8f010247fd67c1a9e4,,,,,,,,,,,501.9386,0.9,502.8323,502.8323,503.5486,right,1,0.7067,,503.5487,504.5485,0,13,13,9,1,total,2,images/Ex2.jpg,right,reversed,hard,1,,,,,
,,,,,6570824312e21ad0a49858f4,001,30,Male,Malaysia,Master,2024-03-05_22h20.49.494,CRL1h,2023.2.3,MacIntel,64.1025641,65e67470ae2fbf2172c317b2,65e79a8f010247fd67c1a9e4,,,,,,,,,,,504.549,0.6,505.1486,505.1487,509.4987,left,1,4.3402,,509.4987,510.4987,0,14,14,15,1,total,2,images/Ex8.jpg,left,reversed,hard,1,,,,,
,,,,,6570824312e21ad0a49858f4,001,30,Male,Malaysia,Master,2024-03-05_22h20.49.494,CRL1h,2023.2.3,MacIntel,64.1025641,65e67470ae2fbf2172c317b2,65e79a8f010247fd67c1a9e4,,,,,,,,,,,510.5119,1.2,511.7216,511.7216,512.8488,right,1,1.1191,,512.8489,513.8485,0,15,15,2,1,total,2,images/Ex3.jpg,right,reversed,hard,1,,,,,
,,,,,6570824312e21ad0a49858f4,001,30,Male,Malaysia,Master,2024-03-05_22h20.49.494,CRL1h,2023.2.3,MacIntel,64.1025641,65e67470ae2fbf2172c317b2,65e79a8f010247fd67c1a9e4,,,,,,,,,,,513.8489,0.8,514.6541,514.6541,516.3477,right,1,1.6847,,516.3477,517.3484,1,0,16,0,1,total,2,images/Ex1.jpg,right,reversed,hard,1,,,,,
,,,,,6570824312e21ad0a49858f4,001,30,Male,Malaysia,Master,2024-03-05_22h20.49.494,CRL1h,2023.2.3,MacIntel,64.1025641,65e67470ae2fbf2172c317b2,65e79a8f010247fd67c1a9e4,,,,,,,,,,,517.362,0.8,518.1549,518.1549,519.5319,left,1,1.3689,,519.532,520.5315,1,1,17,6,1,total,2,images/Ex7.jpg,left,reversed,hard,1,,,,,
,,,,,6570824312e21ad0a49858f4,001,30,Male,Malaysia,Master,2024-03-05_22h20.49.494,CRL1h,2023.2.3,MacIntel,64.1025641,65e67470ae2fbf2172c317b2,65e79a8f010247fd67c1a9e4,,,,,,,,,,,520.5321,0.7,521.2317,521.2317,523.4983,left,1,2.2653,,523.4984,524.4983,1,2,18,5,1,total,2,images/Ex6.jpg,left,reversed,hard,1,,,,,
,,,,,6570824312e21ad0a49858f4,001,30,Male,Malaysia,Master,2024-03-05_22h20.49.494,CRL1h,2023.2.3,MacIntel,64.1025641,65e67470ae2fbf2172c317b2,65e79a8f010247fd67c1a9e4,,,,,,,,,,,524.4987,1.5,525.9983,525.9983,527.465,left,1,1.4608,,527.465,528.465,1,3,19,12,1,total,2,images/Ex5.jpg,left,reversed,hard,1,,,,,
,,,,,6570824312e21ad0a49858f4,001,30,Male,Malaysia,Master,2024-03-05_22h20.49.494,CRL1h,2023.2.3,MacIntel,64.1025641,65e67470ae2fbf2172c317b2,65e79a8f010247fd67c1a9e4,,,,,,,,,,,528.4654,1.1,529.5571,529.5571,530.182,right,1,0.6201,,530.182,531.1708,1,4,20,8,1,total,2,images/Ex1.jpg,right,reversed,hard,1,,,,,
,,,,,6570824312e21ad0a49858f4,001,30,Male,Malaysia,Master,2024-03-05_22h20.49.494,CRL1h,2023.2.3,MacIntel,64.1025641,65e67470ae2fbf2172c317b2,65e79a8f010247fd67c1a9e4,,,,,,,,,,,531.1712,0.7,531.8649,531.8649,533.0818,left,1,1.2089,,533.0819,534.0725,1,5,21,4,1,total,2,images/Ex5.jpg,left,reversed,hard,1,,,,,
,,,,,6570824312e21ad0a49858f4,001,30,Male,Malaysia,Master,2024-03-05_22h20.49.494,CRL1h,2023.2.3,MacIntel,64.1025641,65e67470ae2fbf2172c317b2,65e79a8f010247fd67c1a9e4,,,,,,,,,,,534.073,0.8,534.8647,534.8647,536.4817,left,1,1.6076,,536.4817,537.4816,1,6,22,14,1,total,2,images/Ex7.jpg,left,reversed,hard,1,,,,,
,,,,,6570824312e21ad0a49858f4,001,30,Male,Malaysia,Master,2024-03-05_22h20.49.494,CRL1h,2023.2.3,MacIntel,64.1025641,65e67470ae2fbf2172c317b2,65e79a8f010247fd67c1a9e4,,,,,,,,,,,537.4821,0.6,538.088,538.0881,539.92,left,1,1.831,,539.9201,540.9144,1,7,23,7,1,total,2,images/Ex8.jpg,left,reversed,hard,1,,,,,
,,,,,6570824312e21ad0a49858f4,001,30,Male,Malaysia,Master,2024-03-05_22h20.49.494,CRL1h,2023.2.3,MacIntel,64.1025641,65e67470ae2fbf2172c317b2,65e79a8f010247fd67c1a9e4,,,,,,,,,,,540.9278,1,541.9309,541.9309,542.5717,right,1,0.6397,,542.5718,543.5647,1,8,24,3,1,total,2,images/Ex4.jpg,right,reversed,hard,1,,,,,
,,,,,6570824312e21ad0a49858f4,001,30,Male,Malaysia,Master,2024-03-05_22h20.49.494,CRL1h,2023.2.3,MacIntel,64.1025641,65e67470ae2fbf2172c317b2,65e79a8f010247fd67c1a9e4,,,,,,,,,,,543.5652,1,544.5647,544.5648,546.6475,left,1,2.0805,,546.6475,547.6543,1,9,25,13,1,total,2,images/Ex6.jpg,left,reversed,hard,1,,,,,
,,,,,6570824312e21ad0a49858f4,001,30,Male,Malaysia,Master,2024-03-05_22h20.49.494,CRL1h,2023.2.3,MacIntel,64.1025641,65e67470ae2fbf2172c317b2,65e79a8f010247fd67c1a9e4,,,,,,,,,,,547.6676,1.4,549.0742,549.0742,549.7702,right,1,0.6949,,549.7703,550.7648,1,10,26,1,1,total,2,images/Ex2.jpg,right,reversed,hard,1,,,,,
,,,,,6570824312e21ad0a49858f4,001,30,Male,Malaysia,Master,2024-03-05_22h20.49.494,CRL1h,2023.2.3,MacIntel,64.1025641,65e67470ae2fbf2172c317b2,65e79a8f010247fd67c1a9e4,,,,,,,,,,,550.7653,1.1,551.8637,551.8638,553.6143,right,1,1.7484,,553.6143,554.6145,1,11,27,10,1,total,2,images/Ex3.jpg,right,reversed,hard,1,,,,,
,,,,,6570824312e21ad0a49858f4,001,30,Male,Malaysia,Master,2024-03-05_22h20.49.494,CRL1h,2023.2.3,MacIntel,64.1025641,65e67470ae2fbf2172c317b2,65e79a8f010247fd67c1a9e4,,,,,,,,,,,554.615,0.5,555.1152,555.1152,556.1146,left,1,0.9931,,556.1147,557.1145,1,12,28,15,1,total,2,images/Ex8.jpg,left,reversed,hard,1,,,,,
,,,,,6570824312e21ad0a49858f4,001,30,Male,Malaysia,Master,2024-03-05_22h20.49.494,CRL1h,2023.2.3,MacIntel,64.1025641,65e67470ae2fbf2172c317b2,65e79a8f010247fd67c1a9e4,,,,,,,,,,,557.115,1.3,558.4078,558.4079,559.1148,right,1,0.6973,,559.1148,560.1042,1,13,29,11,1,total,2,images/Ex4.jpg,right,reversed,hard,1,,,,,
,,,,,6570824312e21ad0a49858f4,001,30,Male,Malaysia,Master,2024-03-05_22h20.49.494,CRL1h,2023.2.3,MacIntel,64.1025641,65e67470ae2fbf2172c317b2,65e79a8f010247fd67c1a9e4,,,,,,,,,,,560.1048,0.9,560.997,560.9971,561.7971,right,1,0.7962,,561.7972,562.8045,1,14,30,9,1,total,2,images/Ex2.jpg,right,reversed,hard,1,,,,,
,,,,,6570824312e21ad0a49858f4,001,30,Male,Malaysia,Master,2024-03-05_22h20.49.494,CRL1h,2023.2.3,MacIntel,64.1025641,65e67470ae2fbf2172c317b2,65e79a8f010247fd67c1a9e4,,,,,,,,,,,562.8052,1.5,564.3029,564.3029,566.5312,right,1,2.222,,566.5313,567.5304,1,15,31,2,1,total,2,images/Ex3.jpg,right,reversed,hard,1,,,,,
,,,,,6570824312e21ad0a49858f4,001,30,Male,Malaysia,Master,2024-03-05_22h20.49.494,CRL1h,2023.2.3,MacIntel,64.1025641,65e67470ae2fbf2172c317b2,65e79a8f010247fd67c1a9e4,,,,,,,,,,,567.5437,1.3,568.8404,568.8404,569.6144,right,1,0.7729,,569.6144,570.6041,2,0,32,11,1,total,2,images/Ex4.jpg,right,reversed,hard,1,,,,,
,,,,,6570824312e21ad0a49858f4,001,30,Male,Malaysia,Master,2024-03-05_22h20.49.494,CRL1h,2023.2.3,MacIntel,64.1025641,65e67470ae2fbf2172c317b2,65e79a8f010247fd67c1a9e4,,,,,,,,,,,570.6045,0.7,571.2978,571.2978,574.4634,left,1,3.1629,,574.4634,575.4538,2,1,33,7,1,total,2,images/Ex8.jpg,left,reversed,hard,1,,,,,
,,,,,6570824312e21ad0a49858f4,001,30,Male,Malaysia,Master,2024-03-05_22h20.49.494,CRL1h,2023.2.3,MacIntel,64.1025641,65e67470ae2fbf2172c317b2,65e79a8f010247fd67c1a9e4,,,,,,,,,,,575.4672,0.7,576.1738,576.1739,577.03,left,1,0.8549,,577.03,578.031,2,2,34,5,1,total,2,images/Ex6.jpg,left,reversed,hard,1,,,,,
,,,,,6570824312e21ad0a49858f4,001,30,Male,Malaysia,Master,2024-03-05_22h20.49.494,CRL1h,2023.2.3,MacIntel,64.1025641,65e67470ae2fbf2172c317b2,65e79a8f010247fd67c1a9e4,,,,,,,,,,,578.0314,1.3,579.331,579.331,580.014,right,0,0.6805,,580.014,581.0138,2,3,35,14,1,total,2,images/Ex7.jpg,left,reversed,hard,1,,,,,
,,,,,6570824312e21ad0a49858f4,001,30,Male,Malaysia,Master,2024-03-05_22h20.49.494,CRL1h,2023.2.3,MacIntel,64.1025641,65e67470ae2fbf2172c317b2,65e79a8f010247fd67c1a9e4,,,,,,,,,,,581.0144,1,582.0142,582.0142,583.0906,right,1,1.0753,,583.0907,584.0809,2,4,36,9,1,total,2,images/Ex2.jpg,right,reversed,hard,1,,,,,
,,,,,6570824312e21ad0a49858f4,001,30,Male,Malaysia,Master,2024-03-05_22h20.49.494,CRL1h,2023.2.3,MacIntel,64.1025641,65e67470ae2fbf2172c317b2,65e79a8f010247fd67c1a9e4,,,,,,,,,,,584.0813,0.7,584.78,584.7801,586.1142,right,1,1.3282,,586.1142,587.1204,2,5,37,10,1,total,2,images/Ex3.jpg,right,reversed,hard,1,,,,,
,,,,,6570824312e21ad0a49858f4,001,30,Male,Malaysia,Master,2024-03-05_22h20.49.494,CRL1h,2023.2.3,MacIntel,64.1025641,65e67470ae2fbf2172c317b2,65e79a8f010247fd67c1a9e4,,,,,,,,,,,587.1337,1,588.1308,588.1308,588.9073,left,1,0.7753,,588.9074,589.8976,2,6,38,15,1,total,2,images/Ex8.jpg,left,reversed,hard,1,,,,,
,,,,,6570824312e21ad0a49858f4,001,30,Male,Malaysia,Master,2024-03-05_22h20.49.494,CRL1h,2023.2.3,MacIntel,64.1025641,65e67470ae2fbf2172c317b2,65e79a8f010247fd67c1a9e4,,,,,,,,,,,589.898,1.3,591.1871,591.1871,592.2637,right,1,1.0685,,592.2638,593.2641,2,7,39,8,1,total,2,images/Ex1.jpg,right,reversed,hard,1,,,,,
,,,,,6570824312e21ad0a49858f4,001,30,Male,Malaysia,Master,2024-03-05_22h20.49.494,CRL1h,2023.2.3,MacIntel,64.1025641,65e67470ae2fbf2172c317b2,65e79a8f010247fd67c1a9e4,,,,,,,,,,,593.2645,1.2,594.4641,594.4643,595.2542,right,1,0.7887,,595.2542,596.2541,2,8,40,1,1,total,2,images/Ex2.jpg,right,reversed,hard,1,,,,,
,,,,,6570824312e21ad0a49858f4,001,30,Male,Malaysia,Master,2024-03-05_22h20.49.494,CRL1h,2023.2.3,MacIntel,64.1025641,65e67470ae2fbf2172c317b2,65e79a8f010247fd67c1a9e4,,,,,,,,,,,596.2547,0.6,596.8475,596.8475,597.5641,right,1,0.7061,,597.5642,598.554,2,9,41,3,1,total,2,images/Ex4.jpg,right,reversed,hard,1,,,,,
,,,,,6570824312e21ad0a49858f4,001,30,Male,Malaysia,Master,2024-03-05_22h20.49.494,CRL1h,2023.2.3,MacIntel,64.1025641,65e67470ae2fbf2172c317b2,65e79a8f010247fd67c1a9e4,,,,,,,,,,,598.5546,0.7,599.2473,599.2473,600.1696,left,1,0.9213,,600.1696,601.1639,2,10,42,13,1,total,2,images/Ex6.jpg,left,reversed,hard,1,,,,,
,,,,,6570824312e21ad0a49858f4,001,30,Male,Malaysia,Master,2024-03-05_22h20.49.494,CRL1h,2023.2.3,MacIntel,64.1025641,65e67470ae2fbf2172c317b2,65e79a8f010247fd67c1a9e4,,,,,,,,,,,601.1643,1.1,602.2638,602.2639,604.6808,left,1,2.4108,,604.6808,605.6735,2,11,43,4,1,total,2,images/Ex5.jpg,left,reversed,hard,1,,,,,
,,,,,6570824312e21ad0a49858f4,001,30,Male,Malaysia,Master,2024-03-05_22h20.49.494,CRL1h,2023.2.3,MacIntel,64.1025641,65e67470ae2fbf2172c317b2,65e79a8f010247fd67c1a9e4,,,,,,,,,,,605.6861,1.5,607.1802,607.1802,608.1479,left,1,0.959,,608.1479,609.1471,2,12,44,6,1,total,2,images/Ex7.jpg,left,reversed,hard,1,,,,,
,,,,,6570824312e21ad0a49858f4,001,30,Male,Malaysia,Master,2024-03-05_22h20.49.494,CRL1h,2023.2.3,MacIntel,64.1025641,65e67470ae2fbf2172c317b2,65e79a8f010247fd67c1a9e4,,,,,,,,,,,609.1476,1.1,610.2399,610.24,611.2393,right,1,0.9982,,611.2394,612.2298,2,13,45,0,1,total,2,images/Ex1.jpg,right,reversed,hard,1,,,,,
,,,,,6570824312e21ad0a49858f4,001,30,Male,Malaysia,Master,2024-03-05_22h20.49.494,CRL1h,2023.2.3,MacIntel,64.1025641,65e67470ae2fbf2172c317b2,65e79a8f010247fd67c1a9e4,,,,,,,,,,,612.2304,0.8,613.0297,613.0297,614.0472,right,1,1.0066,,614.0472,615.0393,2,14,46,2,1,total,2,images/Ex3.jpg,right,reversed,hard,1,,,,,
,,,,,6570824312e21ad0a49858f4,001,30,Male,Malaysia,Master,2024-03-05_22h20.49.494,CRL1h,2023.2.3,MacIntel,64.1025641,65e67470ae2fbf2172c317b2,65e79a8f010247fd67c1a9e4,,,,,,,,,,,615.0397,1.1,616.1303,616.1304,617.1472,left,1,1.0156,,617.1472,618.1472,2,15,47,12,1,total,2,images/Ex5.jpg,left,reversed,hard,1,,,,,
,,,,,6570824312e21ad0a49858f4,001,30,Male,Malaysia,Master,2024-03-05_22h20.49.494,CRL1h,2023.2.3,MacIntel,64.1025641,65e67470ae2fbf2172c317b2,65e79a8f010247fd67c1a9e4,,,,,,,,,,,618.1476,1.3,619.4471,619.4471,620.8175,right,0,1.3693,,620.8175,621.8223,3,0,48,15,1,total,2,images/Ex8.jpg,left,reversed,hard,1,,,,,
,,,,,6570824312e21ad0a49858f4,001,30,Male,Malaysia,Master,2024-03-05_22h20.49.494,CRL1h,2023.2.3,MacIntel,64.1025641,65e67470ae2fbf2172c317b2,65e79a8f010247fd67c1a9e4,,,,,,,,,,,621.8227,0.9,622.7137,622.7137,623.4304,right,1,0.7113,,623.4304,624.4227,3,1,49,2,1,total,2,images/Ex3.jpg,right,reversed,hard,1,,,,,
,,,,,6570824312e21ad0a49858f4,001,30,Male,Malaysia,Master,2024-03-05_22h20.49.494,CRL1h,2023.2.3,MacIntel,64.1025641,65e67470ae2fbf2172c317b2,65e79a8f010247fd67c1a9e4,,,,,,,,,,,624.4233,1.4,625.8136,625.8136,626.5127,left,1,0.6981,,626.5128,627.5137,3,2,50,7,1,total,2,images/Ex8.jpg,left,reversed,hard,1,,,,,
,,,,,6570824312e21ad0a49858f4,001,30,Male,Malaysia,Master,2024-03-05_22h20.49.494,CRL1h,2023.2.3,MacIntel,64.1025641,65e67470ae2fbf2172c317b2,65e79a8f010247fd67c1a9e4,,,,,,,,,,,627.5142,1.4,628.9036,628.9036,629.7127,left,1,0.8067,,629.7128,630.7136,3,3,51,13,1,total,2,images/Ex6.jpg,left,reversed,hard,1,,,,,
,,,,,6570824312e21ad0a49858f4,001,30,Male,Malaysia,Master,2024-03-05_22h20.49.494,CRL1h,2023.2.3,MacIntel,64.1025641,65e67470ae2fbf2172c317b2,65e79a8f010247fd67c1a9e4,,,,,,,,,,,630.7142,0.9,631.62,631.6201,632.6501,left,1,1.0288,,632.6501,633.6531,3,4,52,12,1,total,2,images/Ex5.jpg,left,reversed,hard,1,,,,,
,,,,,6570824312e21ad0a49858f4,001,30,Male,Malaysia,Master,2024-03-05_22h20.49.494,CRL1h,2023.2.3,MacIntel,64.1025641,65e67470ae2fbf2172c317b2,65e79a8f010247fd67c1a9e4,,,,,,,,,,,633.6535,0.7,634.3468,634.3468,635.1802,right,0,0.8216,,635.1802,636.1801,3,5,53,14,1,total,2,images/Ex7.jpg,left,reversed,hard,1,,,,,
,,,,,6570824312e21ad0a49858f4,001,30,Male,Malaysia,Master,2024-03-05_22h20.49.494,CRL1h,2023.2.3,MacIntel,64.1025641,65e67470ae2fbf2172c317b2,65e79a8f010247fd67c1a9e4,,,,,,,,,,,636.1805,1,637.1802,637.1802,638.1305,right,1,0.9412,,638.1305,639.1296,3,6,54,9,1,total,2,images/Ex2.jpg,right,reversed,hard,1,,,,,
,,,,,6570824312e21ad0a49858f4,001,30,Male,Malaysia,Master,2024-03-05_22h20.49.494,CRL1h,2023.2.3,MacIntel,64.1025641,65e67470ae2fbf2172c317b2,65e79a8f010247fd67c1a9e4,,,,,,,,,,,639.1301,0.8,639.9368,639.9369,640.5486,right,1,0.6007,,640.5486,641.5486,3,7,55,1,1,total,2,images/Ex2.jpg,right,reversed,hard,1,,,,,
,,,,,6570824312e21ad0a49858f4,001,30,Male,Malaysia,Master,2024-03-05_22h20.49.494,CRL1h,2023.2.3,MacIntel,64.1025641,65e67470ae2fbf2172c317b2,65e79a8f010247fd67c1a9e4,,,,,,,,,,,641.5491,1,642.5386,642.5386,643.0636,right,1,0.521,,643.0636,644.053,3,8,56,3,1,total,2,images/Ex4.jpg,right,reversed,hard,1,,,,,
,,,,,6570824312e21ad0a49858f4,001,30,Male,Malaysia,Master,2024-03-05_22h20.49.494,CRL1h,2023.2.3,MacIntel,64.1025641,65e67470ae2fbf2172c317b2,65e79a8f010247fd67c1a9e4,,,,,,,,,,,644.0536,0.6,644.6518,644.6519,645.6032,right,1,0.9502,,645.6032,646.6001,3,9,57,0,1,total,2,images/Ex1.jpg,right,reversed,hard,1,,,,,
,,,,,6570824312e21ad0a49858f4,001,30,Male,Malaysia,Master,2024-03-05_22h20.49.494,CRL1h,2023.2.3,MacIntel,64.1025641,65e67470ae2fbf2172c317b2,65e79a8f010247fd67c1a9e4,,,,,,,,,,,646.6006,0.9,647.4961,647.4961,648.6468,left,1,1.1395,,648.6468,649.6379,3,10,58,5,1,total,2,images/Ex6.jpg,left,reversed,hard,1,,,,,
,,,,,6570824312e21ad0a49858f4,001,30,Male,Malaysia,Master,2024-03-05_22h20.49.494,CRL1h,2023.2.3,MacIntel,64.1025641,65e67470ae2fbf2172c317b2,65e79a8f010247fd67c1a9e4,,,,,,,,,,,649.6383,0.9,650.5299,650.53,651.2133,right,1,0.675,,651.2134,652.2132,3,11,59,11,1,total,2,images/Ex4.jpg,right,reversed,hard,1,,,,,
,,,,,6570824312e21ad0a49858f4,001,30,Male,Malaysia,Master,2024-03-05_22h20.49.494,CRL1h,2023.2.3,MacIntel,64.1025641,65e67470ae2fbf2172c317b2,65e79a8f010247fd67c1a9e4,,,,,,,,,,,652.2136,0.6,652.8125,652.8125,654.1132,left,1,1.2982,,654.1132,655.1134,3,12,60,4,1,total,2,images/Ex5.jpg,left,reversed,hard,1,,,,,
,,,,,6570824312e21ad0a49858f4,001,30,Male,Malaysia,Master,2024-03-05_22h20.49.494,CRL1h,2023.2.3,MacIntel,64.1025641,65e67470ae2fbf2172c317b2,65e79a8f010247fd67c1a9e4,,,,,,,,,,,655.1138,1.2,656.3029,656.3029,657.2499,right,1,0.9457,,657.25,658.253,3,13,61,10,1,total,2,images/Ex3.jpg,right,reversed,hard,1,,,,,
,,,,,6570824312e21ad0a49858f4,001,30,Male,Malaysia,Master,2024-03-05_22h20.49.494,CRL1h,2023.2.3,MacIntel,64.1025641,65e67470ae2fbf2172c317b2,65e79a8f010247fd67c1a9e4,,,,,,,,,,,658.2536,1.2,659.4458,659.4458,660.3523,right,1,0.9052,,660.3523,661.3528,3,14,62,8,1,total,2,images/Ex1.jpg,right,reversed,hard,1,,,,,
,,,,,6570824312e21ad0a49858f4,001,30,Male,Malaysia,Master,2024-03-05_22h20.49.494,CRL1h,2023.2.3,MacIntel,64.1025641,65e67470ae2fbf2172c317b2,65e79a8f010247fd67c1a9e4,,,,,,,,,,,661.3533,0.7,662.052,662.0521,664.7221,left,1,2.669,,664.7222,665.713,3,15,63,6,1,total,2,images/Ex7.jpg,left,reversed,hard,1,,,,,
,,,,,6570824312e21ad0a49858f4,001,30,Male,Malaysia,Master,2024-03-05_22h20.49.494,CRL1h,2023.2.3,MacIntel,64.1025641,65e67470ae2fbf2172c317b2,65e79a8f010247fd67c1a9e4,,,,,,665.7267,668.7798,space,3.0306,,668.7856,0.5,669.2797,669.2798,672.4956,left,1,3.2068,,672.4957,673.4954,0,0,0,9,1,partial,1,images/Ex10.jpg,left,training,hard,1,,,,,
,,,,,6570824312e21ad0a49858f4,001,30,Male,Malaysia,Master,2024-03-05_22h20.49.494,CRL1h,2023.2.3,MacIntel,64.1025641,65e67470ae2fbf2172c317b2,65e79a8f010247fd67c1a9e4,,,,,,,,,,,673.5085,0.7,674.1964,674.1964,675.4889,right,1,1.2917,,675.489,676.486,0,1,1,15,1,partial,1,images/Ex16.jpg,right,training,hard,1,,,,,
,,,,,6570824312e21ad0a49858f4,001,30,Male,Malaysia,Master,2024-03-05_22h20.49.494,CRL1h,2023.2.3,MacIntel,64.1025641,65e67470ae2fbf2172c317b2,65e79a8f010247fd67c1a9e4,,,,,,,,,,,676.4864,1.2,677.6797,677.6798,679.0133,right,0,1.3258,,679.0133,680.0125,0,2,2,2,1,partial,1,images/Ex11.jpg,left,training,hard,1,,,,,
,,,,,6570824312e21ad0a49858f4,001,30,Male,Malaysia,Master,2024-03-05_22h20.49.494,CRL1h,2023.2.3,MacIntel,64.1025641,65e67470ae2fbf2172c317b2,65e79a8f010247fd67c1a9e4,,,,,,,,,,,680.0129,1.4,681.4128,681.4128,682.4132,left,1,0.9937,,682.4132,683.419,0,3,3,11,1,partial,1,images/Ex12.jpg,left,training,hard,1,,,,,
,,,,,6570824312e21ad0a49858f4,001,30,Male,Malaysia,Master,2024-03-05_22h20.49.494,CRL1h,2023.2.3,MacIntel,64.1025641,65e67470ae2fbf2172c317b2,65e79a8f010247fd67c1a9e4,,,,,,,,,,,683.4195,1.1,684.5195,684.5195,685.8464,left,1,1.3189,,685.8464,686.8463,0,4,4,10,1,partial,1,images/Ex11.jpg,left,training,hard,1,,,,,
,,,,,6570824312e21ad0a49858f4,001,30,Male,Malaysia,Master,2024-03-05_22h20.49.494,CRL1h,2023.2.3,MacIntel,64.1025641,65e67470ae2fbf2172c317b2,65e79a8f010247fd67c1a9e4,,,,,,,,,,,686.8467,0.9,687.7456,687.7456,688.8358,left,0,1.0892,,688.8358,689.829,0,5,5,5,1,partial,1,images/Ex14.jpg,right,training,hard,1,,,,,
,,,,,6570824312e21ad0a49858f4,001,30,Male,Malaysia,Master,2024-03-05_22h20.49.494,CRL1h,2023.2.3,MacIntel,64.1025641,65e67470ae2fbf2172c317b2,65e79a8f010247fd67c1a9e4,,,,,,,,,,,689.8295,0.6,690.4222,690.4222,691.3463,right,1,0.9136,,691.3463,692.3455,0,6,6,7,1,partial,1,images/Ex16.jpg,right,training,hard,1,,,,,
,,,,,6570824312e21ad0a49858f4,001,30,Male,Malaysia,Master,2024-03-05_22h20.49.494,CRL1h,2023.2.3,MacIntel,64.1025641,65e67470ae2fbf2172c317b2,65e79a8f010247fd67c1a9e4,,,,,,,,,,,692.346,0.8,693.1459,693.146,694.2187,left,1,1.0717,,694.2188,695.2078,0,7,7,1,1,partial,1,images/Ex10.jpg,left,training,hard,1,,,,,
,,,,,6570824312e21ad0a49858f4,001,30,Male,Malaysia,Master,2024-03-05_22h20.49.494,CRL1h,2023.2.3,MacIntel,64.1025641,65e67470ae2fbf2172c317b2,65e79a8f010247fd67c1a9e4,,,,,,,,,,,695.2083,0.6,695.796,695.7961,696.7727,right,1,0.9754,,696.7727,697.7628,0,8,8,14,1,partial,1,images/Ex15.jpg,right,training,hard,1,,,,,
,,,,,6570824312e21ad0a49858f4,001,30,Male,Malaysia,Master,2024-03-05_22h20.49.494,CRL1h,2023.2.3,MacIntel,64.1025641,65e67470ae2fbf2172c317b2,65e79a8f010247fd67c1a9e4,,,,,,,,,,,697.7633,0.8,698.5553,698.5555,699.1792,right,1,0.6135,,699.1792,700.1784,0,9,9,6,1,partial,1,images/Ex15.jpg,right,training,hard,1,,,,,
,,,,,6570824312e21ad0a49858f4,001,30,Male,Malaysia,Master,2024-03-05_22h20.49.494,CRL1h,2023.2.3,MacIntel,64.1025641,65e67470ae2fbf2172c317b2,65e79a8f010247fd67c1a9e4,,,,,,,,,,,700.1789,1.1,701.2785,701.2786,703.1294,right,1,1.8424,,703.1294,704.1186,0,10,10,4,1,partial,1,images/Ex13.jpg,right,training,hard,1,,,,,
,,,,,6570824312e21ad0a49858f4,001,30,Male,Malaysia,Master,2024-03-05_22h20.49.494,CRL1h,2023.2.3,MacIntel,64.1025641,65e67470ae2fbf2172c317b2,65e79a8f010247fd67c1a9e4,,,,,,,,,,,704.1191,1,705.1126,705.1126,706.196,right,0,1.0736,,706.196,707.1838,0,11,11,3,1,partial,1,images/Ex12.jpg,left,training,hard,1,,,,,
,,,,,6570824312e21ad0a49858f4,001,30,Male,Malaysia,Master,2024-03-05_22h20.49.494,CRL1h,2023.2.3,MacIntel,64.1025641,65e67470ae2fbf2172c317b2,65e79a8f010247fd67c1a9e4,,,,,,,,,,,707.1843,0.7,707.8859,707.8859,709.346,left,1,1.4488,,709.346,710.3527,0,12,12,0,1,partial,1,images/Ex9.jpg,left,training,hard,1,,,,,
,,,,,6570824312e21ad0a49858f4,001,30,Male,Malaysia,Master,2024-03-05_22h20.49.494,CRL1h,2023.2.3,MacIntel,64.1025641,65e67470ae2fbf2172c317b2,65e79a8f010247fd67c1a9e4,,,,,,,,,,,710.3531,1.4,711.7458,711.7458,712.503,left,1,0.7563,,712.5031,713.4958,0,13,13,8,1,partial,1,images/Ex9.jpg,left,training,hard,1,,,,,
,,,,,6570824312e21ad0a49858f4,001,30,Male,Malaysia,Master,2024-03-05_22h20.49.494,CRL1h,2023.2.3,MacIntel,64.1025641,65e67470ae2fbf2172c317b2,65e79a8f010247fd67c1a9e4,,,,,,,,,,,713.4962,1.1,714.5866,714.5867,715.8622,right,1,1.2745,,715.8622,716.8624,0,14,14,12,1,partial,1,images/Ex13.jpg,right,training,hard,1,,,,,
,,,,,6570824312e21ad0a49858f4,001,30,Male,Malaysia,Master,2024-03-05_22h20.49.494,CRL1h,2023.2.3,MacIntel,64.1025641,65e67470ae2fbf2172c317b2,65e79a8f010247fd67c1a9e4,,,,,,,,,,,716.8628,0.9,717.7623,717.7624,718.8126,right,1,1.0405,,718.8126,719.819,0,15,15,13,1,partial,1,images/Ex14.jpg,right,training,hard,1,,,,,
,,,,,6570824312e21ad0a49858f4,001,30,Male,Malaysia,Master,2024-03-05_22h20.49.494,CRL1h,2023.2.3,MacIntel,64.1025641,65e67470ae2fbf2172c317b2,65e79a8f010247fd67c1a9e4,,,,,,,,,,,719.8197,1.2,721.0123,721.0123,722.178,left,1,1.1644,,722.178,723.179,1,0,16,9,1,partial,1,images/Ex10.jpg,left,training,hard,1,,,,,
,,,,,6570824312e21ad0a49858f4,001,30,Male,Malaysia,Master,2024-03-05_22h20.49.494,CRL1h,2023.2.3,MacIntel,64.1025641,65e67470ae2fbf2172c317b2,65e79a8f010247fd67c1a9e4,,,,,,,,,,,723.1795,1.2,724.379,724.379,725.0792,left,1,0.6992,,725.0792,726.0789,1,1,17,1,1,partial,1,images/Ex10.jpg,left,training,hard,1,,,,,
,,,,,6570824312e21ad0a49858f4,001,30,Male,Malaysia,Master,2024-03-05_22h20.49.494,CRL1h,2023.2.3,MacIntel,64.1025641,65e67470ae2fbf2172c317b2,65e79a8f010247fd67c1a9e4,,,,,,,,,,,726.0794,0.7,726.7852,726.7852,727.7614,right,1,0.9738,,727.7614,728.7522,1,2,18,12,1,partial,1,images/Ex13.jpg,right,training,hard,1,,,,,
,,,,,6570824312e21ad0a49858f4,001,30,Male,Malaysia,Master,2024-03-05_22h20.49.494,CRL1h,2023.2.3,MacIntel,64.1025641,65e67470ae2fbf2172c317b2,65e79a8f010247fd67c1a9e4,,,,,,,,,,,728.7529,1,729.7457,729.7457,730.7679,right,1,1.021,,730.7679,731.7623,1,3,19,7,1,partial,1,images/Ex16.jpg,right,training,hard,1,,,,,
,,,,,6570824312e21ad0a49858f4,001,30,Male,Malaysia,Master,2024-03-05_22h20.49.494,CRL1h,2023.2.3,MacIntel,64.1025641,65e67470ae2fbf2172c317b2,65e79a8f010247fd67c1a9e4,,,,,,,,,,,731.7629,0.9,732.6683,732.6683,733.7352,right,0,1.0657,,733.7352,734.7288,1,4,20,10,1,partial,1,images/Ex11.jpg,left,training,hard,1,,,,,
,,,,,6570824312e21ad0a49858f4,001,30,Male,Malaysia,Master,2024-03-05_22h20.49.494,CRL1h,2023.2.3,MacIntel,64.1025641,65e67470ae2fbf2172c317b2,65e79a8f010247fd67c1a9e4,,,,,,,,,,,734.7293,1.1,735.8288,735.8288,737.5791,right,0,1.7431,,737.5791,738.5849,1,5,21,0,1,partial,1,images/Ex9.jpg,left,training,hard,1,,,,,
,,,,,6570824312e21ad0a49858f4,001,30,Male,Malaysia,Master,2024-03-05_22h20.49.494,CRL1h,2023.2.3,MacIntel,64.1025641,65e67470ae2fbf2172c317b2,65e79a8f010247fd67c1a9e4,,,,,,,,,,,738.5854,0.6,739.179,739.1791,740.2962,left,1,1.1161,,740.2963,741.2954,1,6,22,11,1,partial,1,images/Ex12.jpg,left,training,hard,1,,,,,
,,,,,6570824312e21ad0a49858f4,001,30,Male,Malaysia,Master,2024-03-05_22h20.49.494,CRL1h,2023.2.3,MacIntel,64.1025641,65e67470ae2fbf2172c317b2,65e79a8f010247fd67c1a9e4,,,,,,,,,,,741.296,0.9,742.1955,742.1956,743.1123,right,1,0.9157,,743.1124,744.1112,1,7,23,5,1,partial,1,images/Ex14.jpg,right,training,hard,1,,,,,
,,,,,6570824312e21ad0a49858f4,001,30,Male,Malaysia,Master,2024-03-05_22h20.49.494,CRL1h,2023.2.3,MacIntel,64.1025641,65e67470ae2fbf2172c317b2,65e79a8f010247fd67c1a9e4,,,,,,,,,,,744.1118,0.9,745.012,745.0121,745.9287,left,0,0.9107,,745.9287,746.9348,1,8,24,4,1,partial,1,images/Ex13.jpg,right,training,hard,1,,,,,
,,,,,6570824312e21ad0a49858f4,001,30,Male,Malaysia,Master,2024-03-05_22h20.49.494,CRL1h,2023.2.3,MacIntel,64.1025641,65e67470ae2fbf2172c317b2,65e79a8f010247fd67c1a9e4,,,,,,,,,,,746.9353,1.1,748.0287,748.0287,749.1954,right,0,1.1554,,749.1955,750.1953,1,9,25,8,1,partial,1,images/Ex9.jpg,left,training,hard,1,,,,,
,,,,,6570824312e21ad0a49858f4,001,30,Male,Malaysia,Master,2024-03-05_22h20.49.494,CRL1h,2023.2.3,MacIntel,64.1025641,65e67470ae2fbf2172c317b2,65e79a8f010247fd67c1a9e4,,,,,,,,,,,750.1957,0.6,750.7948,750.7949,751.7017,right,1,0.9056,,751.7017,752.6941,1,10,26,13,1,partial,1,images/Ex14.jpg,right,training,hard,1,,,,,
,,,,,6570824312e21ad0a49858f4,001,30,Male,Malaysia,Master,2024-03-05_22h20.49.494,CRL1h,2023.2.3,MacIntel,64.1025641,65e67470ae2fbf2172c317b2,65e79a8f010247fd67c1a9e4,,,,,,,,,,,752.6944,0.7,753.4015,753.4015,754.4277,left,0,1.0245,,754.4277,755.4286,1,11,27,6,1,partial,1,images/Ex15.jpg,right,training,hard,1,,,,,
,,,,,6570824312e21ad0a49858f4,001,30,Male,Malaysia,Master,2024-03-05_22h20.49.494,CRL1h,2023.2.3,MacIntel,64.1025641,65e67470ae2fbf2172c317b2,65e79a8f010247fd67c1a9e4,,,,,,,,,,,755.4291,0.6,756.0285,756.0285,758.8275,right,1,2.798,,758.8276,759.8286,1,12,28,15,1,partial,1,images/Ex16.jpg,right,training,hard,1,,,,,
,,,,,6570824312e21ad0a49858f4,001,30,Male,Malaysia,Master,2024-03-05_22h20.49.494,CRL1h,2023.2.3,MacIntel,64.1025641,65e67470ae2fbf2172c317b2,65e79a8f010247fd67c1a9e4,,,,,,,,,,,759.8422,1.5,761.3443,761.3444,762.2856,right,0,0.94,,762.2857,763.2734,1,13,29,3,1,partial,1,images/Ex12.jpg,left,training,hard,1,,,,,
,,,,,6570824312e21ad0a49858f4,001,30,Male,Malaysia,Master,2024-03-05_22h20.49.494,CRL1h,2023.2.3,MacIntel,64.1025641,65e67470ae2fbf2172c317b2,65e79a8f010247fd67c1a9e4,,,,,,,,,,,763.274,0.5,763.7617,763.7618,764.7336,right,1,0.9707,,764.7336,765.7274,1,14,30,14,1,partial,1,images/Ex15.jpg,right,training,hard,1,,,,,
,,,,,6570824312e21ad0a49858f4,001,30,Male,Malaysia,Master,2024-03-05_22h20.49.494,CRL1h,2023.2.3,MacIntel,64.1025641,65e67470ae2fbf2172c317b2,65e79a8f010247fd67c1a9e4,,,,,,,,,,,765.7278,0.9,766.6285,766.6286,767.5786,left,1,0.9445,,767.5786,768.5776,1,15,31,2,1,partial,1,images/Ex11.jpg,left,training,hard,1,,,,,
,,,,,6570824312e21ad0a49858f4,001,30,Male,Malaysia,Master,2024-03-05_22h20.49.494,CRL1h,2023.2.3,MacIntel,64.1025641,65e67470ae2fbf2172c317b2,65e79a8f010247fd67c1a9e4,,,,,,,,,,,768.578,1.2,769.7679,769.7679,770.745,right,1,0.972,,770.745,771.7338,2,0,32,13,1,partial,1,images/Ex14.jpg,right,training,hard,1,,,,,
,,,,,6570824312e21ad0a49858f4,001,30,Male,Malaysia,Master,2024-03-05_22h20.49.494,CRL1h,2023.2.3,MacIntel,64.1025641,65e67470ae2fbf2172c317b2,65e79a8f010247fd67c1a9e4,,,,,,,,,,,771.7343,1.1,772.8283,772.8283,773.8512,right,1,1.0219,,773.8513,774.8442,2,1,33,12,1,partial,1,images/Ex13.jpg,right,training,hard,1,,,,,
,,,,,6570824312e21ad0a49858f4,001,30,Male,Malaysia,Master,2024-03-05_22h20.49.494,CRL1h,2023.2.3,MacIntel,64.1025641,65e67470ae2fbf2172c317b2,65e79a8f010247fd67c1a9e4,,,,,,,,,,,774.8447,1.2,776.0353,776.0353,777.0002,left,1,0.9636,,777.0003,778.0017,2,2,34,1,1,partial,1,images/Ex10.jpg,left,training,hard,1,,,,,
,,,,,6570824312e21ad0a49858f4,001,30,Male,Malaysia,Master,2024-03-05_22h20.49.494,CRL1h,2023.2.3,MacIntel,64.1025641,65e67470ae2fbf2172c317b2,65e79a8f010247fd67c1a9e4,,,,,,,,,,,778.0022,0.7,778.6949,778.6949,779.5552,right,0,0.8593,,779.5553,780.5442,2,3,35,10,1,partial,1,images/Ex11.jpg,left,training,hard,1,,,,,
,,,,,6570824312e21ad0a49858f4,001,30,Male,Malaysia,Master,2024-03-05_22h20.49.494,CRL1h,2023.2.3,MacIntel,64.1025641,65e67470ae2fbf2172c317b2,65e79a8f010247fd67c1a9e4,,,,,,,,,,,780.5446,0.9,781.445,781.445,782.3713,right,0,0.9252,,782.3713,783.3701,2,4,36,8,1,partial,1,images/Ex9.jpg,left,training,hard,1,,,,,
,,,,,6570824312e21ad0a49858f4,001,30,Male,Malaysia,Master,2024-03-05_22h20.49.494,CRL1h,2023.2.3,MacIntel,64.1025641,65e67470ae2fbf2172c317b2,65e79a8f010247fd67c1a9e4,,,,,,,,,,,783.3706,0.9,784.2609,784.261,786.2282,left,0,1.9566,,786.2283,787.2281,2,5,37,5,1,partial,1,images/Ex14.jpg,right,training,hard,1,,,,,
,,,,,6570824312e21ad0a49858f4,001,30,Male,Malaysia,Master,2024-03-05_22h20.49.494,CRL1h,2023.2.3,MacIntel,64.1025641,65e67470ae2fbf2172c317b2,65e79a8f010247fd67c1a9e4,,,,,,,,,,,787.2285,1.2,788.428,788.428,789.2282,right,0,0.7915,,789.2282,790.2212,2,6,38,0,1,partial,1,images/Ex9.jpg,left,training,hard,1,,,,,
,,,,,6570824312e21ad0a49858f4,001,30,Male,Malaysia,Master,2024-03-05_22h20.49.494,CRL1h,2023.2.3,MacIntel,64.1025641,65e67470ae2fbf2172c317b2,65e79a8f010247fd67c1a9e4,,,,,,,,,,,790.2217,0.6,790.8105,790.8106,791.5961,right,1,0.7845,,791.5962,792.5939,2,7,39,15,1,partial,1,images/Ex16.jpg,right,training,hard,1,,,,,
,,,,,6570824312e21ad0a49858f4,001,30,Male,Malaysia,Master,2024-03-05_22h20.49.494,CRL1h,2023.2.3,MacIntel,64.1025641,65e67470ae2fbf2172c317b2,65e79a8f010247fd67c1a9e4,,,,,,,,,,,792.5944,1,793.5947,793.5947,794.451,left,1,0.8553,,794.4512,795.4443,2,8,40,9,1,partial,1,images/Ex10.jpg,left,training,hard,1,,,,,
,,,,,6570824312e21ad0a49858f4,001,30,Male,Malaysia,Master,2024-03-05_22h20.49.494,CRL1h,2023.2.3,MacIntel,64.1025641,65e67470ae2fbf2172c317b2,65e79a8f010247fd67c1a9e4,,,,,,,,,,,795.4446,1,796.4448,796.4448,797.3944,left,1,0.9418,,797.3946,798.3944,2,9,41,2,1,partial,1,images/Ex11.jpg,left,training,hard,1,,,,,
,,,,,6570824312e21ad0a49858f4,001,30,Male,Malaysia,Master,2024-03-05_22h20.49.494,CRL1h,2023.2.3,MacIntel,64.1025641,65e67470ae2fbf2172c317b2,65e79a8f010247fd67c1a9e4,,,,,,,,,,,798.3949,0.8,799.1833,799.1834,799.9381,right,1,0.7537,,799.9381,800.9281,2,10,42,4,1,partial,1,images/Ex13.jpg,right,training,hard,1,,,,,
,,,,,6570824312e21ad0a49858f4,001,30,Male,Malaysia,Master,2024-03-05_22h20.49.494,CRL1h,2023.2.3,MacIntel,64.1025641,65e67470ae2fbf2172c317b2,65e79a8f010247fd67c1a9e4,,,,,,,,,,,800.9286,0.7,801.6279,801.6279,803.333,left,1,1.7039,,803.333,804.328,2,11,43,3,1,partial,1,images/Ex12.jpg,left,training,hard,1,,,,,
,,,,,6570824312e21ad0a49858f4,001,30,Male,Malaysia,Master,2024-03-05_22h20.49.494,CRL1h,2023.2.3,MacIntel,64.1025641,65e67470ae2fbf2172c317b2,65e79a8f010247fd67c1a9e4,,,,,,,,,,,804.3418,0.8,805.1446,805.1446,806.2609,left,0,1.1093,,806.2609,807.2611,2,12,44,14,1,partial,1,images/Ex15.jpg,right,training,hard,1,,,,,
,,,,,6570824312e21ad0a49858f4,001,30,Male,Malaysia,Master,2024-03-05_22h20.49.494,CRL1h,2023.2.3,MacIntel,64.1025641,65e67470ae2fbf2172c317b2,65e79a8f010247fd67c1a9e4,,,,,,,,,,,807.2615,0.7,807.9608,807.9608,808.9779,right,0,1.0126,,808.978,809.9672,2,13,45,11,1,partial,1,images/Ex12.jpg,left,training,hard,1,,,,,
,,,,,6570824312e21ad0a49858f4,001,30,Male,Malaysia,Master,2024-03-05_22h20.49.494,CRL1h,2023.2.3,MacIntel,64.1025641,65e67470ae2fbf2172c317b2,65e79a8f010247fd67c1a9e4,,,,,,,,,,,809.9677,1.5,811.4611,811.4612,812.9499,left,0,1.4876,,812.9499,813.9441,2,14,46,6,1,partial,1,images/Ex15.jpg,right,training,hard,1,,,,,
,,,,,6570824312e21ad0a49858f4,001,30,Male,Malaysia,Master,2024-03-05_22h20.49.494,CRL1h,2023.2.3,MacIntel,64.1025641,65e67470ae2fbf2172c317b2,65e79a8f010247fd67c1a9e4,,,,,,,,,,,813.9578,0.5,814.4612,814.4613,815.3111,right,1,0.8455,,815.3111,816.3108,2,15,47,7,1,partial,1,images/Ex16.jpg,right,training,hard,1,,,,,
,,,,,6570824312e21ad0a49858f4,001,30,Male,Malaysia,Master,2024-03-05_22h20.49.494,CRL1h,2023.2.3,MacIntel,64.1025641,65e67470ae2fbf2172c317b2,65e79a8f010247fd67c1a9e4,,,,,,,,,,,816.3114,1.5,817.8037,817.8037,818.7543,right,0,0.9494,,818.7543,819.7443,3,0,48,11,1,partial,1,images/Ex12.jpg,left,training,hard,1,,,,,
,,,,,6570824312e21ad0a49858f4,001,30,Male,Malaysia,Master,2024-03-05_22h20.49.494,CRL1h,2023.2.3,MacIntel,64.1025641,65e67470ae2fbf2172c317b2,65e79a8f010247fd67c1a9e4,,,,,,,,,,,819.7448,1.4,821.134,821.1341,822.2778,left,0,1.1332,,822.2779,823.2776,3,1,49,13,1,partial,1,images/Ex14.jpg,right,training,hard,1,,,,,
,,,,,6570824312e21ad0a49858f4,001,30,Male,Malaysia,Master,2024-03-05_22h20.49.494,CRL1h,2023.2.3,MacIntel,64.1025641,65e67470ae2fbf2172c317b2,65e79a8f010247fd67c1a9e4,,,,,,,,,,,823.2781,0.7,823.9669,823.9669,824.8176,left,1,0.8495,,824.8176,825.8172,3,2,50,9,1,partial,1,images/Ex10.jpg,left,training,hard,1,,,,,
,,,,,6570824312e21ad0a49858f4,001,30,Male,Malaysia,Master,2024-03-05_22h20.49.494,CRL1h,2023.2.3,MacIntel,64.1025641,65e67470ae2fbf2172c317b2,65e79a8f010247fd67c1a9e4,,,,,,,,,,,825.8178,1.5,827.3109,827.3109,827.9842,right,1,0.6723,,827.9843,828.9874,3,3,51,7,1,partial,1,images/Ex16.jpg,right,training,hard,1,,,,,
,,,,,6570824312e21ad0a49858f4,001,30,Male,Malaysia,Master,2024-03-05_22h20.49.494,CRL1h,2023.2.3,MacIntel,64.1025641,65e67470ae2fbf2172c317b2,65e79a8f010247fd67c1a9e4,,,,,,,,,,,828.988,1.3,830.2841,830.2841,831.051,right,1,0.7659,,831.0512,832.0276,3,4,52,15,1,partial,1,images/Ex16.jpg,right,training,hard,1,,,,,
,,,,,6570824312e21ad0a49858f4,001,30,Male,Malaysia,Master,2024-03-05_22h20.49.494,CRL1h,2023.2.3,MacIntel,64.1025641,65e67470ae2fbf2172c317b2,65e79a8f010247fd67c1a9e4,,,,,,,,,,,832.0282,1.1,833.1271,833.1271,834.3997,left,1,1.2713,,834.3997,835.3941,3,5,53,3,1,partial,1,images/Ex12.jpg,left,training,hard,1,,,,,
,,,,,6570824312e21ad0a49858f4,001,30,Male,Malaysia,Master,2024-03-05_22h20.49.494,CRL1h,2023.2.3,MacIntel,64.1025641,65e67470ae2fbf2172c317b2,65e79a8f010247fd67c1a9e4,,,,,,,,,,,835.3946,1.5,836.8867,836.8867,837.7602,right,1,0.8723,,837.7602,838.76,3,6,54,14,1,partial,1,images/Ex15.jpg,right,training,hard,1,,,,,
,,,,,6570824312e21ad0a49858f4,001,30,Male,Malaysia,Master,2024-03-05_22h20.49.494,CRL1h,2023.2.3,MacIntel,64.1025641,65e67470ae2fbf2172c317b2,65e79a8f010247fd67c1a9e4,,,,,,,,,,,838.7604,0.8,839.5504,839.5504,840.8612,right,0,1.3019,,840.8612,841.8607,3,7,55,8,1,partial,1,images/Ex9.jpg,left,training,hard,1,,,,,
,,,,,6570824312e21ad0a49858f4,001,30,Male,Malaysia,Master,2024-03-05_22h20.49.494,CRL1h,2023.2.3,MacIntel,64.1025641,65e67470ae2fbf2172c317b2,65e79a8f010247fd67c1a9e4,,,,,,,,,,,841.8744,1.1,842.9774,842.9775,844.0609,left,1,1.0725,,844.061,845.0598,3,8,56,2,1,partial,1,images/Ex11.jpg,left,training,hard,1,,,,,
,,,,,6570824312e21ad0a49858f4,001,30,Male,Malaysia,Master,2024-03-05_22h20.49.494,CRL1h,2023.2.3,MacIntel,64.1025641,65e67470ae2fbf2172c317b2,65e79a8f010247fd67c1a9e4,,,,,,,,,,,845.0603,1.1,846.1607,846.1607,847.1941,right,1,1.022,,847.1942,848.1943,3,9,57,5,1,partial,1,images/Ex14.jpg,right,training,hard,1,,,,,
,,,,,6570824312e21ad0a49858f4,001,30,Male,Malaysia,Master,2024-03-05_22h20.49.494,CRL1h,2023.2.3,MacIntel,64.1025641,65e67470ae2fbf2172c317b2,65e79a8f010247fd67c1a9e4,,,,,,,,,,,848.1948,1.4,849.5839,849.5839,851.5441,left,1,1.954,,851.5442,852.544,3,10,58,10,1,partial,1,images/Ex11.jpg,left,training,hard,1,,,,,
,,,,,6570824312e21ad0a49858f4,001,30,Male,Malaysia,Master,2024-03-05_22h20.49.494,CRL1h,2023.2.3,MacIntel,64.1025641,65e67470ae2fbf2172c317b2,65e79a8f010247fd67c1a9e4,,,,,,,,,,,852.5578,0.7,853.2669,853.2669,854.594,right,1,1.3171,,854.594,855.5998,3,11,59,12,1,partial,1,images/Ex13.jpg,right,training,hard,1,,,,,
,,,,,6570824312e21ad0a49858f4,001,30,Male,Malaysia,Master,2024-03-05_22h20.49.494,CRL1h,2023.2.3,MacIntel,64.1025641,65e67470ae2fbf2172c317b2,65e79a8f010247fd67c1a9e4,,,,,,,,,,,855.6002,0.7,856.2938,856.2938,857.1273,left,1,0.8282,,857.1273,858.1161,3,12,60,1,1,partial,1,images/Ex10.jpg,left,training,hard,1,,,,,
,,,,,6570824312e21ad0a49858f4,001,30,Male,Malaysia,Master,2024-03-05_22h20.49.494,CRL1h,2023.2.3,MacIntel,64.1025641,65e67470ae2fbf2172c317b2,65e79a8f010247fd67c1a9e4,,,,,,,,,,,858.1167,0.9,859.0106,859.0106,859.8606,right,1,0.8381,,859.8606,860.8605,3,13,61,6,1,partial,1,images/Ex15.jpg,right,training,hard,1,,,,,
,,,,,6570824312e21ad0a49858f4,001,30,Male,Malaysia,Master,2024-03-05_22h20.49.494,CRL1h,2023.2.3,MacIntel,64.1025641,65e67470ae2fbf2172c317b2,65e79a8f010247fd67c1a9e4,,,,,,,,,,,860.861,0.9,861.7604,861.7604,862.9772,right,1,1.2058,,862.9773,863.9772,3,14,62,4,1,partial,1,images/Ex13.jpg,right,training,hard,1,,,,,
,,,,,6570824312e21ad0a49858f4,001,30,Male,Malaysia,Master,2024-03-05_22h20.49.494,CRL1h,2023.2.3,MacIntel,64.1025641,65e67470ae2fbf2172c317b2,65e79a8f010247fd67c1a9e4,,,,,,,,,,,863.9909,0.6,864.594,864.594,865.4504,left,1,0.8554,,865.4504,866.4438,3,15,63,0,1,partial,1,images/Ex9.jpg,left,training,hard,1,,,,,
,,,,,6570824312e21ad0a49858f4,001,30,Male,Malaysia,Master,2024-03-05_22h20.49.494,CRL1h,2023.2.3,MacIntel,64.1025641,65e67470ae2fbf2172c317b2,65e79a8f010247fd67c1a9e4,,,,,,,,,,,866.4444,1.2,867.6437,867.6437,868.5446,right,1,0.8894,,868.5447,869.5425,4,0,64,12,1,partial,1,images/Ex13.jpg,right,training,hard,1,,,,,
,,,,,6570824312e21ad0a49858f4,001,30,Male,Malaysia,Master,2024-03-05_22h20.49.494,CRL1h,2023.2.3,MacIntel,64.1025641,65e67470ae2fbf2172c317b2,65e79a8f010247fd67c1a9e4,,,,,,,,,,,869.5428,1.2,870.7432,870.7432,871.5275,right,1,0.7791,,871.5275,872.527,4,1,65,13,1,partial,1,images/Ex14.jpg,right,training,hard,1,,,,,
,,,,,6570824312e21ad0a49858f4,001,30,Male,Malaysia,Master,2024-03-05_22h20.49.494,CRL1h,2023.2.3,MacIntel,64.1025641,65e67470ae2fbf2172c317b2,65e79a8f010247fd67c1a9e4,,,,,,,,,,,872.5274,0.7,873.227,873.2271,873.9269,right,1,0.6987,,873.9269,874.927,4,2,66,7,1,partial,1,images/Ex16.jpg,right,training,hard,1,,,,,
,,,,,6570824312e21ad0a49858f4,001,30,Male,Malaysia,Master,2024-03-05_22h20.49.494,CRL1h,2023.2.3,MacIntel,64.1025641,65e67470ae2fbf2172c317b2,65e79a8f010247fd67c1a9e4,,,,,,,,,,,874.9274,1.3,876.227,876.2271,876.9606,left,1,0.7308,,876.9607,877.9603,4,3,67,9,1,partial,1,images/Ex10.jpg,left,training,hard,1,,,,,
,,,,,6570824312e21ad0a49858f4,001,30,Male,Malaysia,Master,2024-03-05_22h20.49.494,CRL1h,2023.2.3,MacIntel,64.1025641,65e67470ae2fbf2172c317b2,65e79a8f010247fd67c1a9e4,,,,,,,,,,,877.9609,0.8,878.7602,878.7602,879.4437,left,1,0.673,,879.4438,880.4437,4,4,68,1,1,partial,1,images/Ex10.jpg,left,training,hard,1,,,,,
,,,,,6570824312e21ad0a49858f4,001,30,Male,Malaysia,Master,2024-03-05_22h20.49.494,CRL1h,2023.2.3,MacIntel,64.1025641,65e67470ae2fbf2172c317b2,65e79a8f010247fd67c1a9e4,,,,,,,,,,,880.444,0.6,881.0435,881.0435,884.2771,left,1,3.2223,,884.2771,885.2769,4,5,69,0,1,partial,1,images/Ex9.jpg,left,training,hard,1,,,,,
,,,,,6570824312e21ad0a49858f4,001,30,Male,Malaysia,Master,2024-03-05_22h20.49.494,CRL1h,2023.2.3,MacIntel,64.1025641,65e67470ae2fbf2172c317b2,65e79a8f010247fd67c1a9e4,,,,,,,,,,,885.2901,1.4,886.6935,886.6935,887.3608,right,1,0.663,,887.3608,888.3601,4,6,70,15,1,partial,1,images/Ex16.jpg,right,training,hard,1,,,,,
,,,,,6570824312e21ad0a49858f4,001,30,Male,Malaysia,Master,2024-03-05_22h20.49.494,CRL1h,2023.2.3,MacIntel,64.1025641,65e67470ae2fbf2172c317b2,65e79a8f010247fd67c1a9e4,,,,,,,,,,,888.3606,0.9,889.26,889.2601,889.9933,right,1,0.7235,,889.9933,890.9932,4,7,71,14,1,partial,1,images/Ex15.jpg,right,training,hard,1,,,,,
,,,,,6570824312e21ad0a49858f4,001,30,Male,Malaysia,Master,2024-03-05_22h20.49.494,CRL1h,2023.2.3,MacIntel,64.1025641,65e67470ae2fbf2172c317b2,65e79a8f010247fd67c1a9e4,,,,,,,,,,,890.9936,1.2,892.193,892.1931,893.1771,left,1,0.9801,,893.1772,894.1768,4,8,72,8,1,partial,1,images/Ex9.jpg,left,training,hard,1,,,,,
,,,,,6570824312e21ad0a49858f4,001,30,Male,Malaysia,Master,2024-03-05_22h20.49.494,CRL1h,2023.2.3,MacIntel,64.1025641,65e67470ae2fbf2172c317b2,65e79a8f010247fd67c1a9e4,,,,,,,,,,,894.1773,1.4,895.5767,895.5767,896.5938,left,1,1.011,,896.5938,897.5933,4,9,73,10,1,partial,1,images/Ex11.jpg,left,training,hard,1,,,,,
,,,,,6570824312e21ad0a49858f4,001,30,Male,Malaysia,Master,2024-03-05_22h20.49.494,CRL1h,2023.2.3,MacIntel,64.1025641,65e67470ae2fbf2172c317b2,65e79a8f010247fd67c1a9e4,,,,,,,,,,,897.5938,0.7,898.2934,898.2934,899.4275,left,1,1.1229,,899.4275,900.4266,4,10,74,3,1,partial,1,images/Ex12.jpg,left,training,hard,1,,,,,
,,,,,6570824312e21ad0a49858f4,001,30,Male,Malaysia,Master,2024-03-05_22h20.49.494,CRL1h,2023.2.3,MacIntel,64.1025641,65e67470ae2fbf2172c317b2,65e79a8f010247fd67c1a9e4,,,,,,,,,,,900.4272,1.5,901.9262,901.9262,902.7606,right,1,0.8281,,902.7606,903.76,4,11,75,6,1,partial,1,images/Ex15.jpg,right,training,hard,1,,,,,
,,,,,6570824312e21ad0a49858f4,001,30,Male,Malaysia,Master,2024-03-05_22h20.49.494,CRL1h,2023.2.3,MacIntel,64.1025641,65e67470ae2fbf2172c317b2,65e79a8f010247fd67c1a9e4,,,,,,,,,,,903.7606,0.9,904.66,904.66,905.4774,left,1,0.8149,,905.4774,906.4756,4,12,76,2,1,partial,1,images/Ex11.jpg,left,training,hard,1,,,,,
,,,,,6570824312e21ad0a49858f4,001,30,Male,Malaysia,Master,2024-03-05_22h20.49.494,CRL1h,2023.2.3,MacIntel,64.1025641,65e67470ae2fbf2172c317b2,65e79a8f010247fd67c1a9e4,,,,,,,,,,,906.476,0.9,907.3767,907.3767,908.06,right,1,0.6719,,908.06,909.0598,4,13,77,5,1,partial,1,images/Ex14.jpg,right,training,hard,1,,,,,
,,,,,6570824312e21ad0a49858f4,001,30,Male,Malaysia,Master,2024-03-05_22h20.49.494,CRL1h,2023.2.3,MacIntel,64.1025641,65e67470ae2fbf2172c317b2,65e79a8f010247fd67c1a9e4,,,,,,,,,,,909.0602,1.4,910.4598,910.4599,912.9425,right,1,2.4816,,912.9425,913.9432,4,14,78,4,1,partial,1,images/Ex13.jpg,right,training,hard,1,,,,,
,,,,,6570824312e21ad0a49858f4,001,30,Male,Malaysia,Master,2024-03-05_22h20.49.494,CRL1h,2023.2.3,MacIntel,64.1025641,65e67470ae2fbf2172c317b2,65e79a8f010247fd67c1a9e4,,,,,,,,,,,913.957,0.7,914.6585,914.6585,915.8104,left,1,1.1459,,915.8104,916.8097,4,15,79,11,1,partial,1,images/Ex12.jpg,left,training,hard,1,,,,,
,,,,,6570824312e21ad0a49858f4,001,30,Male,Malaysia,Master,2024-03-05_22h20.49.494,CRL1h,2023.2.3,MacIntel,64.1025641,65e67470ae2fbf2172c317b2,65e79a8f010247fd67c1a9e4,,,,,,,,,,,916.8102,1.1,917.9099,917.9099,918.544,right,1,0.6235,,918.5441,919.5431,5,0,80,15,1,partial,1,images/Ex16.jpg,right,training,hard,1,,,,,
,,,,,6570824312e21ad0a49858f4,001,30,Male,Malaysia,Master,2024-03-05_22h20.49.494,CRL1h,2023.2.3,MacIntel,64.1025641,65e67470ae2fbf2172c317b2,65e79a8f010247fd67c1a9e4,,,,,,,,,,,919.5435,0.6,920.1431,920.1431,920.8922,right,1,0.7467,,920.8922,921.893,5,1,81,5,1,partial,1,images/Ex14.jpg,right,training,hard,1,,,,,
,,,,,6570824312e21ad0a49858f4,001,30,Male,Malaysia,Master,2024-03-05_22h20.49.494,CRL1h,2023.2.3,MacIntel,64.1025641,65e67470ae2fbf2172c317b2,65e79a8f010247fd67c1a9e4,,,,,,,,,,,921.8936,1.1,922.9921,922.9921,925.2431,left,1,2.2407,,925.2432,926.2422,5,2,82,3,1,partial,1,images/Ex12.jpg,left,training,hard,1,,,,,
,,,,,6570824312e21ad0a49858f4,001,30,Male,Malaysia,Master,2024-03-05_22h20.49.494,CRL1h,2023.2.3,MacIntel,64.1025641,65e67470ae2fbf2172c317b2,65e79a8f010247fd67c1a9e4,,,,,,,,,,,926.2558,1.2,927.4596,927.4597,928.3266,left,1,0.8606,,928.3266,929.3263,5,3,83,1,1,partial,1,images/Ex10.jpg,left,training,hard,1,,,,,
,,,,,6570824312e21ad0a49858f4,001,30,Male,Malaysia,Master,2024-03-05_22h20.49.494,CRL1h,2023.2.3,MacIntel,64.1025641,65e67470ae2fbf2172c317b2,65e79a8f010247fd67c1a9e4,,,,,,,,,,,929.3267,1,930.3263,930.3263,932.9261,right,1,2.5975,,932.9262,933.9254,5,4,84,12,1,partial,1,images/Ex13.jpg,right,training,hard,1,,,,,
,,,,,6570824312e21ad0a49858f4,001,30,Male,Malaysia,Master,2024-03-05_22h20.49.494,CRL1h,2023.2.3,MacIntel,64.1025641,65e67470ae2fbf2172c317b2,65e79a8f010247fd67c1a9e4,,,,,,,,,,,933.9258,1.5,935.4261,935.4262,936.2258,right,1,0.7967,,936.2258,937.2263,5,5,85,6,1,partial,1,images/Ex15.jpg,right,training,hard,1,,,,,
,,,,,6570824312e21ad0a49858f4,001,30,Male,Malaysia,Master,2024-03-05_22h20.49.494,CRL1h,2023.2.3,MacIntel,64.1025641,65e67470ae2fbf2172c317b2,65e79a8f010247fd67c1a9e4,,,,,,,,,,,937.2267,0.9,938.1262,938.1263,941.193,right,1,3.056,,941.1931,942.1928,5,6,86,4,1,partial,1,images/Ex13.jpg,right,training,hard,1,,,,,
,,,,,6570824312e21ad0a49858f4,001,30,Male,Malaysia,Master,2024-03-05_22h20.49.494,CRL1h,2023.2.3,MacIntel,64.1025641,65e67470ae2fbf2172c317b2,65e79a8f010247fd67c1a9e4,,,,,,,,,,,942.2063,0.9,943.1094,943.1094,943.7096,right,1,0.5903,,943.7096,944.7094,5,7,87,13,1,partial,1,images/Ex14.jpg,right,training,hard,1,,,,,
,,,,,6570824312e21ad0a49858f4,001,30,Male,Malaysia,Master,2024-03-05_22h20.49.494,CRL1h,2023.2.3,MacIntel,64.1025641,65e67470ae2fbf2172c317b2,65e79a8f010247fd67c1a9e4,,,,,,,,,,,944.7098,1.2,945.9093,945.9094,946.6758,left,1,0.7566,,946.6758,947.676,5,8,88,11,1,partial,1,images/Ex12.jpg,left,training,hard,1,,,,,
,,,,,6570824312e21ad0a49858f4,001,30,Male,Malaysia,Master,2024-03-05_22h20.49.494,CRL1h,2023.2.3,MacIntel,64.1025641,65e67470ae2fbf2172c317b2,65e79a8f010247fd67c1a9e4,,,,,,,,,,,947.6764,0.8,948.476,948.4761,949.5935,left,1,1.1109,,949.5936,950.5927,5,9,89,10,1,partial,1,images/Ex11.jpg,left,training,hard,1,,,,,
,,,,,6570824312e21ad0a49858f4,001,30,Male,Malaysia,Master,2024-03-05_22h20.49.494,CRL1h,2023.2.3,MacIntel,64.1025641,65e67470ae2fbf2172c317b2,65e79a8f010247fd67c1a9e4,,,,,,,,,,,950.5931,1,951.5926,951.5926,952.6268,left,1,1.0227,,952.6268,953.626,5,10,90,0,1,partial,1,images/Ex9.jpg,left,training,hard,1,,,,,
,,,,,6570824312e21ad0a49858f4,001,30,Male,Malaysia,Master,2024-03-05_22h20.49.494,CRL1h,2023.2.3,MacIntel,64.1025641,65e67470ae2fbf2172c317b2,65e79a8f010247fd67c1a9e4,,,,,,,,,,,953.6265,0.7,954.3259,954.3259,955.0094,left,1,0.6723,,955.0095,956.0093,5,11,91,8,1,partial,1,images/Ex9.jpg,left,training,hard,1,,,,,
,,,,,6570824312e21ad0a49858f4,001,30,Male,Malaysia,Master,2024-03-05_22h20.49.494,CRL1h,2023.2.3,MacIntel,64.1025641,65e67470ae2fbf2172c317b2,65e79a8f010247fd67c1a9e4,,,,,,,,,,,956.0098,1.4,957.4092,957.4092,958.51,right,1,1.0944,,958.51,959.5092,5,12,92,14,1,partial,1,images/Ex15.jpg,right,training,hard,1,,,,,
,,,,,6570824312e21ad0a49858f4,001,30,Male,Malaysia,Master,2024-03-05_22h20.49.494,CRL1h,2023.2.3,MacIntel,64.1025641,65e67470ae2fbf2172c317b2,65e79a8f010247fd67c1a9e4,,,,,,,,,,,959.5096,1,960.5092,960.5092,961.3269,left,1,0.8066,,961.3269,962.325,5,13,93,9,1,partial,1,images/Ex10.jpg,left,training,hard,1,,,,,
,,,,,6570824312e21ad0a49858f4,001,30,Male,Malaysia,Master,2024-03-05_22h20.49.494,CRL1h,2023.2.3,MacIntel,64.1025641,65e67470ae2fbf2172c317b2,65e79a8f010247fd67c1a9e4,,,,,,,,,,,962.3254,1.3,963.6258,963.6258,964.4765,left,1,0.8384,,964.4766,965.4758,5,14,94,2,1,partial,1,images/Ex11.jpg,left,training,hard,1,,,,,
,,,,,6570824312e21ad0a49858f4,001,30,Male,Malaysia,Master,2024-03-05_22h20.49.494,CRL1h,2023.2.3,MacIntel,64.1025641,65e67470ae2fbf2172c317b2,65e79a8f010247fd67c1a9e4,,,,,,,,,,,965.4763,1.2,966.6758,966.6758,967.36,right,1,0.6727,,967.3601,968.3583,5,15,95,7,1,partial,1,images/Ex16.jpg,right,training,hard,1,,,,,
,,,,,6570824312e21ad0a49858f4,001,30,Male,Malaysia,Master,2024-03-05_22h20.49.494,CRL1h,2023.2.3,MacIntel,64.1025641,65e67470ae2fbf2172c317b2,65e79a8f010247fd67c1a9e4,,,,,,,,,,,968.3588,0.9,969.2591,969.2591,969.9925,right,1,0.7228,,969.9925,970.9918,6,0,96,15,1,partial,1,images/Ex16.jpg,right,training,hard,1,,,,,
,,,,,6570824312e21ad0a49858f4,001,30,Male,Malaysia,Master,2024-03-05_22h20.49.494,CRL1h,2023.2.3,MacIntel,64.1025641,65e67470ae2fbf2172c317b2,65e79a8f010247fd67c1a9e4,,,,,,,,,,,970.9922,0.7,971.6923,971.6923,972.8766,left,1,1.1732,,972.8766,973.8757,6,1,97,2,1,partial,1,images/Ex11.jpg,left,training,hard,1,,,,,
,,,,,6570824312e21ad0a49858f4,001,30,Male,Malaysia,Master,2024-03-05_22h20.49.494,CRL1h,2023.2.3,MacIntel,64.1025641,65e67470ae2fbf2172c317b2,65e79a8f010247fd67c1a9e4,,,,,,,,,,,973.8761,1.4,975.2757,975.2757,975.9431,left,1,0.6559,,975.9432,976.9424,6,2,98,10,1,partial,1,images/Ex11.jpg,left,training,hard,1,,,,,
,,,,,6570824312e21ad0a49858f4,001,30,Male,Malaysia,Master,2024-03-05_22h20.49.494,CRL1h,2023.2.3,MacIntel,64.1025641,65e67470ae2fbf2172c317b2,65e79a8f010247fd67c1a9e4,,,,,,,,,,,976.9429,1.2,978.1424,978.1424,978.8931,right,1,0.7395,,978.8931,979.8922,6,3,99,14,1,partial,1,images/Ex15.jpg,right,training,hard,1,,,,,
,,,,,6570824312e21ad0a49858f4,001,30,Male,Malaysia,Master,2024-03-05_22h20.49.494,CRL1h,2023.2.3,MacIntel,64.1025641,65e67470ae2fbf2172c317b2,65e79a8f010247fd67c1a9e4,,,,,,,,,,,979.8927,1.3,981.1914,981.1914,981.96,left,1,0.7664,,981.96,982.9588,6,4,100,1,1,partial,1,images/Ex10.jpg,left,training,hard,1,,,,,
,,,,,6570824312e21ad0a49858f4,001,30,Male,Malaysia,Master,2024-03-05_22h20.49.494,CRL1h,2023.2.3,MacIntel,64.1025641,65e67470ae2fbf2172c317b2,65e79a8f010247fd67c1a9e4,,,,,,,,,,,982.9593,1.3,984.2589,984.259,984.9926,right,1,0.722,,984.9926,985.9918,6,5,101,6,1,partial,1,images/Ex15.jpg,right,training,hard,1,,,,,
,,,,,6570824312e21ad0a49858f4,001,30,Male,Malaysia,Master,2024-03-05_22h20.49.494,CRL1h,2023.2.3,MacIntel,64.1025641,65e67470ae2fbf2172c317b2,65e79a8f010247fd67c1a9e4,,,,,,,,,,,985.9922,1,986.9918,986.9918,987.8263,left,1,0.8236,,987.8263,988.8254,6,6,102,3,1,partial,1,images/Ex12.jpg,left,training,hard,1,,,,,
,,,,,6570824312e21ad0a49858f4,001,30,Male,Malaysia,Master,2024-03-05_22h20.49.494,CRL1h,2023.2.3,MacIntel,64.1025641,65e67470ae2fbf2172c317b2,65e79a8f010247fd67c1a9e4,,,,,,,,,,,988.8258,0.7,989.5255,989.5256,991.4431,left,1,1.9069,,991.4431,992.4421,6,7,103,0,1,partial,1,images/Ex9.jpg,left,training,hard,1,,,,,
,,,,,6570824312e21ad0a49858f4,001,30,Male,Malaysia,Master,2024-03-05_22h20.49.494,CRL1h,2023.2.3,MacIntel,64.1025641,65e67470ae2fbf2172c317b2,65e79a8f010247fd67c1a9e4,,,,,,,,,,,992.4557,1.4,993.8586,993.8587,994.6924,right,1,0.8277,,994.6925,995.692,6,8,104,5,1,partial,1,images/Ex14.jpg,right,training,hard,1,,,,,
,,,,,6570824312e21ad0a49858f4,001,30,Male,Malaysia,Master,2024-03-05_22h20.49.494,CRL1h,2023.2.3,MacIntel,64.1025641,65e67470ae2fbf2172c317b2,65e79a8f010247fd67c1a9e4,,,,,,,,,,,995.6926,0.8,996.492,996.492,998.0926,left,1,1.5979,,998.0926,999.092,6,9,105,8,1,partial,1,images/Ex9.jpg,left,training,hard,1,,,,,
,,,,,6570824312e21ad0a49858f4,001,30,Male,Malaysia,Master,2024-03-05_22h20.49.494,CRL1h,2023.2.3,MacIntel,64.1025641,65e67470ae2fbf2172c317b2,65e79a8f010247fd67c1a9e4,,,,,,,,,,,999.0925,0.8,999.8919,999.892,1000.5581,right,1,0.6633,,1000.5582,1001.5586,6,10,106,12,1,partial,1,images/Ex13.jpg,right,training,hard,1,,,,,
,,,,,6570824312e21ad0a49858f4,001,30,Male,Malaysia,Master,2024-03-05_22h20.49.494,CRL1h,2023.2.3,MacIntel,64.1025641,65e67470ae2fbf2172c317b2,65e79a8f010247fd67c1a9e4,,,,,,,,,,,1001.559,0.6,1002.158,1002.158,1003.1919,right,1,1.025,,1003.1919,1004.192,6,11,107,13,1,partial,1,images/Ex14.jpg,right,training,hard,1,,,,,
,,,,,6570824312e21ad0a49858f4,001,30,Male,Malaysia,Master,2024-03-05_22h20.49.494,CRL1h,2023.2.3,MacIntel,64.1025641,65e67470ae2fbf2172c317b2,65e79a8f010247fd67c1a9e4,,,,,,,,,,,1004.1924,1.3,1005.4918,1005.4918,1006.4757,right,1,0.9772,,1006.4758,1007.4752,6,12,108,4,1,partial,1,images/Ex13.jpg,right,training,hard,1,,,,,
,,,,,6570824312e21ad0a49858f4,001,30,Male,Malaysia,Master,2024-03-05_22h20.49.494,CRL1h,2023.2.3,MacIntel,64.1025641,65e67470ae2fbf2172c317b2,65e79a8f010247fd67c1a9e4,,,,,,,,,,,1007.4757,1.2,1008.6752,1008.6752,1009.325,right,1,0.6448,,1009.325,1010.3251,6,13,109,7,1,partial,1,images/Ex16.jpg,right,training,hard,1,,,,,
,,,,,6570824312e21ad0a49858f4,001,30,Male,Malaysia,Master,2024-03-05_22h20.49.494,CRL1h,2023.2.3,MacIntel,64.1025641,65e67470ae2fbf2172c317b2,65e79a8f010247fd67c1a9e4,,,,,,,,,,,1010.3255,0.8,1011.1246,1011.1246,1012.1924,left,1,1.0635,,1012.1924,1013.1915,6,14,110,9,1,partial,1,images/Ex10.jpg,left,training,hard,1,,,,,
,,,,,6570824312e21ad0a49858f4,001,30,Male,Malaysia,Master,2024-03-05_22h20.49.494,CRL1h,2023.2.3,MacIntel,64.1025641,65e67470ae2fbf2172c317b2,65e79a8f010247fd67c1a9e4,,,,,,,,,,,1013.192,1,1014.1918,1014.1918,1014.9754,left,1,0.7718,,1014.9754,1015.9751,6,15,111,11,1,partial,1,images/Ex12.jpg,left,training,hard,1,,,,,
,,,,,6570824312e21ad0a49858f4,001,30,Male,Malaysia,Master,2024-03-05_22h20.49.494,CRL1h,2023.2.3,MacIntel,64.1025641,65e67470ae2fbf2172c317b2,65e79a8f010247fd67c1a9e4,,,,,,,,,,,1015.9755,1.1,1017.075,1017.075,1018.0745,left,1,0.9967,,1018.0745,1019.0751,7,0,112,10,1,partial,1,images/Ex11.jpg,left,training,hard,1,,,,,
,,,,,6570824312e21ad0a49858f4,001,30,Male,Malaysia,Master,2024-03-05_22h20.49.494,CRL1h,2023.2.3,MacIntel,64.1025641,65e67470ae2fbf2172c317b2,65e79a8f010247fd67c1a9e4,,,,,,,,,,,1019.0755,0.6,1019.6751,1019.6751,1020.5743,left,1,0.8906,,1020.5743,1021.5751,7,1,113,11,1,partial,1,images/Ex12.jpg,left,training,hard,1,,,,,
,,,,,6570824312e21ad0a49858f4,001,30,Male,Malaysia,Master,2024-03-05_22h20.49.494,CRL1h,2023.2.3,MacIntel,64.1025641,65e67470ae2fbf2172c317b2,65e79a8f010247fd67c1a9e4,,,,,,,,,,,1021.5755,1.4,1022.975,1022.975,1025.3415,left,1,2.3653,,1025.3415,1026.3408,7,2,114,0,1,partial,1,images/Ex9.jpg,left,training,hard,1,,,,,
,,,,,6570824312e21ad0a49858f4,001,30,Male,Malaysia,Master,2024-03-05_22h20.49.494,CRL1h,2023.2.3,MacIntel,64.1025641,65e67470ae2fbf2172c317b2,65e79a8f010247fd67c1a9e4,,,,,,,,,,,1026.3544,0.5,1026.8583,1026.8584,1027.6583,right,1,0.7912,,1027.6584,1028.6583,7,3,115,7,1,partial,1,images/Ex16.jpg,right,training,hard,1,,,,,
,,,,,6570824312e21ad0a49858f4,001,30,Male,Malaysia,Master,2024-03-05_22h20.49.494,CRL1h,2023.2.3,MacIntel,64.1025641,65e67470ae2fbf2172c317b2,65e79a8f010247fd67c1a9e4,,,,,,,,,,,1028.6588,0.9,1029.5583,1029.5583,1030.309,right,1,0.7397,,1030.3091,1031.3083,7,4,116,13,1,partial,1,images/Ex14.jpg,right,training,hard,1,,,,,
,,,,,6570824312e21ad0a49858f4,001,30,Male,Malaysia,Master,2024-03-05_22h20.49.494,CRL1h,2023.2.3,MacIntel,64.1025641,65e67470ae2fbf2172c317b2,65e79a8f010247fd67c1a9e4,,,,,,,,,,,1031.3088,1.3,1032.6073,1032.6074,1033.3257,right,1,0.7071,,1033.3257,1034.325,7,5,117,15,1,partial,1,images/Ex16.jpg,right,training,hard,1,,,,,
,,,,,6570824312e21ad0a49858f4,001,30,Male,Malaysia,Master,2024-03-05_22h20.49.494,CRL1h,2023.2.3,MacIntel,64.1025641,65e67470ae2fbf2172c317b2,65e79a8f010247fd67c1a9e4,,,,,,,,,,,1034.3253,1.4,1035.7244,1035.7245,1036.3923,left,1,0.6568,,1036.3924,1037.3914,7,6,118,9,1,partial,1,images/Ex10.jpg,left,training,hard,1,,,,,
,,,,,6570824312e21ad0a49858f4,001,30,Male,Malaysia,Master,2024-03-05_22h20.49.494,CRL1h,2023.2.3,MacIntel,64.1025641,65e67470ae2fbf2172c317b2,65e79a8f010247fd67c1a9e4,,,,,,,,,,,1037.3918,0.7,1038.0914,1038.0915,1038.925,right,1,0.8229,,1038.925,1039.9248,7,7,119,12,1,partial,1,images/Ex13.jpg,right,training,hard,1,,,,,
,,,,,6570824312e21ad0a49858f4,001,30,Male,Malaysia,Master,2024-03-05_22h20.49.494,CRL1h,2023.2.3,MacIntel,64.1025641,65e67470ae2fbf2172c317b2,65e79a8f010247fd67c1a9e4,,,,,,,,,,,1039.9252,1.3,1041.2248,1041.2248,1041.8916,right,1,0.6641,,1041.8916,1042.8914,7,8,120,6,1,partial,1,images/Ex15.jpg,right,training,hard,1,,,,,
,,,,,6570824312e21ad0a49858f4,001,30,Male,Malaysia,Master,2024-03-05_22h20.49.494,CRL1h,2023.2.3,MacIntel,64.1025641,65e67470ae2fbf2172c317b2,65e79a8f010247fd67c1a9e4,,,,,,,,,,,1042.8918,0.5,1043.3913,1043.3914,1044.0581,right,1,0.663,,1044.0581,1045.0581,7,9,121,5,1,partial,1,images/Ex14.jpg,right,training,hard,1,,,,,
,,,,,6570824312e21ad0a49858f4,001,30,Male,Malaysia,Master,2024-03-05_22h20.49.494,CRL1h,2023.2.3,MacIntel,64.1025641,65e67470ae2fbf2172c317b2,65e79a8f010247fd67c1a9e4,,,,,,,,,,,1045.0585,0.7,1045.758,1045.7581,1046.4083,right,0,0.6396,,1046.4083,1047.408,7,10,122,1,1,partial,1,images/Ex10.jpg,left,training,hard,1,,,,,
,,,,,6570824312e21ad0a49858f4,001,30,Male,Malaysia,Master,2024-03-05_22h20.49.494,CRL1h,2023.2.3,MacIntel,64.1025641,65e67470ae2fbf2172c317b2,65e79a8f010247fd67c1a9e4,,,,,,,,,,,1047.4084,1.3,1048.708,1048.7081,1049.4746,right,1,0.7638,,1049.4746,1050.4747,7,11,123,4,1,partial,1,images/Ex13.jpg,right,training,hard,1,,,,,
