infCons.started,infCons.stopped,resp_consent.keys,resp_consent.rt,resp_consent.duration,participant,session,Age?,Gender?,Nationality?,Highest Educational Degree?,date,expName,psychopyVersion,OS,frameRate,STUDY_ID,SESSION_ID,instructions.started,instructions.stopped,resp_instructions.keys,resp_instructions.rt,resp_instructions.duration,nextTask.started,nextTask.stopped,ready_task.keys,ready_task.rt,ready_task.duration,fixation.started,ITI,fixation.stopped,stim.started,stim.stopped,response.keys,response.corr,response.rt,response.duration,feedback.started,feedback.stopped,trials.thisRepN,trials.thisTrialN,trials.thisN,trials.thisIndex,trials.ran,task,phase,Exemplars,r_correct,condition,difficulty,set,end.started,end.stopped,resp_end.keys,resp_end.rt,resp_end.duration
0.0003,31.1026,space,31.0634,,65cb76b8dd56502a5687bfbd,001,33,Female,British,Bachelors Degree,2024-03-06_14h37.00.863,CRL1h,2023.2.3,MacIntel,59.84082341,65e67470ae2fbf2172c317b2,65e87d7142c856deba19f145,,,,,,,,,,,,,,,,,,,,,,,,,,,,,,,,,,,,,,
,,,,,65cb76b8dd56502a5687bfbd,001,33,Female,British,Bachelors Degree,2024-03-06_14h37.00.863,CRL1h,2023.2.3,MacIntel,59.84082341,65e67470ae2fbf2172c317b2,65e87d7142c856deba19f145,31.1032,255.8165,space,224.6932,,,,,,,,,,,,,,,,,,,,,,,,,,,,,,,,,,
,,,,,65cb76b8dd56502a5687bfbd,001,33,Female,British,Bachelors Degree,2024-03-06_14h37.00.863,CRL1h,2023.2.3,MacIntel,59.84082341,65e67470ae2fbf2172c317b2,65e87d7142c856deba19f145,,,,,,255.8225,259.4085,space,3.5726,,259.4176,1.3,260.7104,260.7105,269.3359,right,0,8.6066,,269.3366,270.3365,0,0,0,3,1,total,1,images/Ex12.jpg,left,training,hard,3,,,,,
,,,,,65cb76b8dd56502a5687bfbd,001,33,Female,British,Bachelors Degree,2024-03-06_14h37.00.863,CRL1h,2023.2.3,MacIntel,59.84082341,65e67470ae2fbf2172c317b2,65e87d7142c856deba19f145,,,,,,,,,,,270.3372,1.2,271.5402,271.5402,272.9972,left,0,1.4476,,272.9974,273.9962,0,1,1,13,1,total,1,images/Ex14.jpg,right,training,hard,3,,,,,
,,,,,65cb76b8dd56502a5687bfbd,001,33,Female,British,Bachelors Degree,2024-03-06_14h37.00.863,CRL1h,2023.2.3,MacIntel,59.84082341,65e67470ae2fbf2172c317b2,65e87d7142c856deba19f145,,,,,,,,,,,273.9968,1.5,275.5023,275.5024,276.7037,left,1,1.1977,,276.7037,277.6915,0,2,2,9,1,total,1,images/Ex10.jpg,left,training,hard,3,,,,,
,,,,,65cb76b8dd56502a5687bfbd,001,33,Female,British,Bachelors Degree,2024-03-06_14h37.00.863,CRL1h,2023.2.3,MacIntel,59.84082341,65e67470ae2fbf2172c317b2,65e87d7142c856deba19f145,,,,,,,,,,,277.692,0.8,278.4925,278.4926,279.5151,left,0,1.0202,,279.5153,280.5159,0,3,3,4,1,total,1,images/Ex13.jpg,right,training,hard,3,,,,,
,,,,,65cb76b8dd56502a5687bfbd,001,33,Female,British,Bachelors Degree,2024-03-06_14h37.00.863,CRL1h,2023.2.3,MacIntel,59.84082341,65e67470ae2fbf2172c317b2,65e87d7142c856deba19f145,,,,,,,,,,,280.5163,1.2,281.7188,281.7188,282.5063,left,0,0.7858,,282.5063,283.5085,0,4,4,5,1,total,1,images/Ex14.jpg,right,training,hard,3,,,,,
,,,,,65cb76b8dd56502a5687bfbd,001,33,Female,British,Bachelors Degree,2024-03-06_14h37.00.863,CRL1h,2023.2.3,MacIntel,59.84082341,65e67470ae2fbf2172c317b2,65e87d7142c856deba19f145,,,,,,,,,,,283.5091,0.8,284.3076,284.3076,285.5945,right,1,1.2793,,285.5946,286.5983,0,5,5,14,1,total,1,images/Ex15.jpg,right,training,hard,3,,,,,
,,,,,65cb76b8dd56502a5687bfbd,001,33,Female,British,Bachelors Degree,2024-03-06_14h37.00.863,CRL1h,2023.2.3,MacIntel,59.84082341,65e67470ae2fbf2172c317b2,65e87d7142c856deba19f145,,,,,,,,,,,286.599,1.3,287.8996,287.8997,288.7715,right,0,0.8622,,288.7716,289.7736,0,6,6,0,1,total,1,images/Ex9.jpg,left,training,hard,3,,,,,
,,,,,65cb76b8dd56502a5687bfbd,001,33,Female,British,Bachelors Degree,2024-03-06_14h37.00.863,CRL1h,2023.2.3,MacIntel,59.84082341,65e67470ae2fbf2172c317b2,65e87d7142c856deba19f145,,,,,,,,,,,289.7742,1.3,291.0761,291.0761,291.71,left,1,0.6255,,291.71,292.7155,0,7,7,11,1,total,1,images/Ex12.jpg,left,training,hard,3,,,,,
,,,,,65cb76b8dd56502a5687bfbd,001,33,Female,British,Bachelors Degree,2024-03-06_14h37.00.863,CRL1h,2023.2.3,MacIntel,59.84082341,65e67470ae2fbf2172c317b2,65e87d7142c856deba19f145,,,,,,,,,,,292.7159,1.2,293.9175,293.9175,294.9383,right,0,1.0138,,294.9383,295.9395,0,8,8,10,1,total,1,images/Ex11.jpg,left,training,hard,3,,,,,
,,,,,65cb76b8dd56502a5687bfbd,001,33,Female,British,Bachelors Degree,2024-03-06_14h37.00.863,CRL1h,2023.2.3,MacIntel,59.84082341,65e67470ae2fbf2172c317b2,65e87d7142c856deba19f145,,,,,,,,,,,295.9399,0.6,296.5428,296.5429,297.4282,right,1,0.8745,,297.4282,298.4292,0,9,9,15,1,total,1,images/Ex16.jpg,right,training,hard,3,,,,,
,,,,,65cb76b8dd56502a5687bfbd,001,33,Female,British,Bachelors Degree,2024-03-06_14h37.00.863,CRL1h,2023.2.3,MacIntel,59.84082341,65e67470ae2fbf2172c317b2,65e87d7142c856deba19f145,,,,,,,,,,,298.4295,1,299.4307,299.4308,300.3693,right,0,0.927,,300.3693,301.3728,0,10,10,2,1,total,1,images/Ex11.jpg,left,training,hard,3,,,,,
,,,,,65cb76b8dd56502a5687bfbd,001,33,Female,British,Bachelors Degree,2024-03-06_14h37.00.863,CRL1h,2023.2.3,MacIntel,59.84082341,65e67470ae2fbf2172c317b2,65e87d7142c856deba19f145,,,,,,,,,,,301.3735,1.1,302.4753,302.4754,303.045,right,1,0.5582,,303.0451,304.0449,0,11,11,12,1,total,1,images/Ex13.jpg,right,training,hard,3,,,,,
,,,,,65cb76b8dd56502a5687bfbd,001,33,Female,British,Bachelors Degree,2024-03-06_14h37.00.863,CRL1h,2023.2.3,MacIntel,59.84082341,65e67470ae2fbf2172c317b2,65e87d7142c856deba19f145,,,,,,,,,,,304.0457,1,305.0473,305.0473,306.4363,left,1,1.3783,,306.4363,307.436,0,12,12,8,1,total,1,images/Ex9.jpg,left,training,hard,3,,,,,
,,,,,65cb76b8dd56502a5687bfbd,001,33,Female,British,Bachelors Degree,2024-03-06_14h37.00.863,CRL1h,2023.2.3,MacIntel,59.84082341,65e67470ae2fbf2172c317b2,65e87d7142c856deba19f145,,,,,,,,,,,307.4364,1.5,308.9426,308.9426,310.3433,left,0,1.3954,,310.3433,311.3482,0,13,13,6,1,total,1,images/Ex15.jpg,right,training,hard,3,,,,,
,,,,,65cb76b8dd56502a5687bfbd,001,33,Female,British,Bachelors Degree,2024-03-06_14h37.00.863,CRL1h,2023.2.3,MacIntel,59.84082341,65e67470ae2fbf2172c317b2,65e87d7142c856deba19f145,,,,,,,,,,,311.3486,1.2,312.5502,312.5503,314.1036,right,0,1.5474,,314.1036,315.1066,0,14,14,1,1,total,1,images/Ex10.jpg,left,training,hard,3,,,,,
,,,,,65cb76b8dd56502a5687bfbd,001,33,Female,British,Bachelors Degree,2024-03-06_14h37.00.863,CRL1h,2023.2.3,MacIntel,59.84082341,65e67470ae2fbf2172c317b2,65e87d7142c856deba19f145,,,,,,,,,,,315.1069,0.9,316.0084,316.0084,317.0817,right,1,1.0629,,317.0817,318.0808,0,15,15,7,1,total,1,images/Ex16.jpg,right,training,hard,3,,,,,
,,,,,65cb76b8dd56502a5687bfbd,001,33,Female,British,Bachelors Degree,2024-03-06_14h37.00.863,CRL1h,2023.2.3,MacIntel,59.84082341,65e67470ae2fbf2172c317b2,65e87d7142c856deba19f145,,,,,,,,,,,318.0811,1.2,319.2692,319.2692,320.4537,left,1,1.179,,320.4538,321.4559,1,0,16,1,1,total,1,images/Ex10.jpg,left,training,hard,3,,,,,
,,,,,65cb76b8dd56502a5687bfbd,001,33,Female,British,Bachelors Degree,2024-03-06_14h37.00.863,CRL1h,2023.2.3,MacIntel,59.84082341,65e67470ae2fbf2172c317b2,65e87d7142c856deba19f145,,,,,,,,,,,321.4568,1.2,322.6697,322.6697,323.3114,left,1,0.6392,,323.3114,324.3004,1,1,17,9,1,total,1,images/Ex10.jpg,left,training,hard,3,,,,,
,,,,,65cb76b8dd56502a5687bfbd,001,33,Female,British,Bachelors Degree,2024-03-06_14h37.00.863,CRL1h,2023.2.3,MacIntel,59.84082341,65e67470ae2fbf2172c317b2,65e87d7142c856deba19f145,,,,,,,,,,,324.3009,1.4,325.6912,325.6913,327.5086,left,1,1.8127,,327.5086,328.5082,1,2,18,11,1,total,1,images/Ex12.jpg,left,training,hard,3,,,,,
,,,,,65cb76b8dd56502a5687bfbd,001,33,Female,British,Bachelors Degree,2024-03-06_14h37.00.863,CRL1h,2023.2.3,MacIntel,59.84082341,65e67470ae2fbf2172c317b2,65e87d7142c856deba19f145,,,,,,,,,,,328.5085,1.1,329.6118,329.6118,331.5369,left,0,1.9183,,331.5369,332.5472,1,3,19,5,1,total,1,images/Ex14.jpg,right,training,hard,3,,,,,
,,,,,65cb76b8dd56502a5687bfbd,001,33,Female,British,Bachelors Degree,2024-03-06_14h37.00.863,CRL1h,2023.2.3,MacIntel,59.84082341,65e67470ae2fbf2172c317b2,65e87d7142c856deba19f145,,,,,,,,,,,332.548,0.7,333.2397,333.2397,334.2751,right,1,1.0302,,334.2751,335.2768,1,4,20,4,1,total,1,images/Ex13.jpg,right,training,hard,3,,,,,
,,,,,65cb76b8dd56502a5687bfbd,001,33,Female,British,Bachelors Degree,2024-03-06_14h37.00.863,CRL1h,2023.2.3,MacIntel,59.84082341,65e67470ae2fbf2172c317b2,65e87d7142c856deba19f145,,,,,,,,,,,335.2771,1.2,336.4808,336.4808,337.9202,left,1,1.4351,,337.9202,338.9193,1,5,21,2,1,total,1,images/Ex11.jpg,left,training,hard,3,,,,,
,,,,,65cb76b8dd56502a5687bfbd,001,33,Female,British,Bachelors Degree,2024-03-06_14h37.00.863,CRL1h,2023.2.3,MacIntel,59.84082341,65e67470ae2fbf2172c317b2,65e87d7142c856deba19f145,,,,,,,,,,,338.9202,0.6,339.5236,339.5236,340.6615,right,1,1.127,,340.6616,341.6604,1,6,22,7,1,total,1,images/Ex16.jpg,right,training,hard,3,,,,,
,,,,,65cb76b8dd56502a5687bfbd,001,33,Female,British,Bachelors Degree,2024-03-06_14h37.00.863,CRL1h,2023.2.3,MacIntel,59.84082341,65e67470ae2fbf2172c317b2,65e87d7142c856deba19f145,,,,,,,,,,,341.6611,1.4,343.0641,343.0641,344.9214,right,1,1.8532,,344.9214,345.9253,1,7,23,15,1,total,1,images/Ex16.jpg,right,training,hard,3,,,,,
,,,,,65cb76b8dd56502a5687bfbd,001,33,Female,British,Bachelors Degree,2024-03-06_14h37.00.863,CRL1h,2023.2.3,MacIntel,59.84082341,65e67470ae2fbf2172c317b2,65e87d7142c856deba19f145,,,,,,,,,,,345.9259,0.7,346.6248,346.6248,348.5448,left,1,1.9132,,348.5449,349.5487,1,8,24,3,1,total,1,images/Ex12.jpg,left,training,hard,3,,,,,
,,,,,65cb76b8dd56502a5687bfbd,001,33,Female,British,Bachelors Degree,2024-03-06_14h37.00.863,CRL1h,2023.2.3,MacIntel,59.84082341,65e67470ae2fbf2172c317b2,65e87d7142c856deba19f145,,,,,,,,,,,349.549,1.2,350.7522,350.7523,352.3576,left,0,1.5952,,352.3578,353.3609,1,9,25,13,1,total,1,images/Ex14.jpg,right,training,hard,3,,,,,
,,,,,65cb76b8dd56502a5687bfbd,001,33,Female,British,Bachelors Degree,2024-03-06_14h37.00.863,CRL1h,2023.2.3,MacIntel,59.84082341,65e67470ae2fbf2172c317b2,65e87d7142c856deba19f145,,,,,,,,,,,353.3613,1.2,354.5638,354.5638,355.7552,left,1,1.1897,,355.7552,356.7534,1,10,26,10,1,total,1,images/Ex11.jpg,left,training,hard,3,,,,,
,,,,,65cb76b8dd56502a5687bfbd,001,33,Female,British,Bachelors Degree,2024-03-06_14h37.00.863,CRL1h,2023.2.3,MacIntel,59.84082341,65e67470ae2fbf2172c317b2,65e87d7142c856deba19f145,,,,,,,,,,,356.7539,1.2,357.9543,357.9543,359.0586,right,1,1.0935,,359.0587,360.0603,1,11,27,6,1,total,1,images/Ex15.jpg,right,training,hard,3,,,,,
,,,,,65cb76b8dd56502a5687bfbd,001,33,Female,British,Bachelors Degree,2024-03-06_14h37.00.863,CRL1h,2023.2.3,MacIntel,59.84082341,65e67470ae2fbf2172c317b2,65e87d7142c856deba19f145,,,,,,,,,,,360.0607,0.6,360.664,360.664,362.1167,left,1,1.4461,,362.1168,363.1172,1,12,28,8,1,total,1,images/Ex9.jpg,left,training,hard,3,,,,,
,,,,,65cb76b8dd56502a5687bfbd,001,33,Female,British,Bachelors Degree,2024-03-06_14h37.00.863,CRL1h,2023.2.3,MacIntel,59.84082341,65e67470ae2fbf2172c317b2,65e87d7142c856deba19f145,,,,,,,,,,,363.1187,0.6,363.7201,363.7201,364.3559,left,1,0.6267,,364.356,365.3606,1,13,29,0,1,total,1,images/Ex9.jpg,left,training,hard,3,,,,,
,,,,,65cb76b8dd56502a5687bfbd,001,33,Female,British,Bachelors Degree,2024-03-06_14h37.00.863,CRL1h,2023.2.3,MacIntel,59.84082341,65e67470ae2fbf2172c317b2,65e87d7142c856deba19f145,,,,,,,,,,,365.3609,1,366.3622,366.3622,367.2809,left,0,0.9093,,367.2811,368.2823,1,14,30,12,1,total,1,images/Ex13.jpg,right,training,hard,3,,,,,
,,,,,65cb76b8dd56502a5687bfbd,001,33,Female,British,Bachelors Degree,2024-03-06_14h37.00.863,CRL1h,2023.2.3,MacIntel,59.84082341,65e67470ae2fbf2172c317b2,65e87d7142c856deba19f145,,,,,,,,,,,368.2828,1.3,369.5872,369.5873,371.4624,left,0,1.8661,,371.4624,372.4608,1,15,31,14,1,total,1,images/Ex15.jpg,right,training,hard,3,,,,,
,,,,,65cb76b8dd56502a5687bfbd,001,33,Female,British,Bachelors Degree,2024-03-06_14h37.00.863,CRL1h,2023.2.3,MacIntel,59.84082341,65e67470ae2fbf2172c317b2,65e87d7142c856deba19f145,,,,,,,,,,,372.4615,0.7,373.1635,373.1635,374.2666,left,1,1.0934,,374.2666,375.2674,2,0,32,11,1,total,1,images/Ex12.jpg,left,training,hard,3,,,,,
,,,,,65cb76b8dd56502a5687bfbd,001,33,Female,British,Bachelors Degree,2024-03-06_14h37.00.863,CRL1h,2023.2.3,MacIntel,59.84082341,65e67470ae2fbf2172c317b2,65e87d7142c856deba19f145,,,,,,,,,,,375.2679,1.1,376.3702,376.3703,377.2097,left,1,0.8275,,377.2097,378.2087,2,1,33,3,1,total,1,images/Ex12.jpg,left,training,hard,3,,,,,
,,,,,65cb76b8dd56502a5687bfbd,001,33,Female,British,Bachelors Degree,2024-03-06_14h37.00.863,CRL1h,2023.2.3,MacIntel,59.84082341,65e67470ae2fbf2172c317b2,65e87d7142c856deba19f145,,,,,,,,,,,378.209,1.4,379.5965,379.5967,381.0685,left,0,1.4598,,381.0686,382.0702,2,2,34,7,1,total,1,images/Ex16.jpg,right,training,hard,3,,,,,
,,,,,65cb76b8dd56502a5687bfbd,001,33,Female,British,Bachelors Degree,2024-03-06_14h37.00.863,CRL1h,2023.2.3,MacIntel,59.84082341,65e67470ae2fbf2172c317b2,65e87d7142c856deba19f145,,,,,,,,,,,382.0706,0.5,382.5745,382.5745,384.3439,left,1,1.7593,,384.3439,385.3469,2,3,35,9,1,total,1,images/Ex10.jpg,left,training,hard,3,,,,,
,,,,,65cb76b8dd56502a5687bfbd,001,33,Female,British,Bachelors Degree,2024-03-06_14h37.00.863,CRL1h,2023.2.3,MacIntel,59.84082341,65e67470ae2fbf2172c317b2,65e87d7142c856deba19f145,,,,,,,,,,,385.3474,1,386.348,386.348,386.9557,left,0,0.6061,,386.9557,387.9522,2,4,36,13,1,total,1,images/Ex14.jpg,right,training,hard,3,,,,,
,,,,,65cb76b8dd56502a5687bfbd,001,33,Female,British,Bachelors Degree,2024-03-06_14h37.00.863,CRL1h,2023.2.3,MacIntel,59.84082341,65e67470ae2fbf2172c317b2,65e87d7142c856deba19f145,,,,,,,,,,,387.9533,0.8,388.7521,388.7522,389.9601,right,0,1.2065,,389.9601,390.9581,2,5,37,8,1,total,1,images/Ex9.jpg,left,training,hard,3,,,,,
,,,,,65cb76b8dd56502a5687bfbd,001,33,Female,British,Bachelors Degree,2024-03-06_14h37.00.863,CRL1h,2023.2.3,MacIntel,59.84082341,65e67470ae2fbf2172c317b2,65e87d7142c856deba19f145,,,,,,,,,,,390.9585,1.1,392.0464,392.0464,393.7184,left,0,1.6671,,393.7184,394.7194,2,6,38,12,1,total,1,images/Ex13.jpg,right,training,hard,3,,,,,
,,,,,65cb76b8dd56502a5687bfbd,001,33,Female,British,Bachelors Degree,2024-03-06_14h37.00.863,CRL1h,2023.2.3,MacIntel,59.84082341,65e67470ae2fbf2172c317b2,65e87d7142c856deba19f145,,,,,,,,,,,394.7197,1.4,396.1074,396.1074,397.2593,left,1,1.1422,,397.2594,398.2608,2,7,39,10,1,total,1,images/Ex11.jpg,left,training,hard,3,,,,,
,,,,,65cb76b8dd56502a5687bfbd,001,33,Female,British,Bachelors Degree,2024-03-06_14h37.00.863,CRL1h,2023.2.3,MacIntel,59.84082341,65e67470ae2fbf2172c317b2,65e87d7142c856deba19f145,,,,,,,,,,,398.2612,1.3,399.5513,399.5513,401.0517,right,1,1.4887,,401.0517,402.0544,2,8,40,4,1,total,1,images/Ex13.jpg,right,training,hard,3,,,,,
,,,,,65cb76b8dd56502a5687bfbd,001,33,Female,British,Bachelors Degree,2024-03-06_14h37.00.863,CRL1h,2023.2.3,MacIntel,59.84082341,65e67470ae2fbf2172c317b2,65e87d7142c856deba19f145,,,,,,,,,,,402.0547,1.4,403.4428,403.4428,404.447,left,1,0.9949,,404.4471,405.4477,2,9,41,2,1,total,1,images/Ex11.jpg,left,training,hard,3,,,,,
,,,,,65cb76b8dd56502a5687bfbd,001,33,Female,British,Bachelors Degree,2024-03-06_14h37.00.863,CRL1h,2023.2.3,MacIntel,59.84082341,65e67470ae2fbf2172c317b2,65e87d7142c856deba19f145,,,,,,,,,,,405.448,0.6,406.0498,406.0499,406.9684,left,0,0.9085,,406.9685,407.9707,2,10,42,15,1,total,1,images/Ex16.jpg,right,training,hard,3,,,,,
,,,,,65cb76b8dd56502a5687bfbd,001,33,Female,British,Bachelors Degree,2024-03-06_14h37.00.863,CRL1h,2023.2.3,MacIntel,59.84082341,65e67470ae2fbf2172c317b2,65e87d7142c856deba19f145,,,,,,,,,,,407.971,0.6,408.5726,408.5726,409.46,left,1,0.8771,,409.4602,410.4619,2,11,43,1,1,total,1,images/Ex10.jpg,left,training,hard,3,,,,,
,,,,,65cb76b8dd56502a5687bfbd,001,33,Female,British,Bachelors Degree,2024-03-06_14h37.00.863,CRL1h,2023.2.3,MacIntel,59.84082341,65e67470ae2fbf2172c317b2,65e87d7142c856deba19f145,,,,,,,,,,,410.4627,1.1,411.5629,411.5629,412.5676,left,0,0.9982,,412.5677,413.5694,2,12,44,14,1,total,1,images/Ex15.jpg,right,training,hard,3,,,,,
,,,,,65cb76b8dd56502a5687bfbd,001,33,Female,British,Bachelors Degree,2024-03-06_14h37.00.863,CRL1h,2023.2.3,MacIntel,59.84082341,65e67470ae2fbf2172c317b2,65e87d7142c856deba19f145,,,,,,,,,,,413.5696,1,414.5716,414.5718,415.5417,left,0,0.9657,,415.5417,416.545,2,13,45,5,1,total,1,images/Ex14.jpg,right,training,hard,3,,,,,
,,,,,65cb76b8dd56502a5687bfbd,001,33,Female,British,Bachelors Degree,2024-03-06_14h37.00.863,CRL1h,2023.2.3,MacIntel,59.84082341,65e67470ae2fbf2172c317b2,65e87d7142c856deba19f145,,,,,,,,,,,416.5454,0.9,417.4467,417.4467,418.1988,right,1,0.7481,,418.1988,419.2018,2,14,46,6,1,total,1,images/Ex15.jpg,right,training,hard,3,,,,,
,,,,,65cb76b8dd56502a5687bfbd,001,33,Female,British,Bachelors Degree,2024-03-06_14h37.00.863,CRL1h,2023.2.3,MacIntel,59.84082341,65e67470ae2fbf2172c317b2,65e87d7142c856deba19f145,,,,,,,,,,,419.2021,1.2,420.4063,420.4064,421.2588,right,0,0.8473,,421.2588,422.2583,2,15,47,0,1,total,1,images/Ex9.jpg,left,training,hard,3,,,,,
,,,,,65cb76b8dd56502a5687bfbd,001,33,Female,British,Bachelors Degree,2024-03-06_14h37.00.863,CRL1h,2023.2.3,MacIntel,59.84082341,65e67470ae2fbf2172c317b2,65e87d7142c856deba19f145,,,,,,,,,,,422.2586,1.3,423.5465,423.5465,424.4832,left,1,0.9317,,424.4833,425.4847,3,0,48,11,1,total,1,images/Ex12.jpg,left,training,hard,3,,,,,
,,,,,65cb76b8dd56502a5687bfbd,001,33,Female,British,Bachelors Degree,2024-03-06_14h37.00.863,CRL1h,2023.2.3,MacIntel,59.84082341,65e67470ae2fbf2172c317b2,65e87d7142c856deba19f145,,,,,,,,,,,425.4851,0.6,426.0883,426.0884,428.0439,right,0,1.9446,,428.0439,429.0447,3,1,49,0,1,total,1,images/Ex9.jpg,left,training,hard,3,,,,,
,,,,,65cb76b8dd56502a5687bfbd,001,33,Female,British,Bachelors Degree,2024-03-06_14h37.00.863,CRL1h,2023.2.3,MacIntel,59.84082341,65e67470ae2fbf2172c317b2,65e87d7142c856deba19f145,,,,,,,,,,,429.0451,1.3,430.3473,430.3473,431.8509,right,1,1.4966,,431.8509,432.8538,3,2,50,14,1,total,1,images/Ex15.jpg,right,training,hard,3,,,,,
,,,,,65cb76b8dd56502a5687bfbd,001,33,Female,British,Bachelors Degree,2024-03-06_14h37.00.863,CRL1h,2023.2.3,MacIntel,59.84082341,65e67470ae2fbf2172c317b2,65e87d7142c856deba19f145,,,,,,,,,,,432.855,1.4,434.26,434.2601,435.195,right,1,0.9249,,435.1951,436.1964,3,3,51,5,1,total,1,images/Ex14.jpg,right,training,hard,3,,,,,
,,,,,65cb76b8dd56502a5687bfbd,001,33,Female,British,Bachelors Degree,2024-03-06_14h37.00.863,CRL1h,2023.2.3,MacIntel,59.84082341,65e67470ae2fbf2172c317b2,65e87d7142c856deba19f145,,,,,,,,,,,436.1967,0.9,437.0984,437.0984,437.9019,right,1,0.7952,,437.9021,438.9037,3,4,52,15,1,total,1,images/Ex16.jpg,right,training,hard,3,,,,,
,,,,,65cb76b8dd56502a5687bfbd,001,33,Female,British,Bachelors Degree,2024-03-06_14h37.00.863,CRL1h,2023.2.3,MacIntel,59.84082341,65e67470ae2fbf2172c317b2,65e87d7142c856deba19f145,,,,,,,,,,,438.9041,0.7,439.6064,439.6064,440.2407,right,1,0.626,,440.2407,441.2433,3,5,53,4,1,total,1,images/Ex13.jpg,right,training,hard,3,,,,,
,,,,,65cb76b8dd56502a5687bfbd,001,33,Female,British,Bachelors Degree,2024-03-06_14h37.00.863,CRL1h,2023.2.3,MacIntel,59.84082341,65e67470ae2fbf2172c317b2,65e87d7142c856deba19f145,,,,,,,,,,,441.2436,0.8,442.0467,442.0467,442.8266,left,1,0.7789,,442.8267,443.8157,3,6,54,10,1,total,1,images/Ex11.jpg,left,training,hard,3,,,,,
,,,,,65cb76b8dd56502a5687bfbd,001,33,Female,British,Bachelors Degree,2024-03-06_14h37.00.863,CRL1h,2023.2.3,MacIntel,59.84082341,65e67470ae2fbf2172c317b2,65e87d7142c856deba19f145,,,,,,,,,,,443.8162,0.6,444.4203,444.4203,445.9727,right,1,1.5482,,445.9728,446.9828,3,7,55,13,1,total,1,images/Ex14.jpg,right,training,hard,3,,,,,
,,,,,65cb76b8dd56502a5687bfbd,001,33,Female,British,Bachelors Degree,2024-03-06_14h37.00.863,CRL1h,2023.2.3,MacIntel,59.84082341,65e67470ae2fbf2172c317b2,65e87d7142c856deba19f145,,,,,,,,,,,446.983,0.7,447.6761,447.6761,449.4674,right,0,1.7821,,449.4674,450.4672,3,8,56,8,1,total,1,images/Ex9.jpg,left,training,hard,3,,,,,
,,,,,65cb76b8dd56502a5687bfbd,001,33,Female,British,Bachelors Degree,2024-03-06_14h37.00.863,CRL1h,2023.2.3,MacIntel,59.84082341,65e67470ae2fbf2172c317b2,65e87d7142c856deba19f145,,,,,,,,,,,450.4677,0.8,451.2718,451.2718,452.6916,right,1,1.4187,,452.6916,453.6946,3,9,57,12,1,total,1,images/Ex13.jpg,right,training,hard,3,,,,,
,,,,,65cb76b8dd56502a5687bfbd,001,33,Female,British,Bachelors Degree,2024-03-06_14h37.00.863,CRL1h,2023.2.3,MacIntel,59.84082341,65e67470ae2fbf2172c317b2,65e87d7142c856deba19f145,,,,,,,,,,,453.6952,1.3,454.9963,454.9963,455.9357,left,1,0.929,,455.9358,456.9355,3,10,58,2,1,total,1,images/Ex11.jpg,left,training,hard,3,,,,,
,,,,,65cb76b8dd56502a5687bfbd,001,33,Female,British,Bachelors Degree,2024-03-06_14h37.00.863,CRL1h,2023.2.3,MacIntel,59.84082341,65e67470ae2fbf2172c317b2,65e87d7142c856deba19f145,,,,,,,,,,,456.9362,0.6,457.53,457.5301,458.6415,right,1,1.1059,,458.6416,459.6419,3,11,59,6,1,total,1,images/Ex15.jpg,right,training,hard,3,,,,,
,,,,,65cb76b8dd56502a5687bfbd,001,33,Female,British,Bachelors Degree,2024-03-06_14h37.00.863,CRL1h,2023.2.3,MacIntel,59.84082341,65e67470ae2fbf2172c317b2,65e87d7142c856deba19f145,,,,,,,,,,,459.6427,1.3,460.9466,460.9467,461.9493,left,1,0.995,,461.9494,462.9503,3,12,60,3,1,total,1,images/Ex12.jpg,left,training,hard,3,,,,,
,,,,,65cb76b8dd56502a5687bfbd,001,33,Female,British,Bachelors Degree,2024-03-06_14h37.00.863,CRL1h,2023.2.3,MacIntel,59.84082341,65e67470ae2fbf2172c317b2,65e87d7142c856deba19f145,,,,,,,,,,,462.9506,1.2,464.1569,464.1569,465.3413,left,1,1.1789,,465.3413,466.3441,3,13,61,1,1,total,1,images/Ex10.jpg,left,training,hard,3,,,,,
,,,,,65cb76b8dd56502a5687bfbd,001,33,Female,British,Bachelors Degree,2024-03-06_14h37.00.863,CRL1h,2023.2.3,MacIntel,59.84082341,65e67470ae2fbf2172c317b2,65e87d7142c856deba19f145,,,,,,,,,,,466.3444,0.8,467.1462,467.1462,468.2332,right,1,1.0777,,468.2333,469.2241,3,14,62,7,1,total,1,images/Ex16.jpg,right,training,hard,3,,,,,
,,,,,65cb76b8dd56502a5687bfbd,001,33,Female,British,Bachelors Degree,2024-03-06_14h37.00.863,CRL1h,2023.2.3,MacIntel,59.84082341,65e67470ae2fbf2172c317b2,65e87d7142c856deba19f145,,,,,,,,,,,469.2249,1,470.2215,470.2216,471.1405,left,1,0.9081,,471.1405,472.1436,3,15,63,9,1,total,1,images/Ex10.jpg,left,training,hard,3,,,,,
,,,,,65cb76b8dd56502a5687bfbd,001,33,Female,British,Bachelors Degree,2024-03-06_14h37.00.863,CRL1h,2023.2.3,MacIntel,59.84082341,65e67470ae2fbf2172c317b2,65e87d7142c856deba19f145,,,,,,,,,,,472.144,0.6,472.738,472.738,473.7811,right,1,1.0423,,473.7811,474.7851,4,0,64,15,1,total,1,images/Ex16.jpg,right,training,hard,3,,,,,
,,,,,65cb76b8dd56502a5687bfbd,001,33,Female,British,Bachelors Degree,2024-03-06_14h37.00.863,CRL1h,2023.2.3,MacIntel,59.84082341,65e67470ae2fbf2172c317b2,65e87d7142c856deba19f145,,,,,,,,,,,474.7859,1.3,476.0885,476.0885,476.7892,left,1,0.6923,,476.7892,477.7902,4,1,65,1,1,total,1,images/Ex10.jpg,left,training,hard,3,,,,,
,,,,,65cb76b8dd56502a5687bfbd,001,33,Female,British,Bachelors Degree,2024-03-06_14h37.00.863,CRL1h,2023.2.3,MacIntel,59.84082341,65e67470ae2fbf2172c317b2,65e87d7142c856deba19f145,,,,,,,,,,,477.791,0.9,478.6954,478.6954,481.186,left,1,2.482,,481.1861,482.1855,4,2,66,8,1,total,1,images/Ex9.jpg,left,training,hard,3,,,,,
,,,,,65cb76b8dd56502a5687bfbd,001,33,Female,British,Bachelors Degree,2024-03-06_14h37.00.863,CRL1h,2023.2.3,MacIntel,59.84082341,65e67470ae2fbf2172c317b2,65e87d7142c856deba19f145,,,,,,,,,,,482.1858,1.5,483.6744,483.6745,485.78,left,1,2.0966,,485.7801,486.7842,4,3,67,10,1,total,1,images/Ex11.jpg,left,training,hard,3,,,,,
,,,,,65cb76b8dd56502a5687bfbd,001,33,Female,British,Bachelors Degree,2024-03-06_14h37.00.863,CRL1h,2023.2.3,MacIntel,59.84082341,65e67470ae2fbf2172c317b2,65e87d7142c856deba19f145,,,,,,,,,,,486.7846,0.8,487.5843,487.5843,488.1361,left,1,0.5424,,488.1361,489.1386,4,4,68,2,1,total,1,images/Ex11.jpg,left,training,hard,3,,,,,
,,,,,65cb76b8dd56502a5687bfbd,001,33,Female,British,Bachelors Degree,2024-03-06_14h37.00.863,CRL1h,2023.2.3,MacIntel,59.84082341,65e67470ae2fbf2172c317b2,65e87d7142c856deba19f145,,,,,,,,,,,489.1392,1.1,490.241,490.241,491.2275,right,1,0.9737,,491.2277,492.2312,4,5,69,7,1,total,1,images/Ex16.jpg,right,training,hard,3,,,,,
,,,,,65cb76b8dd56502a5687bfbd,001,33,Female,British,Bachelors Degree,2024-03-06_14h37.00.863,CRL1h,2023.2.3,MacIntel,59.84082341,65e67470ae2fbf2172c317b2,65e87d7142c856deba19f145,,,,,,,,,,,492.2317,1.5,493.733,493.7331,494.3206,left,1,0.5842,,494.3208,495.3233,4,6,70,9,1,total,1,images/Ex10.jpg,left,training,hard,3,,,,,
,,,,,65cb76b8dd56502a5687bfbd,001,33,Female,British,Bachelors Degree,2024-03-06_14h37.00.863,CRL1h,2023.2.3,MacIntel,59.84082341,65e67470ae2fbf2172c317b2,65e87d7142c856deba19f145,,,,,,,,,,,495.3236,0.8,496.1237,496.1237,497.1445,right,1,1.0104,,497.145,498.1463,4,7,71,12,1,total,1,images/Ex13.jpg,right,training,hard,3,,,,,
,,,,,65cb76b8dd56502a5687bfbd,001,33,Female,British,Bachelors Degree,2024-03-06_14h37.00.863,CRL1h,2023.2.3,MacIntel,59.84082341,65e67470ae2fbf2172c317b2,65e87d7142c856deba19f145,,,,,,,,,,,498.1471,1.1,499.2351,499.2351,499.9678,right,1,0.7228,,499.9678,500.9556,4,8,72,4,1,total,1,images/Ex13.jpg,right,training,hard,3,,,,,
,,,,,65cb76b8dd56502a5687bfbd,001,33,Female,British,Bachelors Degree,2024-03-06_14h37.00.863,CRL1h,2023.2.3,MacIntel,59.84082341,65e67470ae2fbf2172c317b2,65e87d7142c856deba19f145,,,,,,,,,,,500.9561,0.7,501.6561,501.6562,503.4927,right,1,1.8272,,503.4928,504.5021,4,9,73,6,1,total,1,images/Ex15.jpg,right,training,hard,3,,,,,
,,,,,65cb76b8dd56502a5687bfbd,001,33,Female,British,Bachelors Degree,2024-03-06_14h37.00.863,CRL1h,2023.2.3,MacIntel,59.84082341,65e67470ae2fbf2172c317b2,65e87d7142c856deba19f145,,,,,,,,,,,504.5025,0.9,505.4006,505.4007,506.3862,left,0,0.9797,,506.3863,507.374,4,10,74,13,1,total,1,images/Ex14.jpg,right,training,hard,3,,,,,
,,,,,65cb76b8dd56502a5687bfbd,001,33,Female,British,Bachelors Degree,2024-03-06_14h37.00.863,CRL1h,2023.2.3,MacIntel,59.84082341,65e67470ae2fbf2172c317b2,65e87d7142c856deba19f145,,,,,,,,,,,507.3745,0.6,507.9718,507.9721,509.0094,left,1,1.027,,509.0094,510.0106,4,11,75,11,1,total,1,images/Ex12.jpg,left,training,hard,3,,,,,
,,,,,65cb76b8dd56502a5687bfbd,001,33,Female,British,Bachelors Degree,2024-03-06_14h37.00.863,CRL1h,2023.2.3,MacIntel,59.84082341,65e67470ae2fbf2172c317b2,65e87d7142c856deba19f145,,,,,,,,,,,510.011,0.6,510.6135,510.6135,511.3978,right,0,0.776,,511.3978,512.4018,4,12,76,0,1,total,1,images/Ex9.jpg,left,training,hard,3,,,,,
,,,,,65cb76b8dd56502a5687bfbd,001,33,Female,British,Bachelors Degree,2024-03-06_14h37.00.863,CRL1h,2023.2.3,MacIntel,59.84082341,65e67470ae2fbf2172c317b2,65e87d7142c856deba19f145,,,,,,,,,,,512.4023,1.1,513.5211,513.5212,514.1586,left,0,0.6267,,514.1586,515.1581,4,13,77,5,1,total,1,images/Ex14.jpg,right,training,hard,3,,,,,
,,,,,65cb76b8dd56502a5687bfbd,001,33,Female,British,Bachelors Degree,2024-03-06_14h37.00.863,CRL1h,2023.2.3,MacIntel,59.84082341,65e67470ae2fbf2172c317b2,65e87d7142c856deba19f145,,,,,,,,,,,515.1588,0.5,515.66,515.6601,516.8973,right,1,1.2296,,516.8974,517.8978,4,14,78,14,1,total,1,images/Ex15.jpg,right,training,hard,3,,,,,
,,,,,65cb76b8dd56502a5687bfbd,001,33,Female,British,Bachelors Degree,2024-03-06_14h37.00.863,CRL1h,2023.2.3,MacIntel,59.84082341,65e67470ae2fbf2172c317b2,65e87d7142c856deba19f145,,,,,,,,,,,517.8985,0.8,518.7005,518.7005,519.5708,left,1,0.862,,519.5711,520.5742,4,15,79,3,1,total,1,images/Ex12.jpg,left,training,hard,3,,,,,
,,,,,65cb76b8dd56502a5687bfbd,001,33,Female,British,Bachelors Degree,2024-03-06_14h37.00.863,CRL1h,2023.2.3,MacIntel,59.84082341,65e67470ae2fbf2172c317b2,65e87d7142c856deba19f145,,,,,,,,,,,520.5746,0.7,521.2727,521.2727,522.6433,right,0,1.3635,,522.6433,523.648,5,0,80,10,1,total,1,images/Ex11.jpg,left,training,hard,3,,,,,
,,,,,65cb76b8dd56502a5687bfbd,001,33,Female,British,Bachelors Degree,2024-03-06_14h37.00.863,CRL1h,2023.2.3,MacIntel,59.84082341,65e67470ae2fbf2172c317b2,65e87d7142c856deba19f145,,,,,,,,,,,523.6483,1.1,524.7511,524.7511,525.6536,left,1,0.8933,,525.6538,526.6575,5,1,81,3,1,total,1,images/Ex12.jpg,left,training,hard,3,,,,,
,,,,,65cb76b8dd56502a5687bfbd,001,33,Female,British,Bachelors Degree,2024-03-06_14h37.00.863,CRL1h,2023.2.3,MacIntel,59.84082341,65e67470ae2fbf2172c317b2,65e87d7142c856deba19f145,,,,,,,,,,,526.6579,1.4,528.0592,528.0592,530.8682,right,1,2.7981,,530.8683,531.8714,5,2,82,4,1,total,1,images/Ex13.jpg,right,training,hard,3,,,,,
,,,,,65cb76b8dd56502a5687bfbd,001,33,Female,British,Bachelors Degree,2024-03-06_14h37.00.863,CRL1h,2023.2.3,MacIntel,59.84082341,65e67470ae2fbf2172c317b2,65e87d7142c856deba19f145,,,,,,,,,,,531.8718,1.5,533.3751,533.3751,536.4829,right,1,3.1007,,536.4832,537.4709,5,3,83,6,1,total,1,images/Ex15.jpg,right,training,hard,3,,,,,
,,,,,65cb76b8dd56502a5687bfbd,001,33,Female,British,Bachelors Degree,2024-03-06_14h37.00.863,CRL1h,2023.2.3,MacIntel,59.84082341,65e67470ae2fbf2172c317b2,65e87d7142c856deba19f145,,,,,,,,,,,537.4712,0.8,538.2706,538.2706,539.6736,right,1,1.3979,,539.6737,540.6777,5,4,84,12,1,total,1,images/Ex13.jpg,right,training,hard,3,,,,,
,,,,,65cb76b8dd56502a5687bfbd,001,33,Female,British,Bachelors Degree,2024-03-06_14h37.00.863,CRL1h,2023.2.3,MacIntel,59.84082341,65e67470ae2fbf2172c317b2,65e87d7142c856deba19f145,,,,,,,,,,,540.6782,0.8,541.479,541.479,542.2629,left,0,0.7781,,542.2629,543.2685,5,5,85,15,1,total,1,images/Ex16.jpg,right,training,hard,3,,,,,
,,,,,65cb76b8dd56502a5687bfbd,001,33,Female,British,Bachelors Degree,2024-03-06_14h37.00.863,CRL1h,2023.2.3,MacIntel,59.84082341,65e67470ae2fbf2172c317b2,65e87d7142c856deba19f145,,,,,,,,,,,543.2689,1,544.2704,544.2704,545.0717,left,1,0.7938,,545.0717,546.0756,5,6,86,9,1,total,1,images/Ex10.jpg,left,training,hard,3,,,,,
,,,,,65cb76b8dd56502a5687bfbd,001,33,Female,British,Bachelors Degree,2024-03-06_14h37.00.863,CRL1h,2023.2.3,MacIntel,59.84082341,65e67470ae2fbf2172c317b2,65e87d7142c856deba19f145,,,,,,,,,,,546.0759,1.3,547.377,547.3771,549.1499,right,1,1.765,,549.15,550.1506,5,7,87,5,1,total,1,images/Ex14.jpg,right,training,hard,3,,,,,
,,,,,65cb76b8dd56502a5687bfbd,001,33,Female,British,Bachelors Degree,2024-03-06_14h37.00.863,CRL1h,2023.2.3,MacIntel,59.84082341,65e67470ae2fbf2172c317b2,65e87d7142c856deba19f145,,,,,,,,,,,550.1511,1,551.1525,551.1525,552.1094,left,1,0.9446,,552.1095,553.1095,5,8,88,2,1,total,1,images/Ex11.jpg,left,training,hard,3,,,,,
,,,,,65cb76b8dd56502a5687bfbd,001,33,Female,British,Bachelors Degree,2024-03-06_14h37.00.863,CRL1h,2023.2.3,MacIntel,59.84082341,65e67470ae2fbf2172c317b2,65e87d7142c856deba19f145,,,,,,,,,,,553.1103,1.4,554.5016,554.5016,555.133,right,1,0.6236,,555.1331,556.1357,5,9,89,14,1,total,1,images/Ex15.jpg,right,training,hard,3,,,,,
,,,,,65cb76b8dd56502a5687bfbd,001,33,Female,British,Bachelors Degree,2024-03-06_14h37.00.863,CRL1h,2023.2.3,MacIntel,59.84082341,65e67470ae2fbf2172c317b2,65e87d7142c856deba19f145,,,,,,,,,,,556.1361,1.2,557.3361,557.3361,558.1724,left,1,0.8275,,558.1726,559.1758,5,10,90,1,1,total,1,images/Ex10.jpg,left,training,hard,3,,,,,
,,,,,65cb76b8dd56502a5687bfbd,001,33,Female,British,Bachelors Degree,2024-03-06_14h37.00.863,CRL1h,2023.2.3,MacIntel,59.84082341,65e67470ae2fbf2172c317b2,65e87d7142c856deba19f145,,,,,,,,,,,559.1762,0.6,559.7775,559.7776,560.5636,left,0,0.7765,,560.5637,561.5655,5,11,91,7,1,total,1,images/Ex16.jpg,right,training,hard,3,,,,,
,,,,,65cb76b8dd56502a5687bfbd,001,33,Female,British,Bachelors Degree,2024-03-06_14h37.00.863,CRL1h,2023.2.3,MacIntel,59.84082341,65e67470ae2fbf2172c317b2,65e87d7142c856deba19f145,,,,,,,,,,,561.5658,1.4,562.9674,562.9675,564.2731,left,1,1.3039,,564.2732,565.2767,5,12,92,0,1,total,1,images/Ex9.jpg,left,training,hard,3,,,,,
,,,,,65cb76b8dd56502a5687bfbd,001,33,Female,British,Bachelors Degree,2024-03-06_14h37.00.863,CRL1h,2023.2.3,MacIntel,59.84082341,65e67470ae2fbf2172c317b2,65e87d7142c856deba19f145,,,,,,,,,,,565.2771,0.7,565.9763,565.9764,566.9297,right,1,0.9448,,566.9297,567.9315,5,13,93,13,1,total,1,images/Ex14.jpg,right,training,hard,3,,,,,
,,,,,65cb76b8dd56502a5687bfbd,001,33,Female,British,Bachelors Degree,2024-03-06_14h37.00.863,CRL1h,2023.2.3,MacIntel,59.84082341,65e67470ae2fbf2172c317b2,65e87d7142c856deba19f145,,,,,,,,,,,567.9319,1.1,569.0199,569.0199,570.7555,right,0,1.7334,,570.7556,571.7583,5,14,94,8,1,total,1,images/Ex9.jpg,left,training,hard,3,,,,,
,,,,,65cb76b8dd56502a5687bfbd,001,33,Female,British,Bachelors Degree,2024-03-06_14h37.00.863,CRL1h,2023.2.3,MacIntel,59.84082341,65e67470ae2fbf2172c317b2,65e87d7142c856deba19f145,,,,,,,,,,,571.7587,1.2,572.9468,572.9468,574.0495,left,1,1.0976,,574.0495,575.052,5,15,95,11,1,total,1,images/Ex12.jpg,left,training,hard,3,,,,,
,,,,,65cb76b8dd56502a5687bfbd,001,33,Female,British,Bachelors Degree,2024-03-06_14h37.00.863,CRL1h,2023.2.3,MacIntel,59.84082341,65e67470ae2fbf2172c317b2,65e87d7142c856deba19f145,,,,,,,,,,,575.0528,1.3,576.3545,576.3546,577.0473,left,1,0.6807,,577.0473,578.0422,6,0,96,11,1,total,1,images/Ex12.jpg,left,training,hard,3,,,,,
,,,,,65cb76b8dd56502a5687bfbd,001,33,Female,British,Bachelors Degree,2024-03-06_14h37.00.863,CRL1h,2023.2.3,MacIntel,59.84082341,65e67470ae2fbf2172c317b2,65e87d7142c856deba19f145,,,,,,,,,,,578.0426,1.4,579.4474,579.4474,581.8526,left,1,2.3954,,581.8527,582.8565,6,1,97,2,1,total,1,images/Ex11.jpg,left,training,hard,3,,,,,
,,,,,65cb76b8dd56502a5687bfbd,001,33,Female,British,Bachelors Degree,2024-03-06_14h37.00.863,CRL1h,2023.2.3,MacIntel,59.84082341,65e67470ae2fbf2172c317b2,65e87d7142c856deba19f145,,,,,,,,,,,582.8572,1.4,584.2613,584.2613,585.7128,right,0,1.4441,,585.7128,586.7159,6,2,98,1,1,total,1,images/Ex10.jpg,left,training,hard,3,,,,,
,,,,,65cb76b8dd56502a5687bfbd,001,33,Female,British,Bachelors Degree,2024-03-06_14h37.00.863,CRL1h,2023.2.3,MacIntel,59.84082341,65e67470ae2fbf2172c317b2,65e87d7142c856deba19f145,,,,,,,,,,,586.7162,0.8,587.5193,587.5193,588.3031,left,0,0.7768,,588.3032,589.3056,6,3,99,7,1,total,1,images/Ex16.jpg,right,training,hard,3,,,,,
,,,,,65cb76b8dd56502a5687bfbd,001,33,Female,British,Bachelors Degree,2024-03-06_14h37.00.863,CRL1h,2023.2.3,MacIntel,59.84082341,65e67470ae2fbf2172c317b2,65e87d7142c856deba19f145,,,,,,,,,,,589.3059,1,590.3087,590.3087,591.211,left,1,0.8931,,591.2111,592.2135,6,4,100,8,1,total,1,images/Ex9.jpg,left,training,hard,3,,,,,
,,,,,65cb76b8dd56502a5687bfbd,001,33,Female,British,Bachelors Degree,2024-03-06_14h37.00.863,CRL1h,2023.2.3,MacIntel,59.84082341,65e67470ae2fbf2172c317b2,65e87d7142c856deba19f145,,,,,,,,,,,592.2139,0.7,592.9157,592.9157,594.1698,right,1,1.246,,594.1699,595.1716,6,5,101,6,1,total,1,images/Ex15.jpg,right,training,hard,3,,,,,
,,,,,65cb76b8dd56502a5687bfbd,001,33,Female,British,Bachelors Degree,2024-03-06_14h37.00.863,CRL1h,2023.2.3,MacIntel,59.84082341,65e67470ae2fbf2172c317b2,65e87d7142c856deba19f145,,,,,,,,,,,595.172,1.3,596.4768,596.4768,598.1642,right,0,1.6814,,598.1642,599.1661,6,6,102,9,1,total,1,images/Ex10.jpg,left,training,hard,3,,,,,
,,,,,65cb76b8dd56502a5687bfbd,001,33,Female,British,Bachelors Degree,2024-03-06_14h37.00.863,CRL1h,2023.2.3,MacIntel,59.84082341,65e67470ae2fbf2172c317b2,65e87d7142c856deba19f145,,,,,,,,,,,599.1664,1,600.1687,600.1687,601.2715,left,1,1.0957,,601.2715,602.2741,6,7,103,0,1,total,1,images/Ex9.jpg,left,training,hard,3,,,,,
,,,,,65cb76b8dd56502a5687bfbd,001,33,Female,British,Bachelors Degree,2024-03-06_14h37.00.863,CRL1h,2023.2.3,MacIntel,59.84082341,65e67470ae2fbf2172c317b2,65e87d7142c856deba19f145,,,,,,,,,,,602.2744,0.8,603.0772,603.0772,604.4625,left,0,1.3822,,604.4625,605.4509,6,8,104,15,1,total,1,images/Ex16.jpg,right,training,hard,3,,,,,
,,,,,65cb76b8dd56502a5687bfbd,001,33,Female,British,Bachelors Degree,2024-03-06_14h37.00.863,CRL1h,2023.2.3,MacIntel,59.84082341,65e67470ae2fbf2172c317b2,65e87d7142c856deba19f145,,,,,,,,,,,605.452,0.6,606.0511,606.0513,607.0364,right,0,0.9791,,607.0365,608.042,6,9,105,10,1,total,1,images/Ex11.jpg,left,training,hard,3,,,,,
,,,,,65cb76b8dd56502a5687bfbd,001,33,Female,British,Bachelors Degree,2024-03-06_14h37.00.863,CRL1h,2023.2.3,MacIntel,59.84082341,65e67470ae2fbf2172c317b2,65e87d7142c856deba19f145,,,,,,,,,,,608.0424,1.1,609.1425,609.1426,610.4146,right,1,1.2616,,610.4146,611.4169,6,10,106,12,1,total,1,images/Ex13.jpg,right,training,hard,3,,,,,
,,,,,65cb76b8dd56502a5687bfbd,001,33,Female,British,Bachelors Degree,2024-03-06_14h37.00.863,CRL1h,2023.2.3,MacIntel,59.84082341,65e67470ae2fbf2172c317b2,65e87d7142c856deba19f145,,,,,,,,,,,611.4174,1.3,612.7096,612.7096,614.0562,right,1,1.3397,,614.0563,615.0581,6,11,107,14,1,total,1,images/Ex15.jpg,right,training,hard,3,,,,,
,,,,,65cb76b8dd56502a5687bfbd,001,33,Female,British,Bachelors Degree,2024-03-06_14h37.00.863,CRL1h,2023.2.3,MacIntel,59.84082341,65e67470ae2fbf2172c317b2,65e87d7142c856deba19f145,,,,,,,,,,,615.0587,0.8,615.8597,615.8598,616.7956,right,1,0.9323,,616.7956,617.8008,6,12,108,13,1,total,1,images/Ex14.jpg,right,training,hard,3,,,,,
,,,,,65cb76b8dd56502a5687bfbd,001,33,Female,British,Bachelors Degree,2024-03-06_14h37.00.863,CRL1h,2023.2.3,MacIntel,59.84082341,65e67470ae2fbf2172c317b2,65e87d7142c856deba19f145,,,,,,,,,,,617.8011,1.4,619.2021,619.2022,619.8727,left,1,0.6594,,619.8728,620.8735,6,13,109,3,1,total,1,images/Ex12.jpg,left,training,hard,3,,,,,
,,,,,65cb76b8dd56502a5687bfbd,001,33,Female,British,Bachelors Degree,2024-03-06_14h37.00.863,CRL1h,2023.2.3,MacIntel,59.84082341,65e67470ae2fbf2172c317b2,65e87d7142c856deba19f145,,,,,,,,,,,620.8739,0.9,621.7745,621.7745,622.5794,right,1,0.8001,,622.5795,623.5822,6,14,110,5,1,total,1,images/Ex14.jpg,right,training,hard,3,,,,,
,,,,,65cb76b8dd56502a5687bfbd,001,33,Female,British,Bachelors Degree,2024-03-06_14h37.00.863,CRL1h,2023.2.3,MacIntel,59.84082341,65e67470ae2fbf2172c317b2,65e87d7142c856deba19f145,,,,,,,,,,,623.5825,1.1,624.6837,624.6837,626.531,right,1,1.8465,,626.531,627.5283,6,15,111,4,1,total,1,images/Ex13.jpg,right,training,hard,3,,,,,
,,,,,65cb76b8dd56502a5687bfbd,001,33,Female,British,Bachelors Degree,2024-03-06_14h37.00.863,CRL1h,2023.2.3,MacIntel,59.84082341,65e67470ae2fbf2172c317b2,65e87d7142c856deba19f145,,,,,,,,,,,627.5288,0.6,628.128,628.1281,628.8298,right,1,0.6943,,628.8299,629.8317,7,0,112,7,1,total,1,images/Ex16.jpg,right,training,hard,3,,,,,
,,,,,65cb76b8dd56502a5687bfbd,001,33,Female,British,Bachelors Degree,2024-03-06_14h37.00.863,CRL1h,2023.2.3,MacIntel,59.84082341,65e67470ae2fbf2172c317b2,65e87d7142c856deba19f145,,,,,,,,,,,629.8322,1.1,630.9334,630.9335,633.2401,left,1,2.2991,,633.2402,634.2412,7,1,113,2,1,total,1,images/Ex11.jpg,left,training,hard,3,,,,,
,,,,,65cb76b8dd56502a5687bfbd,001,33,Female,British,Bachelors Degree,2024-03-06_14h37.00.863,CRL1h,2023.2.3,MacIntel,59.84082341,65e67470ae2fbf2172c317b2,65e87d7142c856deba19f145,,,,,,,,,,,634.2419,0.6,634.844,634.844,635.8977,right,1,1.0508,,635.8977,636.9006,7,2,114,5,1,total,1,images/Ex14.jpg,right,training,hard,3,,,,,
,,,,,65cb76b8dd56502a5687bfbd,001,33,Female,British,Bachelors Degree,2024-03-06_14h37.00.863,CRL1h,2023.2.3,MacIntel,59.84082341,65e67470ae2fbf2172c317b2,65e87d7142c856deba19f145,,,,,,,,,,,636.9015,1,637.9044,637.9044,638.9733,right,1,1.0577,,638.9734,639.9749,7,3,115,13,1,total,1,images/Ex14.jpg,right,training,hard,3,,,,,
,,,,,65cb76b8dd56502a5687bfbd,001,33,Female,British,Bachelors Degree,2024-03-06_14h37.00.863,CRL1h,2023.2.3,MacIntel,59.84082341,65e67470ae2fbf2172c317b2,65e87d7142c856deba19f145,,,,,,,,,,,639.9752,1,640.9757,640.9757,642.1813,right,0,1.2016,,642.1814,643.1826,7,4,116,0,1,total,1,images/Ex9.jpg,left,training,hard,3,,,,,
,,,,,65cb76b8dd56502a5687bfbd,001,33,Female,British,Bachelors Degree,2024-03-06_14h37.00.863,CRL1h,2023.2.3,MacIntel,59.84082341,65e67470ae2fbf2172c317b2,65e87d7142c856deba19f145,,,,,,,,,,,643.1834,1.3,644.4866,644.4866,645.4917,right,0,0.9938,,645.4917,646.4931,7,5,117,9,1,total,1,images/Ex10.jpg,left,training,hard,3,,,,,
,,,,,65cb76b8dd56502a5687bfbd,001,33,Female,British,Bachelors Degree,2024-03-06_14h37.00.863,CRL1h,2023.2.3,MacIntel,59.84082341,65e67470ae2fbf2172c317b2,65e87d7142c856deba19f145,,,,,,,,,,,646.4936,1.2,647.6972,647.6972,648.5646,left,1,0.8622,,648.5646,649.5668,7,6,118,3,1,total,1,images/Ex12.jpg,left,training,hard,3,,,,,
,,,,,65cb76b8dd56502a5687bfbd,001,33,Female,British,Bachelors Degree,2024-03-06_14h37.00.863,CRL1h,2023.2.3,MacIntel,59.84082341,65e67470ae2fbf2172c317b2,65e87d7142c856deba19f145,,,,,,,,,,,649.5671,1.1,650.6698,650.6698,652.0088,left,1,1.3373,,652.0088,653.0095,7,7,119,11,1,total,1,images/Ex12.jpg,left,training,hard,3,,,,,
,,,,,65cb76b8dd56502a5687bfbd,001,33,Female,British,Bachelors Degree,2024-03-06_14h37.00.863,CRL1h,2023.2.3,MacIntel,59.84082341,65e67470ae2fbf2172c317b2,65e87d7142c856deba19f145,,,,,,,,,,,653.0098,1.2,654.2127,654.2127,655.0498,right,1,0.8268,,655.0499,656.0511,7,8,120,4,1,total,1,images/Ex13.jpg,right,training,hard,3,,,,,
,,,,,65cb76b8dd56502a5687bfbd,001,33,Female,British,Bachelors Degree,2024-03-06_14h37.00.863,CRL1h,2023.2.3,MacIntel,59.84082341,65e67470ae2fbf2172c317b2,65e87d7142c856deba19f145,,,,,,,,,,,656.0522,0.8,656.8544,656.8545,657.4382,right,1,0.5749,,657.4383,658.4403,7,9,121,12,1,total,1,images/Ex13.jpg,right,training,hard,3,,,,,
,,,,,65cb76b8dd56502a5687bfbd,001,33,Female,British,Bachelors Degree,2024-03-06_14h37.00.863,CRL1h,2023.2.3,MacIntel,59.84082341,65e67470ae2fbf2172c317b2,65e87d7142c856deba19f145,,,,,,,,,,,658.4409,0.6,659.0427,659.0427,660.3633,left,1,1.3103,,660.3635,661.3665,7,10,122,10,1,total,1,images/Ex11.jpg,left,training,hard,3,,,,,
,,,,,65cb76b8dd56502a5687bfbd,001,33,Female,British,Bachelors Degree,2024-03-06_14h37.00.863,CRL1h,2023.2.3,MacIntel,59.84082341,65e67470ae2fbf2172c317b2,65e87d7142c856deba19f145,,,,,,,,,,,661.3669,1.1,662.4694,662.4694,664.1389,left,1,1.6639,,664.1389,665.1416,7,11,123,8,1,total,1,images/Ex9.jpg,left,training,hard,3,,,,,
,,,,,65cb76b8dd56502a5687bfbd,001,33,Female,British,Bachelors Degree,2024-03-06_14h37.00.863,CRL1h,2023.2.3,MacIntel,59.84082341,65e67470ae2fbf2172c317b2,65e87d7142c856deba19f145,,,,,,,,,,,665.1421,0.8,665.9436,665.9437,666.6632,right,1,0.7097,,666.6632,667.6509,7,12,124,14,1,total,1,images/Ex15.jpg,right,training,hard,3,,,,,
,,,,,65cb76b8dd56502a5687bfbd,001,33,Female,British,Bachelors Degree,2024-03-06_14h37.00.863,CRL1h,2023.2.3,MacIntel,59.84082341,65e67470ae2fbf2172c317b2,65e87d7142c856deba19f145,,,,,,,,,,,667.6513,1.2,668.8518,668.8518,669.4042,right,1,0.5424,,669.4043,670.4084,7,13,125,6,1,total,1,images/Ex15.jpg,right,training,hard,3,,,,,
,,,,,65cb76b8dd56502a5687bfbd,001,33,Female,British,Bachelors Degree,2024-03-06_14h37.00.863,CRL1h,2023.2.3,MacIntel,59.84082341,65e67470ae2fbf2172c317b2,65e87d7142c856deba19f145,,,,,,,,,,,670.4092,0.6,671.0083,671.0083,672.2456,right,1,1.2303,,672.2457,673.246,7,14,126,15,1,total,1,images/Ex16.jpg,right,training,hard,3,,,,,
,,,,,65cb76b8dd56502a5687bfbd,001,33,Female,British,Bachelors Degree,2024-03-06_14h37.00.863,CRL1h,2023.2.3,MacIntel,59.84082341,65e67470ae2fbf2172c317b2,65e87d7142c856deba19f145,,,,,,,,,,,673.2464,0.9,674.149,674.149,675.8034,left,1,1.6504,,675.8035,676.808,7,15,127,1,1,total,1,images/Ex10.jpg,left,training,hard,3,,,,,
,,,,,65cb76b8dd56502a5687bfbd,001,33,Female,British,Bachelors Degree,2024-03-06_14h37.00.863,CRL1h,2023.2.3,MacIntel,59.84082341,65e67470ae2fbf2172c317b2,65e87d7142c856deba19f145,,,,,,,,,,,676.8142,1.3,678.1098,678.1099,678.9472,right,0,0.8278,,678.9473,679.9477,0,0,0,14,1,total,2,images/Ex15.jpg,left,reversed,hard,3,,,,,
,,,,,65cb76b8dd56502a5687bfbd,001,33,Female,British,Bachelors Degree,2024-03-06_14h37.00.863,CRL1h,2023.2.3,MacIntel,59.84082341,65e67470ae2fbf2172c317b2,65e87d7142c856deba19f145,,,,,,,,,,,679.9481,0.8,680.75,680.75,681.8365,right,0,1.0786,,681.8365,682.8426,0,1,1,5,1,total,2,images/Ex14.jpg,left,reversed,hard,3,,,,,
,,,,,65cb76b8dd56502a5687bfbd,001,33,Female,British,Bachelors Degree,2024-03-06_14h37.00.863,CRL1h,2023.2.3,MacIntel,59.84082341,65e67470ae2fbf2172c317b2,65e87d7142c856deba19f145,,,,,,,,,,,682.8429,1.1,683.9438,683.9438,684.8291,left,0,0.879,,684.8291,685.8305,0,2,2,11,1,total,2,images/Ex12.jpg,right,reversed,hard,3,,,,,
,,,,,65cb76b8dd56502a5687bfbd,001,33,Female,British,Bachelors Degree,2024-03-06_14h37.00.863,CRL1h,2023.2.3,MacIntel,59.84082341,65e67470ae2fbf2172c317b2,65e87d7142c856deba19f145,,,,,,,,,,,685.8312,1.4,687.2343,687.2343,689.9905,right,0,2.7504,,689.9905,690.9947,0,3,3,6,1,total,2,images/Ex15.jpg,left,reversed,hard,3,,,,,
,,,,,65cb76b8dd56502a5687bfbd,001,33,Female,British,Bachelors Degree,2024-03-06_14h37.00.863,CRL1h,2023.2.3,MacIntel,59.84082341,65e67470ae2fbf2172c317b2,65e87d7142c856deba19f145,,,,,,,,,,,690.9952,0.5,691.5,691.5001,692.2475,right,0,0.7389,,692.2475,693.24,0,4,4,4,1,total,2,images/Ex13.jpg,left,reversed,hard,3,,,,,
,,,,,65cb76b8dd56502a5687bfbd,001,33,Female,British,Bachelors Degree,2024-03-06_14h37.00.863,CRL1h,2023.2.3,MacIntel,59.84082341,65e67470ae2fbf2172c317b2,65e87d7142c856deba19f145,,,,,,,,,,,693.2403,0.8,694.0375,694.0377,694.9405,left,0,0.8905,,694.9405,695.9403,0,5,5,0,1,total,2,images/Ex9.jpg,right,reversed,hard,3,,,,,
,,,,,65cb76b8dd56502a5687bfbd,001,33,Female,British,Bachelors Degree,2024-03-06_14h37.00.863,CRL1h,2023.2.3,MacIntel,59.84082341,65e67470ae2fbf2172c317b2,65e87d7142c856deba19f145,,,,,,,,,,,695.9408,1.1,697.0425,697.0426,698.6151,right,0,1.5634,,698.6152,699.6161,0,6,6,7,1,total,2,images/Ex16.jpg,left,reversed,hard,3,,,,,
,,,,,65cb76b8dd56502a5687bfbd,001,33,Female,British,Bachelors Degree,2024-03-06_14h37.00.863,CRL1h,2023.2.3,MacIntel,59.84082341,65e67470ae2fbf2172c317b2,65e87d7142c856deba19f145,,,,,,,,,,,699.6177,1,700.6194,700.6194,701.5909,right,1,0.9674,,701.5909,702.5815,0,7,7,1,1,total,2,images/Ex10.jpg,right,reversed,hard,3,,,,,
,,,,,65cb76b8dd56502a5687bfbd,001,33,Female,British,Bachelors Degree,2024-03-06_14h37.00.863,CRL1h,2023.2.3,MacIntel,59.84082341,65e67470ae2fbf2172c317b2,65e87d7142c856deba19f145,,,,,,,,,,,702.5817,0.9,703.4778,703.4778,704.483,left,0,0.9955,,704.4832,705.4827,0,8,8,3,1,total,2,images/Ex12.jpg,right,reversed,hard,3,,,,,
,,,,,65cb76b8dd56502a5687bfbd,001,33,Female,British,Bachelors Degree,2024-03-06_14h37.00.863,CRL1h,2023.2.3,MacIntel,59.84082341,65e67470ae2fbf2172c317b2,65e87d7142c856deba19f145,,,,,,,,,,,705.483,0.7,706.1847,706.1848,707.4723,left,1,1.2824,,707.4723,708.4745,0,9,9,15,1,total,2,images/Ex16.jpg,left,reversed,hard,3,,,,,
,,,,,65cb76b8dd56502a5687bfbd,001,33,Female,British,Bachelors Degree,2024-03-06_14h37.00.863,CRL1h,2023.2.3,MacIntel,59.84082341,65e67470ae2fbf2172c317b2,65e87d7142c856deba19f145,,,,,,,,,,,708.4748,0.5,708.9754,708.9755,710.045,right,1,1.0657,,710.045,711.0476,0,10,10,2,1,total,2,images/Ex11.jpg,right,reversed,hard,3,,,,,
,,,,,65cb76b8dd56502a5687bfbd,001,33,Female,British,Bachelors Degree,2024-03-06_14h37.00.863,CRL1h,2023.2.3,MacIntel,59.84082341,65e67470ae2fbf2172c317b2,65e87d7142c856deba19f145,,,,,,,,,,,711.0479,1.3,712.3367,712.3367,713.3069,right,1,0.967,,713.3069,714.3087,0,11,11,10,1,total,2,images/Ex11.jpg,right,reversed,hard,3,,,,,
,,,,,65cb76b8dd56502a5687bfbd,001,33,Female,British,Bachelors Degree,2024-03-06_14h37.00.863,CRL1h,2023.2.3,MacIntel,59.84082341,65e67470ae2fbf2172c317b2,65e87d7142c856deba19f145,,,,,,,,,,,714.3091,0.6,714.9085,714.9086,716.9632,left,0,2.0514,,716.9633,717.9674,0,12,12,9,1,total,2,images/Ex10.jpg,right,reversed,hard,3,,,,,
,,,,,65cb76b8dd56502a5687bfbd,001,33,Female,British,Bachelors Degree,2024-03-06_14h37.00.863,CRL1h,2023.2.3,MacIntel,59.84082341,65e67470ae2fbf2172c317b2,65e87d7142c856deba19f145,,,,,,,,,,,717.9679,1.4,719.3688,719.3688,720.5107,right,1,1.1342,,720.5107,721.5112,0,13,13,8,1,total,2,images/Ex9.jpg,right,reversed,hard,3,,,,,
,,,,,65cb76b8dd56502a5687bfbd,001,33,Female,British,Bachelors Degree,2024-03-06_14h37.00.863,CRL1h,2023.2.3,MacIntel,59.84082341,65e67470ae2fbf2172c317b2,65e87d7142c856deba19f145,,,,,,,,,,,721.5115,0.5,722.0108,722.0108,722.8806,right,0,0.8671,,722.8806,723.8806,0,14,14,12,1,total,2,images/Ex13.jpg,left,reversed,hard,3,,,,,
,,,,,65cb76b8dd56502a5687bfbd,001,33,Female,British,Bachelors Degree,2024-03-06_14h37.00.863,CRL1h,2023.2.3,MacIntel,59.84082341,65e67470ae2fbf2172c317b2,65e87d7142c856deba19f145,,,,,,,,,,,723.881,0.6,724.4688,724.4688,725.3543,left,1,0.8766,,725.3543,726.3552,0,15,15,13,1,total,2,images/Ex14.jpg,left,reversed,hard,3,,,,,
,,,,,65cb76b8dd56502a5687bfbd,001,33,Female,British,Bachelors Degree,2024-03-06_14h37.00.863,CRL1h,2023.2.3,MacIntel,59.84082341,65e67470ae2fbf2172c317b2,65e87d7142c856deba19f145,,,,,,,,,,,726.3556,0.6,726.9554,726.9554,729.2461,right,1,2.2845,,729.2462,730.2475,1,0,16,1,1,total,2,images/Ex10.jpg,right,reversed,hard,3,,,,,
,,,,,65cb76b8dd56502a5687bfbd,001,33,Female,British,Bachelors Degree,2024-03-06_14h37.00.863,CRL1h,2023.2.3,MacIntel,59.84082341,65e67470ae2fbf2172c317b2,65e87d7142c856deba19f145,,,,,,,,,,,730.2479,0.5,730.7494,730.7495,731.8194,left,1,1.0641,,731.8194,732.8086,1,1,17,14,1,total,2,images/Ex15.jpg,left,reversed,hard,3,,,,,
,,,,,65cb76b8dd56502a5687bfbd,001,33,Female,British,Bachelors Degree,2024-03-06_14h37.00.863,CRL1h,2023.2.3,MacIntel,59.84082341,65e67470ae2fbf2172c317b2,65e87d7142c856deba19f145,,,,,,,,,,,732.809,1.1,733.9109,733.9109,734.8295,right,1,0.9113,,734.8303,735.8314,1,2,18,11,1,total,2,images/Ex12.jpg,right,reversed,hard,3,,,,,
,,,,,65cb76b8dd56502a5687bfbd,001,33,Female,British,Bachelors Degree,2024-03-06_14h37.00.863,CRL1h,2023.2.3,MacIntel,59.84082341,65e67470ae2fbf2172c317b2,65e87d7142c856deba19f145,,,,,,,,,,,735.8322,1.1,736.9322,736.9322,738.2577,right,0,1.324,,738.2578,739.2561,1,3,19,6,1,total,2,images/Ex15.jpg,left,reversed,hard,3,,,,,
,,,,,65cb76b8dd56502a5687bfbd,001,33,Female,British,Bachelors Degree,2024-03-06_14h37.00.863,CRL1h,2023.2.3,MacIntel,59.84082341,65e67470ae2fbf2172c317b2,65e87d7142c856deba19f145,,,,,,,,,,,739.2565,0.8,740.0592,740.0592,741.0466,left,1,0.976,,741.0467,742.0462,1,4,20,4,1,total,2,images/Ex13.jpg,left,reversed,hard,3,,,,,
,,,,,65cb76b8dd56502a5687bfbd,001,33,Female,British,Bachelors Degree,2024-03-06_14h37.00.863,CRL1h,2023.2.3,MacIntel,59.84082341,65e67470ae2fbf2172c317b2,65e87d7142c856deba19f145,,,,,,,,,,,742.0469,0.5,742.5437,742.5438,743.653,right,1,1.102,,743.653,744.6549,1,5,21,8,1,total,2,images/Ex9.jpg,right,reversed,hard,3,,,,,
,,,,,65cb76b8dd56502a5687bfbd,001,33,Female,British,Bachelors Degree,2024-03-06_14h37.00.863,CRL1h,2023.2.3,MacIntel,59.84082341,65e67470ae2fbf2172c317b2,65e87d7142c856deba19f145,,,,,,,,,,,744.6556,0.8,745.456,745.456,748.3304,left,1,2.8667,,748.3304,749.3331,1,6,22,13,1,total,2,images/Ex14.jpg,left,reversed,hard,3,,,,,
,,,,,65cb76b8dd56502a5687bfbd,001,33,Female,British,Bachelors Degree,2024-03-06_14h37.00.863,CRL1h,2023.2.3,MacIntel,59.84082341,65e67470ae2fbf2172c317b2,65e87d7142c856deba19f145,,,,,,,,,,,749.3334,1.1,750.4379,750.438,752.0422,left,1,1.5972,,752.0422,753.0432,1,7,23,7,1,total,2,images/Ex16.jpg,left,reversed,hard,3,,,,,
,,,,,65cb76b8dd56502a5687bfbd,001,33,Female,British,Bachelors Degree,2024-03-06_14h37.00.863,CRL1h,2023.2.3,MacIntel,59.84082341,65e67470ae2fbf2172c317b2,65e87d7142c856deba19f145,,,,,,,,,,,753.0434,0.8,753.8456,753.8457,754.8815,right,1,1.031,,754.8816,755.8853,1,8,24,9,1,total,2,images/Ex10.jpg,right,reversed,hard,3,,,,,
,,,,,65cb76b8dd56502a5687bfbd,001,33,Female,British,Bachelors Degree,2024-03-06_14h37.00.863,CRL1h,2023.2.3,MacIntel,59.84082341,65e67470ae2fbf2172c317b2,65e87d7142c856deba19f145,,,,,,,,,,,755.8862,1.3,757.1869,757.1869,758.5585,left,1,1.3658,,758.5585,759.5604,1,9,25,12,1,total,2,images/Ex13.jpg,left,reversed,hard,3,,,,,
,,,,,65cb76b8dd56502a5687bfbd,001,33,Female,British,Bachelors Degree,2024-03-06_14h37.00.863,CRL1h,2023.2.3,MacIntel,59.84082341,65e67470ae2fbf2172c317b2,65e87d7142c856deba19f145,,,,,,,,,,,759.5608,1.4,760.9644,760.9644,762.4354,right,1,1.4658,,762.4354,763.4366,1,10,26,2,1,total,2,images/Ex11.jpg,right,reversed,hard,3,,,,,
,,,,,65cb76b8dd56502a5687bfbd,001,33,Female,British,Bachelors Degree,2024-03-06_14h37.00.863,CRL1h,2023.2.3,MacIntel,59.84082341,65e67470ae2fbf2172c317b2,65e87d7142c856deba19f145,,,,,,,,,,,763.4373,0.9,764.3396,764.3396,765.4433,left,1,1.0958,,765.4434,766.4312,1,11,27,5,1,total,2,images/Ex14.jpg,left,reversed,hard,3,,,,,
,,,,,65cb76b8dd56502a5687bfbd,001,33,Female,British,Bachelors Degree,2024-03-06_14h37.00.863,CRL1h,2023.2.3,MacIntel,59.84082341,65e67470ae2fbf2172c317b2,65e87d7142c856deba19f145,,,,,,,,,,,766.4317,0.7,767.1316,767.1317,768.4867,right,1,1.3477,,768.4868,769.4865,1,12,28,3,1,total,2,images/Ex12.jpg,right,reversed,hard,3,,,,,
,,,,,65cb76b8dd56502a5687bfbd,001,33,Female,British,Bachelors Degree,2024-03-06_14h37.00.863,CRL1h,2023.2.3,MacIntel,59.84082341,65e67470ae2fbf2172c317b2,65e87d7142c856deba19f145,,,,,,,,,,,769.4871,1.5,770.9933,770.9933,772.8946,left,0,1.8964,,772.8946,773.8987,1,13,29,10,1,total,2,images/Ex11.jpg,right,reversed,hard,3,,,,,
,,,,,65cb76b8dd56502a5687bfbd,001,33,Female,British,Bachelors Degree,2024-03-06_14h37.00.863,CRL1h,2023.2.3,MacIntel,59.84082341,65e67470ae2fbf2172c317b2,65e87d7142c856deba19f145,,,,,,,,,,,773.899,0.5,774.4018,774.4019,776.1059,left,0,1.6933,,776.1059,777.106,1,14,30,0,1,total,2,images/Ex9.jpg,right,reversed,hard,3,,,,,
,,,,,65cb76b8dd56502a5687bfbd,001,33,Female,British,Bachelors Degree,2024-03-06_14h37.00.863,CRL1h,2023.2.3,MacIntel,59.84082341,65e67470ae2fbf2172c317b2,65e87d7142c856deba19f145,,,,,,,,,,,777.1064,0.9,777.994,777.994,779.5026,right,0,1.5071,,779.5026,780.5014,1,15,31,15,1,total,2,images/Ex16.jpg,left,reversed,hard,3,,,,,
,,,,,65cb76b8dd56502a5687bfbd,001,33,Female,British,Bachelors Degree,2024-03-06_14h37.00.863,CRL1h,2023.2.3,MacIntel,59.84082341,65e67470ae2fbf2172c317b2,65e87d7142c856deba19f145,,,,,,,,,,,780.5019,1.3,781.8045,781.8046,782.4879,left,1,0.68,,782.4879,783.4766,2,0,32,12,1,total,2,images/Ex13.jpg,left,reversed,hard,3,,,,,
,,,,,65cb76b8dd56502a5687bfbd,001,33,Female,British,Bachelors Degree,2024-03-06_14h37.00.863,CRL1h,2023.2.3,MacIntel,59.84082341,65e67470ae2fbf2172c317b2,65e87d7142c856deba19f145,,,,,,,,,,,783.477,0.9,784.378,784.378,786.3504,left,1,1.9657,,786.3505,787.3513,2,1,33,14,1,total,2,images/Ex15.jpg,left,reversed,hard,3,,,,,
,,,,,65cb76b8dd56502a5687bfbd,001,33,Female,British,Bachelors Degree,2024-03-06_14h37.00.863,CRL1h,2023.2.3,MacIntel,59.84082341,65e67470ae2fbf2172c317b2,65e87d7142c856deba19f145,,,,,,,,,,,787.3516,1,788.3537,788.3537,789.4569,right,0,1.0983,,789.457,790.4599,2,2,34,5,1,total,2,images/Ex14.jpg,left,reversed,hard,3,,,,,
,,,,,65cb76b8dd56502a5687bfbd,001,33,Female,British,Bachelors Degree,2024-03-06_14h37.00.863,CRL1h,2023.2.3,MacIntel,59.84082341,65e67470ae2fbf2172c317b2,65e87d7142c856deba19f145,,,,,,,,,,,790.4606,0.9,791.3643,791.3643,792.0629,left,0,0.6968,,792.063,793.0514,2,3,35,8,1,total,2,images/Ex9.jpg,right,reversed,hard,3,,,,,
,,,,,65cb76b8dd56502a5687bfbd,001,33,Female,British,Bachelors Degree,2024-03-06_14h37.00.863,CRL1h,2023.2.3,MacIntel,59.84082341,65e67470ae2fbf2172c317b2,65e87d7142c856deba19f145,,,,,,,,,,,793.052,1.2,794.2551,794.2552,795.9924,left,0,1.7272,,795.9924,796.996,2,4,36,2,1,total,2,images/Ex11.jpg,right,reversed,hard,3,,,,,
,,,,,65cb76b8dd56502a5687bfbd,001,33,Female,British,Bachelors Degree,2024-03-06_14h37.00.863,CRL1h,2023.2.3,MacIntel,59.84082341,65e67470ae2fbf2172c317b2,65e87d7142c856deba19f145,,,,,,,,,,,796.9968,0.8,797.7979,797.798,799.1683,right,0,1.3597,,799.1685,800.1678,2,5,37,7,1,total,2,images/Ex16.jpg,left,reversed,hard,3,,,,,
,,,,,65cb76b8dd56502a5687bfbd,001,33,Female,British,Bachelors Degree,2024-03-06_14h37.00.863,CRL1h,2023.2.3,MacIntel,59.84082341,65e67470ae2fbf2172c317b2,65e87d7142c856deba19f145,,,,,,,,,,,800.1682,1.5,801.6588,801.6588,802.6958,left,0,1.0302,,802.6958,803.6955,2,6,38,10,1,total,2,images/Ex11.jpg,right,reversed,hard,3,,,,,
,,,,,65cb76b8dd56502a5687bfbd,001,33,Female,British,Bachelors Degree,2024-03-06_14h37.00.863,CRL1h,2023.2.3,MacIntel,59.84082341,65e67470ae2fbf2172c317b2,65e87d7142c856deba19f145,,,,,,,,,,,803.6958,0.8,804.5083,804.5083,805.351,right,1,0.8323,,805.3511,806.3545,2,7,39,0,1,total,2,images/Ex9.jpg,right,reversed,hard,3,,,,,
,,,,,65cb76b8dd56502a5687bfbd,001,33,Female,British,Bachelors Degree,2024-03-06_14h37.00.863,CRL1h,2023.2.3,MacIntel,59.84082341,65e67470ae2fbf2172c317b2,65e87d7142c856deba19f145,,,,,,,,,,,806.3549,0.7,807.0554,807.056,808.2756,right,1,1.2155,,808.2756,809.2763,2,8,40,3,1,total,2,images/Ex12.jpg,right,reversed,hard,3,,,,,
,,,,,65cb76b8dd56502a5687bfbd,001,33,Female,British,Bachelors Degree,2024-03-06_14h37.00.863,CRL1h,2023.2.3,MacIntel,59.84082341,65e67470ae2fbf2172c317b2,65e87d7142c856deba19f145,,,,,,,,,,,809.2767,0.9,810.1792,810.1792,810.8999,right,0,0.71,,810.8999,811.8999,2,9,41,4,1,total,2,images/Ex13.jpg,left,reversed,hard,3,,,,,
,,,,,65cb76b8dd56502a5687bfbd,001,33,Female,British,Bachelors Degree,2024-03-06_14h37.00.863,CRL1h,2023.2.3,MacIntel,59.84082341,65e67470ae2fbf2172c317b2,65e87d7142c856deba19f145,,,,,,,,,,,811.9003,1.1,813.0025,813.0026,814.0096,right,1,0.9941,,814.0096,815.0094,2,10,42,11,1,total,2,images/Ex12.jpg,right,reversed,hard,3,,,,,
,,,,,65cb76b8dd56502a5687bfbd,001,33,Female,British,Bachelors Degree,2024-03-06_14h37.00.863,CRL1h,2023.2.3,MacIntel,59.84082341,65e67470ae2fbf2172c317b2,65e87d7142c856deba19f145,,,,,,,,,,,815.0102,0.9,815.9108,815.9109,817.9681,left,1,2.0514,,817.9682,818.9696,2,11,43,6,1,total,2,images/Ex15.jpg,left,reversed,hard,3,,,,,
,,,,,65cb76b8dd56502a5687bfbd,001,33,Female,British,Bachelors Degree,2024-03-06_14h37.00.863,CRL1h,2023.2.3,MacIntel,59.84082341,65e67470ae2fbf2172c317b2,65e87d7142c856deba19f145,,,,,,,,,,,818.97,0.8,819.7699,819.7699,821.0914,right,1,1.3154,,821.0914,822.0949,2,12,44,9,1,total,2,images/Ex10.jpg,right,reversed,hard,3,,,,,
,,,,,65cb76b8dd56502a5687bfbd,001,33,Female,British,Bachelors Degree,2024-03-06_14h37.00.863,CRL1h,2023.2.3,MacIntel,59.84082341,65e67470ae2fbf2172c317b2,65e87d7142c856deba19f145,,,,,,,,,,,822.0957,1.1,823.1967,823.1968,824.1831,left,1,0.9803,,824.1832,825.1848,2,13,45,13,1,total,2,images/Ex14.jpg,left,reversed,hard,3,,,,,
,,,,,65cb76b8dd56502a5687bfbd,001,33,Female,British,Bachelors Degree,2024-03-06_14h37.00.863,CRL1h,2023.2.3,MacIntel,59.84082341,65e67470ae2fbf2172c317b2,65e87d7142c856deba19f145,,,,,,,,,,,825.1851,0.9,826.0903,826.0903,827.2581,right,0,1.1595,,827.2581,828.2605,2,14,46,15,1,total,2,images/Ex16.jpg,left,reversed,hard,3,,,,,
,,,,,65cb76b8dd56502a5687bfbd,001,33,Female,British,Bachelors Degree,2024-03-06_14h37.00.863,CRL1h,2023.2.3,MacIntel,59.84082341,65e67470ae2fbf2172c317b2,65e87d7142c856deba19f145,,,,,,,,,,,828.2608,0.8,829.0631,829.0631,829.7986,left,0,0.7289,,829.7987,830.8017,2,15,47,1,1,total,2,images/Ex10.jpg,right,reversed,hard,3,,,,,
,,,,,65cb76b8dd56502a5687bfbd,001,33,Female,British,Bachelors Degree,2024-03-06_14h37.00.863,CRL1h,2023.2.3,MacIntel,59.84082341,65e67470ae2fbf2172c317b2,65e87d7142c856deba19f145,,,,,,,,,,,830.8026,1.1,831.9025,831.9025,834.1433,right,0,2.2327,,834.1434,835.1471,3,0,48,5,1,total,2,images/Ex14.jpg,left,reversed,hard,3,,,,,
,,,,,65cb76b8dd56502a5687bfbd,001,33,Female,British,Bachelors Degree,2024-03-06_14h37.00.863,CRL1h,2023.2.3,MacIntel,59.84082341,65e67470ae2fbf2172c317b2,65e87d7142c856deba19f145,,,,,,,,,,,835.1475,0.6,835.7545,835.7545,836.9705,left,1,1.2059,,836.9705,837.9705,3,1,49,6,1,total,2,images/Ex15.jpg,left,reversed,hard,3,,,,,
,,,,,65cb76b8dd56502a5687bfbd,001,33,Female,British,Bachelors Degree,2024-03-06_14h37.00.863,CRL1h,2023.2.3,MacIntel,59.84082341,65e67470ae2fbf2172c317b2,65e87d7142c856deba19f145,,,,,,,,,,,837.9709,1.4,839.3594,839.3594,840.2271,right,1,0.8562,,840.2273,841.2312,3,2,50,3,1,total,2,images/Ex12.jpg,right,reversed,hard,3,,,,,
,,,,,65cb76b8dd56502a5687bfbd,001,33,Female,British,Bachelors Degree,2024-03-06_14h37.00.863,CRL1h,2023.2.3,MacIntel,59.84082341,65e67470ae2fbf2172c317b2,65e87d7142c856deba19f145,,,,,,,,,,,841.2316,0.7,841.9311,841.9326,842.8176,right,1,0.8733,,842.8176,843.818,3,3,51,8,1,total,2,images/Ex9.jpg,right,reversed,hard,3,,,,,
,,,,,65cb76b8dd56502a5687bfbd,001,33,Female,British,Bachelors Degree,2024-03-06_14h37.00.863,CRL1h,2023.2.3,MacIntel,59.84082341,65e67470ae2fbf2172c317b2,65e87d7142c856deba19f145,,,,,,,,,,,843.8183,0.5,844.3214,844.3215,845.1408,left,1,0.8179,,845.1408,846.1413,3,4,52,14,1,total,2,images/Ex15.jpg,left,reversed,hard,3,,,,,
,,,,,65cb76b8dd56502a5687bfbd,001,33,Female,British,Bachelors Degree,2024-03-06_14h37.00.863,CRL1h,2023.2.3,MacIntel,59.84082341,65e67470ae2fbf2172c317b2,65e87d7142c856deba19f145,,,,,,,,,,,846.1416,0.7,846.8488,846.8489,847.8306,right,0,0.9757,,847.8306,848.8317,3,5,53,15,1,total,2,images/Ex16.jpg,left,reversed,hard,3,,,,,
,,,,,65cb76b8dd56502a5687bfbd,001,33,Female,British,Bachelors Degree,2024-03-06_14h37.00.863,CRL1h,2023.2.3,MacIntel,59.84082341,65e67470ae2fbf2172c317b2,65e87d7142c856deba19f145,,,,,,,,,,,848.8323,0.8,849.633,849.6331,850.5539,right,1,0.9121,,850.5539,851.5548,3,6,54,9,1,total,2,images/Ex10.jpg,right,reversed,hard,3,,,,,
,,,,,65cb76b8dd56502a5687bfbd,001,33,Female,British,Bachelors Degree,2024-03-06_14h37.00.863,CRL1h,2023.2.3,MacIntel,59.84082341,65e67470ae2fbf2172c317b2,65e87d7142c856deba19f145,,,,,,,,,,,851.5553,1.4,852.9446,852.9446,853.5967,left,1,0.645,,853.5968,854.5991,3,7,55,7,1,total,2,images/Ex16.jpg,left,reversed,hard,3,,,,,
,,,,,65cb76b8dd56502a5687bfbd,001,33,Female,British,Bachelors Degree,2024-03-06_14h37.00.863,CRL1h,2023.2.3,MacIntel,59.84082341,65e67470ae2fbf2172c317b2,65e87d7142c856deba19f145,,,,,,,,,,,854.5995,1.2,855.8014,855.8014,856.8235,left,1,1.0137,,856.8236,857.8247,3,8,56,12,1,total,2,images/Ex13.jpg,left,reversed,hard,3,,,,,
,,,,,65cb76b8dd56502a5687bfbd,001,33,Female,British,Bachelors Degree,2024-03-06_14h37.00.863,CRL1h,2023.2.3,MacIntel,59.84082341,65e67470ae2fbf2172c317b2,65e87d7142c856deba19f145,,,,,,,,,,,857.825,0.6,858.4246,858.4247,859.572,left,1,1.1461,,859.572,860.5651,3,9,57,13,1,total,2,images/Ex14.jpg,left,reversed,hard,3,,,,,
,,,,,65cb76b8dd56502a5687bfbd,001,33,Female,British,Bachelors Degree,2024-03-06_14h37.00.863,CRL1h,2023.2.3,MacIntel,59.84082341,65e67470ae2fbf2172c317b2,65e87d7142c856deba19f145,,,,,,,,,,,860.5664,0.9,861.4682,861.4682,862.084,left,1,0.6106,,862.084,863.0856,3,10,58,4,1,total,2,images/Ex13.jpg,left,reversed,hard,3,,,,,
,,,,,65cb76b8dd56502a5687bfbd,001,33,Female,British,Bachelors Degree,2024-03-06_14h37.00.863,CRL1h,2023.2.3,MacIntel,59.84082341,65e67470ae2fbf2172c317b2,65e87d7142c856deba19f145,,,,,,,,,,,863.0863,1.2,864.2744,864.2744,865.3097,right,1,1.029,,865.3097,866.3123,3,11,59,0,1,total,2,images/Ex9.jpg,right,reversed,hard,3,,,,,
,,,,,65cb76b8dd56502a5687bfbd,001,33,Female,British,Bachelors Degree,2024-03-06_14h37.00.863,CRL1h,2023.2.3,MacIntel,59.84082341,65e67470ae2fbf2172c317b2,65e87d7142c856deba19f145,,,,,,,,,,,866.3127,0.8,867.1151,867.1153,871.1094,right,1,3.981,,871.1095,872.1096,3,12,60,11,1,total,2,images/Ex12.jpg,right,reversed,hard,3,,,,,
,,,,,65cb76b8dd56502a5687bfbd,001,33,Female,British,Bachelors Degree,2024-03-06_14h37.00.863,CRL1h,2023.2.3,MacIntel,59.84082341,65e67470ae2fbf2172c317b2,65e87d7142c856deba19f145,,,,,,,,,,,872.1101,1.1,873.2164,873.2165,875.236,right,1,2.0119,,875.2361,876.2408,3,13,61,10,1,total,2,images/Ex11.jpg,right,reversed,hard,3,,,,,
,,,,,65cb76b8dd56502a5687bfbd,001,33,Female,British,Bachelors Degree,2024-03-06_14h37.00.863,CRL1h,2023.2.3,MacIntel,59.84082341,65e67470ae2fbf2172c317b2,65e87d7142c856deba19f145,,,,,,,,,,,876.2414,0.5,876.7411,876.7411,877.5946,right,1,0.8416,,877.5948,878.5975,3,14,62,1,1,total,2,images/Ex10.jpg,right,reversed,hard,3,,,,,
,,,,,65cb76b8dd56502a5687bfbd,001,33,Female,British,Bachelors Degree,2024-03-06_14h37.00.863,CRL1h,2023.2.3,MacIntel,59.84082341,65e67470ae2fbf2172c317b2,65e87d7142c856deba19f145,,,,,,,,,,,878.598,1.3,879.8976,879.8976,880.8026,right,1,0.8948,,880.8026,881.8037,3,15,63,2,1,total,2,images/Ex11.jpg,right,reversed,hard,3,,,,,
,,,,,65cb76b8dd56502a5687bfbd,001,33,Female,British,Bachelors Degree,2024-03-06_14h37.00.863,CRL1h,2023.2.3,MacIntel,59.84082341,65e67470ae2fbf2172c317b2,65e87d7142c856deba19f145,,,,,,881.8047,937.2213,space,55.4034,,937.2258,0.5,937.7213,937.7214,939.5424,left,1,1.8137,,939.5425,940.5462,0,0,0,3,1,partial,1,images/Ex4.jpg,left,training,hard,3,,,,,
,,,,,65cb76b8dd56502a5687bfbd,001,33,Female,British,Bachelors Degree,2024-03-06_14h37.00.863,CRL1h,2023.2.3,MacIntel,59.84082341,65e67470ae2fbf2172c317b2,65e87d7142c856deba19f145,,,,,,,,,,,940.5468,1,941.5493,941.5494,942.5017,right,1,0.9424,,942.5017,943.5028,0,1,1,15,1,partial,1,images/Ex8.jpg,right,training,hard,3,,,,,
,,,,,65cb76b8dd56502a5687bfbd,001,33,Female,British,Bachelors Degree,2024-03-06_14h37.00.863,CRL1h,2023.2.3,MacIntel,59.84082341,65e67470ae2fbf2172c317b2,65e87d7142c856deba19f145,,,,,,,,,,,943.5032,1.5,944.9914,944.9915,947.1133,left,0,2.1141,,947.1133,948.1147,0,2,2,4,1,partial,1,images/Ex5.jpg,right,training,hard,3,,,,,
,,,,,65cb76b8dd56502a5687bfbd,001,33,Female,British,Bachelors Degree,2024-03-06_14h37.00.863,CRL1h,2023.2.3,MacIntel,59.84082341,65e67470ae2fbf2172c317b2,65e87d7142c856deba19f145,,,,,,,,,,,948.1155,1.4,949.5138,949.5138,950.2711,left,1,0.7508,,950.2711,951.2726,0,3,3,10,1,partial,1,images/Ex3.jpg,left,training,hard,3,,,,,
,,,,,65cb76b8dd56502a5687bfbd,001,33,Female,British,Bachelors Degree,2024-03-06_14h37.00.863,CRL1h,2023.2.3,MacIntel,59.84082341,65e67470ae2fbf2172c317b2,65e87d7142c856deba19f145,,,,,,,,,,,951.273,0.9,952.175,952.175,952.9612,right,1,0.7808,,952.9613,953.963,0,4,4,7,1,partial,1,images/Ex8.jpg,right,training,hard,3,,,,,
,,,,,65cb76b8dd56502a5687bfbd,001,33,Female,British,Bachelors Degree,2024-03-06_14h37.00.863,CRL1h,2023.2.3,MacIntel,59.84082341,65e67470ae2fbf2172c317b2,65e87d7142c856deba19f145,,,,,,,,,,,953.9633,0.7,954.6662,954.6663,955.6676,right,1,0.997,,955.6677,956.6703,0,5,5,5,1,partial,1,images/Ex6.jpg,right,training,hard,3,,,,,
,,,,,65cb76b8dd56502a5687bfbd,001,33,Female,British,Bachelors Degree,2024-03-06_14h37.00.863,CRL1h,2023.2.3,MacIntel,59.84082341,65e67470ae2fbf2172c317b2,65e87d7142c856deba19f145,,,,,,,,,,,956.6716,1.1,957.7729,957.7729,958.5927,left,0,0.8089,,958.5928,959.5936,0,6,6,14,1,partial,1,images/Ex7.jpg,right,training,hard,3,,,,,
,,,,,65cb76b8dd56502a5687bfbd,001,33,Female,British,Bachelors Degree,2024-03-06_14h37.00.863,CRL1h,2023.2.3,MacIntel,59.84082341,65e67470ae2fbf2172c317b2,65e87d7142c856deba19f145,,,,,,,,,,,959.594,0.7,960.2963,960.2963,961.0483,right,1,0.748,,961.0483,962.0365,0,7,7,12,1,partial,1,images/Ex5.jpg,right,training,hard,3,,,,,
,,,,,65cb76b8dd56502a5687bfbd,001,33,Female,British,Bachelors Degree,2024-03-06_14h37.00.863,CRL1h,2023.2.3,MacIntel,59.84082341,65e67470ae2fbf2172c317b2,65e87d7142c856deba19f145,,,,,,,,,,,962.0369,1.1,963.1365,963.1365,963.8745,left,1,0.7282,,963.8746,964.8767,0,8,8,8,1,partial,1,images/Ex1.jpg,left,training,hard,3,,,,,
,,,,,65cb76b8dd56502a5687bfbd,001,33,Female,British,Bachelors Degree,2024-03-06_14h37.00.863,CRL1h,2023.2.3,MacIntel,59.84082341,65e67470ae2fbf2172c317b2,65e87d7142c856deba19f145,,,,,,,,,,,964.8772,1.2,966.082,966.082,966.7802,right,1,0.6903,,966.7802,967.7847,0,9,9,6,1,partial,1,images/Ex7.jpg,right,training,hard,3,,,,,
,,,,,65cb76b8dd56502a5687bfbd,001,33,Female,British,Bachelors Degree,2024-03-06_14h37.00.863,CRL1h,2023.2.3,MacIntel,59.84082341,65e67470ae2fbf2172c317b2,65e87d7142c856deba19f145,,,,,,,,,,,967.7851,1.2,968.9864,968.9864,969.7569,left,1,0.7594,,969.757,970.7597,0,10,10,11,1,partial,1,images/Ex4.jpg,left,training,hard,3,,,,,
,,,,,65cb76b8dd56502a5687bfbd,001,33,Female,British,Bachelors Degree,2024-03-06_14h37.00.863,CRL1h,2023.2.3,MacIntel,59.84082341,65e67470ae2fbf2172c317b2,65e87d7142c856deba19f145,,,,,,,,,,,970.7603,1.4,972.162,972.162,973.3647,left,0,1.196,,973.3647,974.3664,0,11,11,13,1,partial,1,images/Ex6.jpg,right,training,hard,3,,,,,
,,,,,65cb76b8dd56502a5687bfbd,001,33,Female,British,Bachelors Degree,2024-03-06_14h37.00.863,CRL1h,2023.2.3,MacIntel,59.84082341,65e67470ae2fbf2172c317b2,65e87d7142c856deba19f145,,,,,,,,,,,974.3673,1.2,975.5554,975.5554,976.3419,right,0,0.7782,,976.342,977.3438,0,12,12,1,1,partial,1,images/Ex2.jpg,left,training,hard,3,,,,,
,,,,,65cb76b8dd56502a5687bfbd,001,33,Female,British,Bachelors Degree,2024-03-06_14h37.00.863,CRL1h,2023.2.3,MacIntel,59.84082341,65e67470ae2fbf2172c317b2,65e87d7142c856deba19f145,,,,,,,,,,,977.344,1.2,978.5463,978.5463,979.8643,right,0,1.3101,,979.8643,980.8531,0,13,13,2,1,partial,1,images/Ex3.jpg,left,training,hard,3,,,,,
,,,,,65cb76b8dd56502a5687bfbd,001,33,Female,British,Bachelors Degree,2024-03-06_14h37.00.863,CRL1h,2023.2.3,MacIntel,59.84082341,65e67470ae2fbf2172c317b2,65e87d7142c856deba19f145,,,,,,,,,,,980.8535,0.7,981.552,981.552,982.4575,left,1,0.8987,,982.4575,983.4576,0,14,14,9,1,partial,1,images/Ex2.jpg,left,training,hard,3,,,,,
,,,,,65cb76b8dd56502a5687bfbd,001,33,Female,British,Bachelors Degree,2024-03-06_14h37.00.863,CRL1h,2023.2.3,MacIntel,59.84082341,65e67470ae2fbf2172c317b2,65e87d7142c856deba19f145,,,,,,,,,,,983.458,1.1,984.5465,984.5465,985.4127,left,1,0.8567,,985.4128,986.4012,0,15,15,0,1,partial,1,images/Ex1.jpg,left,training,hard,3,,,,,
,,,,,65cb76b8dd56502a5687bfbd,001,33,Female,British,Bachelors Degree,2024-03-06_14h37.00.863,CRL1h,2023.2.3,MacIntel,59.84082341,65e67470ae2fbf2172c317b2,65e87d7142c856deba19f145,,,,,,,,,,,986.4017,0.5,986.9156,986.9156,987.786,left,1,0.8621,,987.786,988.7896,1,0,16,9,1,partial,1,images/Ex2.jpg,left,training,hard,3,,,,,
,,,,,65cb76b8dd56502a5687bfbd,001,33,Female,British,Bachelors Degree,2024-03-06_14h37.00.863,CRL1h,2023.2.3,MacIntel,59.84082341,65e67470ae2fbf2172c317b2,65e87d7142c856deba19f145,,,,,,,,,,,988.79,0.6,989.3921,989.3922,990.8799,left,1,1.4762,,990.8799,991.8809,1,1,17,3,1,partial,1,images/Ex4.jpg,left,training,hard,3,,,,,
,,,,,65cb76b8dd56502a5687bfbd,001,33,Female,British,Bachelors Degree,2024-03-06_14h37.00.863,CRL1h,2023.2.3,MacIntel,59.84082341,65e67470ae2fbf2172c317b2,65e87d7142c856deba19f145,,,,,,,,,,,991.8813,0.5,992.3838,992.3838,993.2854,left,1,0.9003,,993.2855,994.2882,1,2,18,2,1,partial,1,images/Ex3.jpg,left,training,hard,3,,,,,
,,,,,65cb76b8dd56502a5687bfbd,001,33,Female,British,Bachelors Degree,2024-03-06_14h37.00.863,CRL1h,2023.2.3,MacIntel,59.84082341,65e67470ae2fbf2172c317b2,65e87d7142c856deba19f145,,,,,,,,,,,994.2889,0.5,994.7883,994.7884,995.8934,right,0,1.0934,,995.8934,996.8939,1,3,19,8,1,partial,1,images/Ex1.jpg,left,training,hard,3,,,,,
,,,,,65cb76b8dd56502a5687bfbd,001,33,Female,British,Bachelors Degree,2024-03-06_14h37.00.863,CRL1h,2023.2.3,MacIntel,59.84082341,65e67470ae2fbf2172c317b2,65e87d7142c856deba19f145,,,,,,,,,,,996.8944,0.5,997.3967,997.3969,998.533,right,1,1.129,,998.533,999.5354,1,4,20,15,1,partial,1,images/Ex8.jpg,right,training,hard,3,,,,,
,,,,,65cb76b8dd56502a5687bfbd,001,33,Female,British,Bachelors Degree,2024-03-06_14h37.00.863,CRL1h,2023.2.3,MacIntel,59.84082341,65e67470ae2fbf2172c317b2,65e87d7142c856deba19f145,,,,,,,,,,,999.5361,1.1,1000.6387,1000.6387,1002.1601,left,1,1.5106,,1002.1601,1003.1634,1,5,21,11,1,partial,1,images/Ex4.jpg,left,training,hard,3,,,,,
,,,,,65cb76b8dd56502a5687bfbd,001,33,Female,British,Bachelors Degree,2024-03-06_14h37.00.863,CRL1h,2023.2.3,MacIntel,59.84082341,65e67470ae2fbf2172c317b2,65e87d7142c856deba19f145,,,,,,,,,,,1003.1638,0.9,1004.0629,1004.0629,1005.3346,right,1,1.2676,,1005.3348,1006.339,1,6,22,6,1,partial,1,images/Ex7.jpg,right,training,hard,3,,,,,
,,,,,65cb76b8dd56502a5687bfbd,001,33,Female,British,Bachelors Degree,2024-03-06_14h37.00.863,CRL1h,2023.2.3,MacIntel,59.84082341,65e67470ae2fbf2172c317b2,65e87d7142c856deba19f145,,,,,,,,,,,1006.3394,0.6,1006.937,1006.937,1007.7903,right,1,0.8443,,1007.7903,1008.7944,1,7,23,7,1,partial,1,images/Ex8.jpg,right,training,hard,3,,,,,
,,,,,65cb76b8dd56502a5687bfbd,001,33,Female,British,Bachelors Degree,2024-03-06_14h37.00.863,CRL1h,2023.2.3,MacIntel,59.84082341,65e67470ae2fbf2172c317b2,65e87d7142c856deba19f145,,,,,,,,,,,1008.7948,1.4,1010.199,1010.199,1010.8815,left,0,0.6733,,1010.8815,1011.8853,1,8,24,13,1,partial,1,images/Ex6.jpg,right,training,hard,3,,,,,
,,,,,65cb76b8dd56502a5687bfbd,001,33,Female,British,Bachelors Degree,2024-03-06_14h37.00.863,CRL1h,2023.2.3,MacIntel,59.84082341,65e67470ae2fbf2172c317b2,65e87d7142c856deba19f145,,,,,,,,,,,1011.8859,1.3,1013.1765,1013.1765,1014.2259,right,1,1.0423,,1014.2259,1015.2266,1,9,25,14,1,partial,1,images/Ex7.jpg,right,training,hard,3,,,,,
,,,,,65cb76b8dd56502a5687bfbd,001,33,Female,British,Bachelors Degree,2024-03-06_14h37.00.863,CRL1h,2023.2.3,MacIntel,59.84082341,65e67470ae2fbf2172c317b2,65e87d7142c856deba19f145,,,,,,,,,,,1015.2276,1.4,1016.6292,1016.6292,1019.5719,right,1,2.9332,,1019.5721,1020.5747,1,10,26,5,1,partial,1,images/Ex6.jpg,right,training,hard,3,,,,,
,,,,,65cb76b8dd56502a5687bfbd,001,33,Female,British,Bachelors Degree,2024-03-06_14h37.00.863,CRL1h,2023.2.3,MacIntel,59.84082341,65e67470ae2fbf2172c317b2,65e87d7142c856deba19f145,,,,,,,,,,,1020.5758,1.3,1021.8793,1021.8794,1022.9315,left,1,1.042,,1022.9316,1023.9334,1,11,27,10,1,partial,1,images/Ex3.jpg,left,training,hard,3,,,,,
,,,,,65cb76b8dd56502a5687bfbd,001,33,Female,British,Bachelors Degree,2024-03-06_14h37.00.863,CRL1h,2023.2.3,MacIntel,59.84082341,65e67470ae2fbf2172c317b2,65e87d7142c856deba19f145,,,,,,,,,,,1023.9337,1.3,1025.2233,1025.2234,1026.1753,right,0,0.9403,,1026.1759,1027.1783,1,12,28,1,1,partial,1,images/Ex2.jpg,left,training,hard,3,,,,,
,,,,,65cb76b8dd56502a5687bfbd,001,33,Female,British,Bachelors Degree,2024-03-06_14h37.00.863,CRL1h,2023.2.3,MacIntel,59.84082341,65e67470ae2fbf2172c317b2,65e87d7142c856deba19f145,,,,,,,,,,,1027.1788,0.6,1027.7769,1027.7769,1028.9991,left,1,1.2137,,1028.9991,1030,1,13,29,0,1,partial,1,images/Ex1.jpg,left,training,hard,3,,,,,
,,,,,65cb76b8dd56502a5687bfbd,001,33,Female,British,Bachelors Degree,2024-03-06_14h37.00.863,CRL1h,2023.2.3,MacIntel,59.84082341,65e67470ae2fbf2172c317b2,65e87d7142c856deba19f145,,,,,,,,,,,1030.0009,1.4,1031.4051,1031.4051,1033.0065,right,1,1.5995,,1033.0066,1033.9944,1,14,30,12,1,partial,1,images/Ex5.jpg,right,training,hard,3,,,,,
,,,,,65cb76b8dd56502a5687bfbd,001,33,Female,British,Bachelors Degree,2024-03-06_14h37.00.863,CRL1h,2023.2.3,MacIntel,59.84082341,65e67470ae2fbf2172c317b2,65e87d7142c856deba19f145,,,,,,,,,,,1033.9948,0.8,1034.7965,1034.7965,1035.3477,right,1,0.5487,,1035.3477,1036.3485,1,15,31,4,1,partial,1,images/Ex5.jpg,right,training,hard,3,,,,,
,,,,,65cb76b8dd56502a5687bfbd,001,33,Female,British,Bachelors Degree,2024-03-06_14h37.00.863,CRL1h,2023.2.3,MacIntel,59.84082341,65e67470ae2fbf2172c317b2,65e87d7142c856deba19f145,,,,,,,,,,,1036.3489,0.9,1037.2519,1037.2519,1037.854,right,1,0.5913,,1037.854,1038.8565,2,0,32,12,1,partial,1,images/Ex5.jpg,right,training,hard,3,,,,,
,,,,,65cb76b8dd56502a5687bfbd,001,33,Female,British,Bachelors Degree,2024-03-06_14h37.00.863,CRL1h,2023.2.3,MacIntel,59.84082341,65e67470ae2fbf2172c317b2,65e87d7142c856deba19f145,,,,,,,,,,,1038.8568,0.9,1039.7599,1039.7601,1041.4812,right,0,1.7109,,1041.4816,1042.4895,2,1,33,8,1,partial,1,images/Ex1.jpg,left,training,hard,3,,,,,
,,,,,65cb76b8dd56502a5687bfbd,001,33,Female,British,Bachelors Degree,2024-03-06_14h37.00.863,CRL1h,2023.2.3,MacIntel,59.84082341,65e67470ae2fbf2172c317b2,65e87d7142c856deba19f145,,,,,,,,,,,1042.49,1.4,1043.8865,1043.8865,1045.39,right,1,1.4948,,1045.39,1046.3777,2,2,34,5,1,partial,1,images/Ex6.jpg,right,training,hard,3,,,,,
,,,,,65cb76b8dd56502a5687bfbd,001,33,Female,British,Bachelors Degree,2024-03-06_14h37.00.863,CRL1h,2023.2.3,MacIntel,59.84082341,65e67470ae2fbf2172c317b2,65e87d7142c856deba19f145,,,,,,,,,,,1046.3781,0.5,1046.8776,1046.8776,1047.5474,right,1,0.6607,,1047.5476,1048.5504,2,3,35,13,1,partial,1,images/Ex6.jpg,right,training,hard,3,,,,,
,,,,,65cb76b8dd56502a5687bfbd,001,33,Female,British,Bachelors Degree,2024-03-06_14h37.00.863,CRL1h,2023.2.3,MacIntel,59.84082341,65e67470ae2fbf2172c317b2,65e87d7142c856deba19f145,,,,,,,,,,,1048.5508,1.4,1049.9527,1049.9527,1050.921,left,1,0.9661,,1050.9211,1051.9249,2,4,36,0,1,partial,1,images/Ex1.jpg,left,training,hard,3,,,,,
,,,,,65cb76b8dd56502a5687bfbd,001,33,Female,British,Bachelors Degree,2024-03-06_14h37.00.863,CRL1h,2023.2.3,MacIntel,59.84082341,65e67470ae2fbf2172c317b2,65e87d7142c856deba19f145,,,,,,,,,,,1051.9254,0.6,1052.5196,1052.5196,1053.5276,left,1,1.0034,,1053.5276,1054.5161,2,5,37,11,1,partial,1,images/Ex4.jpg,left,training,hard,3,,,,,
,,,,,65cb76b8dd56502a5687bfbd,001,33,Female,British,Bachelors Degree,2024-03-06_14h37.00.863,CRL1h,2023.2.3,MacIntel,59.84082341,65e67470ae2fbf2172c317b2,65e87d7142c856deba19f145,,,,,,,,,,,1054.5164,0.9,1055.4159,1055.416,1057.0874,right,0,1.6632,,1057.0874,1058.0758,2,6,38,1,1,partial,1,images/Ex2.jpg,left,training,hard,3,,,,,
,,,,,65cb76b8dd56502a5687bfbd,001,33,Female,British,Bachelors Degree,2024-03-06_14h37.00.863,CRL1h,2023.2.3,MacIntel,59.84082341,65e67470ae2fbf2172c317b2,65e87d7142c856deba19f145,,,,,,,,,,,1058.0761,1.2,1059.2777,1059.2777,1059.8293,left,1,0.5466,,1059.8293,1060.8315,2,7,39,9,1,partial,1,images/Ex2.jpg,left,training,hard,3,,,,,
,,,,,65cb76b8dd56502a5687bfbd,001,33,Female,British,Bachelors Degree,2024-03-06_14h37.00.863,CRL1h,2023.2.3,MacIntel,59.84082341,65e67470ae2fbf2172c317b2,65e87d7142c856deba19f145,,,,,,,,,,,1060.832,0.8,1061.6341,1061.6341,1062.6598,right,1,1.0239,,1062.6598,1063.6581,2,8,40,4,1,partial,1,images/Ex5.jpg,right,training,hard,3,,,,,
,,,,,65cb76b8dd56502a5687bfbd,001,33,Female,British,Bachelors Degree,2024-03-06_14h37.00.863,CRL1h,2023.2.3,MacIntel,59.84082341,65e67470ae2fbf2172c317b2,65e87d7142c856deba19f145,,,,,,,,,,,1063.659,1.4,1065.0615,1065.0615,1066.1156,right,1,1.0413,,1066.1157,1067.117,2,9,41,15,1,partial,1,images/Ex8.jpg,right,training,hard,3,,,,,
,,,,,65cb76b8dd56502a5687bfbd,001,33,Female,British,Bachelors Degree,2024-03-06_14h37.00.863,CRL1h,2023.2.3,MacIntel,59.84082341,65e67470ae2fbf2172c317b2,65e87d7142c856deba19f145,,,,,,,,,,,1067.1177,1.2,1068.3184,1068.3184,1069.857,right,1,1.5312,,1069.857,1070.8583,2,10,42,6,1,partial,1,images/Ex7.jpg,right,training,hard,3,,,,,
,,,,,65cb76b8dd56502a5687bfbd,001,33,Female,British,Bachelors Degree,2024-03-06_14h37.00.863,CRL1h,2023.2.3,MacIntel,59.84082341,65e67470ae2fbf2172c317b2,65e87d7142c856deba19f145,,,,,,,,,,,1070.8588,1.1,1071.9469,1071.947,1072.6962,left,1,0.7417,,1072.6962,1073.6984,2,11,43,3,1,partial,1,images/Ex4.jpg,left,training,hard,3,,,,,
,,,,,65cb76b8dd56502a5687bfbd,001,33,Female,British,Bachelors Degree,2024-03-06_14h37.00.863,CRL1h,2023.2.3,MacIntel,59.84082341,65e67470ae2fbf2172c317b2,65e87d7142c856deba19f145,,,,,,,,,,,1073.6994,0.9,1074.6019,1074.6019,1075.4419,left,1,0.8278,,1075.4419,1076.4424,2,12,44,2,1,partial,1,images/Ex3.jpg,left,training,hard,3,,,,,
,,,,,65cb76b8dd56502a5687bfbd,001,33,Female,British,Bachelors Degree,2024-03-06_14h37.00.863,CRL1h,2023.2.3,MacIntel,59.84082341,65e67470ae2fbf2172c317b2,65e87d7142c856deba19f145,,,,,,,,,,,1076.4438,1.5,1077.943,1077.9431,1078.7003,right,1,0.7558,,1078.7003,1079.701,2,13,45,14,1,partial,1,images/Ex7.jpg,right,training,hard,3,,,,,
,,,,,65cb76b8dd56502a5687bfbd,001,33,Female,British,Bachelors Degree,2024-03-06_14h37.00.863,CRL1h,2023.2.3,MacIntel,59.84082341,65e67470ae2fbf2172c317b2,65e87d7142c856deba19f145,,,,,,,,,,,1079.7018,0.6,1080.3008,1080.3009,1081.0864,right,1,0.7804,,1081.0864,1082.0898,2,14,46,7,1,partial,1,images/Ex8.jpg,right,training,hard,3,,,,,
,,,,,65cb76b8dd56502a5687bfbd,001,33,Female,British,Bachelors Degree,2024-03-06_14h37.00.863,CRL1h,2023.2.3,MacIntel,59.84082341,65e67470ae2fbf2172c317b2,65e87d7142c856deba19f145,,,,,,,,,,,1082.0903,1,1083.0911,1083.0911,1083.7773,left,1,0.6794,,1083.7773,1084.7801,2,15,47,10,1,partial,1,images/Ex3.jpg,left,training,hard,3,,,,,
,,,,,65cb76b8dd56502a5687bfbd,001,33,Female,British,Bachelors Degree,2024-03-06_14h37.00.863,CRL1h,2023.2.3,MacIntel,59.84082341,65e67470ae2fbf2172c317b2,65e87d7142c856deba19f145,,,,,,,,,,,1084.7812,1.3,1086.0829,1086.0829,1088.0212,left,1,1.9293,,1088.0212,1089.0258,3,0,48,1,1,partial,1,images/Ex2.jpg,left,training,hard,3,,,,,
,,,,,65cb76b8dd56502a5687bfbd,001,33,Female,British,Bachelors Degree,2024-03-06_14h37.00.863,CRL1h,2023.2.3,MacIntel,59.84082341,65e67470ae2fbf2172c317b2,65e87d7142c856deba19f145,,,,,,,,,,,1089.0262,1,1090.0259,1090.0261,1090.6975,left,1,0.6679,,1090.6975,1091.6964,3,1,49,2,1,partial,1,images/Ex3.jpg,left,training,hard,3,,,,,
,,,,,65cb76b8dd56502a5687bfbd,001,33,Female,British,Bachelors Degree,2024-03-06_14h37.00.863,CRL1h,2023.2.3,MacIntel,59.84082341,65e67470ae2fbf2172c317b2,65e87d7142c856deba19f145,,,,,,,,,,,1091.6967,1.4,1093.1008,1093.1008,1093.9535,right,1,0.8444,,1093.9535,1094.9564,3,2,50,4,1,partial,1,images/Ex5.jpg,right,training,hard,3,,,,,
,,,,,65cb76b8dd56502a5687bfbd,001,33,Female,British,Bachelors Degree,2024-03-06_14h37.00.863,CRL1h,2023.2.3,MacIntel,59.84082341,65e67470ae2fbf2172c317b2,65e87d7142c856deba19f145,,,,,,,,,,,1094.9571,0.9,1095.8579,1095.8579,1096.678,left,1,0.8113,,1096.678,1097.6819,3,3,51,8,1,partial,1,images/Ex1.jpg,left,training,hard,3,,,,,
,,,,,65cb76b8dd56502a5687bfbd,001,33,Female,British,Bachelors Degree,2024-03-06_14h37.00.863,CRL1h,2023.2.3,MacIntel,59.84082341,65e67470ae2fbf2172c317b2,65e87d7142c856deba19f145,,,,,,,,,,,1097.6821,0.6,1098.2808,1098.2808,1099.0365,left,1,0.7426,,1099.0365,1100.0372,3,4,52,10,1,partial,1,images/Ex3.jpg,left,training,hard,3,,,,,
,,,,,65cb76b8dd56502a5687bfbd,001,33,Female,British,Bachelors Degree,2024-03-06_14h37.00.863,CRL1h,2023.2.3,MacIntel,59.84082341,65e67470ae2fbf2172c317b2,65e87d7142c856deba19f145,,,,,,,,,,,1100.0381,0.5,1100.5378,1100.5379,1101.2909,right,1,0.7429,,1101.2909,1102.2925,3,5,53,6,1,partial,1,images/Ex7.jpg,right,training,hard,3,,,,,
,,,,,65cb76b8dd56502a5687bfbd,001,33,Female,British,Bachelors Degree,2024-03-06_14h37.00.863,CRL1h,2023.2.3,MacIntel,59.84082341,65e67470ae2fbf2172c317b2,65e87d7142c856deba19f145,,,,,,,,,,,1102.2932,1,1103.2949,1103.295,1103.9985,left,1,0.6931,,1103.9985,1105.0004,3,6,54,3,1,partial,1,images/Ex4.jpg,left,training,hard,3,,,,,
,,,,,65cb76b8dd56502a5687bfbd,001,33,Female,British,Bachelors Degree,2024-03-06_14h37.00.863,CRL1h,2023.2.3,MacIntel,59.84082341,65e67470ae2fbf2172c317b2,65e87d7142c856deba19f145,,,,,,,,,,,1105.0007,1,1106.0045,1106.0045,1106.9415,right,1,0.9358,,1106.9415,1107.9419,3,7,55,15,1,partial,1,images/Ex8.jpg,right,training,hard,3,,,,,
,,,,,65cb76b8dd56502a5687bfbd,001,33,Female,British,Bachelors Degree,2024-03-06_14h37.00.863,CRL1h,2023.2.3,MacIntel,59.84082341,65e67470ae2fbf2172c317b2,65e87d7142c856deba19f145,,,,,,,,,,,1107.9432,0.7,1108.6428,1108.6428,1111.3336,left,1,2.6878,,1111.3336,1112.3381,3,8,56,9,1,partial,1,images/Ex2.jpg,left,training,hard,3,,,,,
,,,,,65cb76b8dd56502a5687bfbd,001,33,Female,British,Bachelors Degree,2024-03-06_14h37.00.863,CRL1h,2023.2.3,MacIntel,59.84082341,65e67470ae2fbf2172c317b2,65e87d7142c856deba19f145,,,,,,,,,,,1112.3385,1.4,1113.7396,1113.7396,1114.4111,left,1,0.6607,,1114.4112,1115.4131,3,9,57,11,1,partial,1,images/Ex4.jpg,left,training,hard,3,,,,,
,,,,,65cb76b8dd56502a5687bfbd,001,33,Female,British,Bachelors Degree,2024-03-06_14h37.00.863,CRL1h,2023.2.3,MacIntel,59.84082341,65e67470ae2fbf2172c317b2,65e87d7142c856deba19f145,,,,,,,,,,,1115.4135,1.2,1116.6164,1116.6164,1117.3671,right,1,0.7413,,1117.3671,1118.3689,3,10,58,12,1,partial,1,images/Ex5.jpg,right,training,hard,3,,,,,
,,,,,65cb76b8dd56502a5687bfbd,001,33,Female,British,Bachelors Degree,2024-03-06_14h37.00.863,CRL1h,2023.2.3,MacIntel,59.84082341,65e67470ae2fbf2172c317b2,65e87d7142c856deba19f145,,,,,,,,,,,1118.3695,1.1,1119.4722,1119.4722,1120.3083,left,1,0.8252,,1120.3085,1121.3104,3,11,59,0,1,partial,1,images/Ex1.jpg,left,training,hard,3,,,,,
,,,,,65cb76b8dd56502a5687bfbd,001,33,Female,British,Bachelors Degree,2024-03-06_14h37.00.863,CRL1h,2023.2.3,MacIntel,59.84082341,65e67470ae2fbf2172c317b2,65e87d7142c856deba19f145,,,,,,,,,,,1121.311,1.4,1122.7178,1122.7179,1123.467,right,1,0.7387,,1123.467,1124.4698,3,12,60,7,1,partial,1,images/Ex8.jpg,right,training,hard,3,,,,,
,,,,,65cb76b8dd56502a5687bfbd,001,33,Female,British,Bachelors Degree,2024-03-06_14h37.00.863,CRL1h,2023.2.3,MacIntel,59.84082341,65e67470ae2fbf2172c317b2,65e87d7142c856deba19f145,,,,,,,,,,,1124.4701,1.1,1125.5702,1125.5703,1126.8093,right,1,1.2365,,1126.8093,1127.8109,3,13,61,5,1,partial,1,images/Ex6.jpg,right,training,hard,3,,,,,
,,,,,65cb76b8dd56502a5687bfbd,001,33,Female,British,Bachelors Degree,2024-03-06_14h37.00.863,CRL1h,2023.2.3,MacIntel,59.84082341,65e67470ae2fbf2172c317b2,65e87d7142c856deba19f145,,,,,,,,,,,1127.8113,0.8,1128.6157,1128.6157,1129.3308,right,1,0.7128,,1129.3308,1130.3348,3,14,62,13,1,partial,1,images/Ex6.jpg,right,training,hard,3,,,,,
,,,,,65cb76b8dd56502a5687bfbd,001,33,Female,British,Bachelors Degree,2024-03-06_14h37.00.863,CRL1h,2023.2.3,MacIntel,59.84082341,65e67470ae2fbf2172c317b2,65e87d7142c856deba19f145,,,,,,,,,,,1130.3351,1.2,1131.5242,1131.5242,1132.2728,right,1,0.7404,,1132.2728,1133.2767,3,15,63,14,1,partial,1,images/Ex7.jpg,right,training,hard,3,,,,,
,,,,,65cb76b8dd56502a5687bfbd,001,33,Female,British,Bachelors Degree,2024-03-06_14h37.00.863,CRL1h,2023.2.3,MacIntel,59.84082341,65e67470ae2fbf2172c317b2,65e87d7142c856deba19f145,,,,,,,,,,,1133.277,0.6,1133.8674,1133.8674,1134.5212,right,1,0.6509,,1134.5212,1135.5176,4,0,64,12,1,partial,1,images/Ex5.jpg,right,training,hard,3,,,,,
,,,,,65cb76b8dd56502a5687bfbd,001,33,Female,British,Bachelors Degree,2024-03-06_14h37.00.863,CRL1h,2023.2.3,MacIntel,59.84082341,65e67470ae2fbf2172c317b2,65e87d7142c856deba19f145,,,,,,,,,,,1135.5179,0.8,1136.3186,1136.3186,1136.8873,right,1,0.5568,,1136.8873,1137.8882,4,1,65,4,1,partial,1,images/Ex5.jpg,right,training,hard,3,,,,,
,,,,,65cb76b8dd56502a5687bfbd,001,33,Female,British,Bachelors Degree,2024-03-06_14h37.00.863,CRL1h,2023.2.3,MacIntel,59.84082341,65e67470ae2fbf2172c317b2,65e87d7142c856deba19f145,,,,,,,,,,,1137.8886,1.1,1138.9926,1138.9927,1139.7445,right,1,0.7409,,1139.7446,1140.7475,4,2,66,13,1,partial,1,images/Ex6.jpg,right,training,hard,3,,,,,
,,,,,65cb76b8dd56502a5687bfbd,001,33,Female,British,Bachelors Degree,2024-03-06_14h37.00.863,CRL1h,2023.2.3,MacIntel,59.84082341,65e67470ae2fbf2172c317b2,65e87d7142c856deba19f145,,,,,,,,,,,1140.7478,1,1141.7479,1141.7479,1142.514,left,1,0.7412,,1142.514,1143.5043,4,3,67,3,1,partial,1,images/Ex4.jpg,left,training,hard,3,,,,,
,,,,,65cb76b8dd56502a5687bfbd,001,33,Female,British,Bachelors Degree,2024-03-06_14h37.00.863,CRL1h,2023.2.3,MacIntel,59.84082341,65e67470ae2fbf2172c317b2,65e87d7142c856deba19f145,,,,,,,,,,,1143.5048,1.4,1144.9082,1144.9082,1145.5249,right,1,0.6125,,1145.5249,1146.5279,4,4,68,14,1,partial,1,images/Ex7.jpg,right,training,hard,3,,,,,
,,,,,65cb76b8dd56502a5687bfbd,001,33,Female,British,Bachelors Degree,2024-03-06_14h37.00.863,CRL1h,2023.2.3,MacIntel,59.84082341,65e67470ae2fbf2172c317b2,65e87d7142c856deba19f145,,,,,,,,,,,1146.5287,1.2,1147.7306,1147.7306,1148.4164,right,1,0.6749,,1148.4165,1149.419,4,5,69,7,1,partial,1,images/Ex8.jpg,right,training,hard,3,,,,,
,,,,,65cb76b8dd56502a5687bfbd,001,33,Female,British,Bachelors Degree,2024-03-06_14h37.00.863,CRL1h,2023.2.3,MacIntel,59.84082341,65e67470ae2fbf2172c317b2,65e87d7142c856deba19f145,,,,,,,,,,,1149.4202,1.2,1150.6216,1150.6217,1151.1743,right,1,0.5407,,1151.1743,1152.1745,4,6,70,15,1,partial,1,images/Ex8.jpg,right,training,hard,3,,,,,
,,,,,65cb76b8dd56502a5687bfbd,001,33,Female,British,Bachelors Degree,2024-03-06_14h37.00.863,CRL1h,2023.2.3,MacIntel,59.84082341,65e67470ae2fbf2172c317b2,65e87d7142c856deba19f145,,,,,,,,,,,1152.1749,0.8,1152.9781,1152.9782,1153.6292,left,1,0.644,,1153.6292,1154.6317,4,7,71,0,1,partial,1,images/Ex1.jpg,left,training,hard,3,,,,,
,,,,,65cb76b8dd56502a5687bfbd,001,33,Female,British,Bachelors Degree,2024-03-06_14h37.00.863,CRL1h,2023.2.3,MacIntel,59.84082341,65e67470ae2fbf2172c317b2,65e87d7142c856deba19f145,,,,,,,,,,,1154.6323,0.8,1155.433,1155.433,1155.9197,left,1,0.4786,,1155.9197,1156.9216,4,8,72,8,1,partial,1,images/Ex1.jpg,left,training,hard,3,,,,,
,,,,,65cb76b8dd56502a5687bfbd,001,33,Female,British,Bachelors Degree,2024-03-06_14h37.00.863,CRL1h,2023.2.3,MacIntel,59.84082341,65e67470ae2fbf2172c317b2,65e87d7142c856deba19f145,,,,,,,,,,,1156.922,0.9,1157.8241,1157.8242,1158.5936,left,1,0.7647,,1158.5936,1159.5962,4,9,73,10,1,partial,1,images/Ex3.jpg,left,training,hard,3,,,,,
,,,,,65cb76b8dd56502a5687bfbd,001,33,Female,British,Bachelors Degree,2024-03-06_14h37.00.863,CRL1h,2023.2.3,MacIntel,59.84082341,65e67470ae2fbf2172c317b2,65e87d7142c856deba19f145,,,,,,,,,,,1159.5965,1.1,1160.701,1160.701,1161.5219,right,1,0.81,,1161.5219,1162.5222,4,10,74,5,1,partial,1,images/Ex6.jpg,right,training,hard,3,,,,,
,,,,,65cb76b8dd56502a5687bfbd,001,33,Female,British,Bachelors Degree,2024-03-06_14h37.00.863,CRL1h,2023.2.3,MacIntel,59.84082341,65e67470ae2fbf2172c317b2,65e87d7142c856deba19f145,,,,,,,,,,,1162.5226,1.3,1163.823,1163.8231,1164.4612,left,1,0.6289,,1164.4613,1165.4626,4,11,75,2,1,partial,1,images/Ex3.jpg,left,training,hard,3,,,,,
,,,,,65cb76b8dd56502a5687bfbd,001,33,Female,British,Bachelors Degree,2024-03-06_14h37.00.863,CRL1h,2023.2.3,MacIntel,59.84082341,65e67470ae2fbf2172c317b2,65e87d7142c856deba19f145,,,,,,,,,,,1165.4629,0.9,1166.3655,1166.3656,1167.2501,left,1,0.8822,,1167.2504,1168.2521,4,12,76,1,1,partial,1,images/Ex2.jpg,left,training,hard,3,,,,,
,,,,,65cb76b8dd56502a5687bfbd,001,33,Female,British,Bachelors Degree,2024-03-06_14h37.00.863,CRL1h,2023.2.3,MacIntel,59.84082341,65e67470ae2fbf2172c317b2,65e87d7142c856deba19f145,,,,,,,,,,,1168.2529,0.6,1168.856,1168.856,1169.4562,right,1,0.5982,,1169.4562,1170.4584,4,13,77,6,1,partial,1,images/Ex7.jpg,right,training,hard,3,,,,,
,,,,,65cb76b8dd56502a5687bfbd,001,33,Female,British,Bachelors Degree,2024-03-06_14h37.00.863,CRL1h,2023.2.3,MacIntel,59.84082341,65e67470ae2fbf2172c317b2,65e87d7142c856deba19f145,,,,,,,,,,,1170.459,1.3,1171.7621,1171.7623,1172.4147,left,1,0.6417,,1172.4147,1173.419,4,14,78,11,1,partial,1,images/Ex4.jpg,left,training,hard,3,,,,,
,,,,,65cb76b8dd56502a5687bfbd,001,33,Female,British,Bachelors Degree,2024-03-06_14h37.00.863,CRL1h,2023.2.3,MacIntel,59.84082341,65e67470ae2fbf2172c317b2,65e87d7142c856deba19f145,,,,,,,,,,,1173.4193,0.7,1174.1163,1174.1163,1174.9884,left,1,0.8602,,1174.9885,1175.9893,4,15,79,9,1,partial,1,images/Ex2.jpg,left,training,hard,3,,,,,
,,,,,65cb76b8dd56502a5687bfbd,001,33,Female,British,Bachelors Degree,2024-03-06_14h37.00.863,CRL1h,2023.2.3,MacIntel,59.84082341,65e67470ae2fbf2172c317b2,65e87d7142c856deba19f145,,,,,,,,,,,1175.9897,1,1176.9936,1176.9936,1177.7118,right,1,0.7083,,1177.7118,1178.7135,5,0,80,7,1,partial,1,images/Ex8.jpg,right,training,hard,3,,,,,
,,,,,65cb76b8dd56502a5687bfbd,001,33,Female,British,Bachelors Degree,2024-03-06_14h37.00.863,CRL1h,2023.2.3,MacIntel,59.84082341,65e67470ae2fbf2172c317b2,65e87d7142c856deba19f145,,,,,,,,,,,1178.7138,0.8,1179.5178,1179.5178,1180.2015,right,1,0.6744,,1180.2016,1181.2021,5,1,81,4,1,partial,1,images/Ex5.jpg,right,training,hard,3,,,,,
,,,,,65cb76b8dd56502a5687bfbd,001,33,Female,British,Bachelors Degree,2024-03-06_14h37.00.863,CRL1h,2023.2.3,MacIntel,59.84082341,65e67470ae2fbf2172c317b2,65e87d7142c856deba19f145,,,,,,,,,,,1181.2025,1.1,1182.3075,1182.3076,1182.9747,left,1,0.6627,,1182.9747,1183.9772,5,2,82,2,1,partial,1,images/Ex3.jpg,left,training,hard,3,,,,,
,,,,,65cb76b8dd56502a5687bfbd,001,33,Female,British,Bachelors Degree,2024-03-06_14h37.00.863,CRL1h,2023.2.3,MacIntel,59.84082341,65e67470ae2fbf2172c317b2,65e87d7142c856deba19f145,,,,,,,,,,,1183.9774,0.9,1184.8728,1184.8729,1185.9833,left,1,1.1051,,1185.9833,1186.9855,5,3,83,9,1,partial,1,images/Ex2.jpg,left,training,hard,3,,,,,
,,,,,65cb76b8dd56502a5687bfbd,001,33,Female,British,Bachelors Degree,2024-03-06_14h37.00.863,CRL1h,2023.2.3,MacIntel,59.84082341,65e67470ae2fbf2172c317b2,65e87d7142c856deba19f145,,,,,,,,,,,1186.9859,1,1187.9882,1187.9883,1188.6742,left,1,0.6807,,1188.6743,1189.6757,5,4,84,10,1,partial,1,images/Ex3.jpg,left,training,hard,3,,,,,
,,,,,65cb76b8dd56502a5687bfbd,001,33,Female,British,Bachelors Degree,2024-03-06_14h37.00.863,CRL1h,2023.2.3,MacIntel,59.84082341,65e67470ae2fbf2172c317b2,65e87d7142c856deba19f145,,,,,,,,,,,1189.6761,1,1190.6773,1190.6774,1191.3319,right,1,0.6519,,1191.332,1192.333,5,5,85,15,1,partial,1,images/Ex8.jpg,right,training,hard,3,,,,,
,,,,,65cb76b8dd56502a5687bfbd,001,33,Female,British,Bachelors Degree,2024-03-06_14h37.00.863,CRL1h,2023.2.3,MacIntel,59.84082341,65e67470ae2fbf2172c317b2,65e87d7142c856deba19f145,,,,,,,,,,,1192.3333,1.3,1193.6367,1193.6367,1194.5419,right,1,0.8932,,1194.542,1195.5423,5,6,86,13,1,partial,1,images/Ex6.jpg,right,training,hard,3,,,,,
,,,,,65cb76b8dd56502a5687bfbd,001,33,Female,British,Bachelors Degree,2024-03-06_14h37.00.863,CRL1h,2023.2.3,MacIntel,59.84082341,65e67470ae2fbf2172c317b2,65e87d7142c856deba19f145,,,,,,,,,,,1195.5427,0.7,1196.2468,1196.2469,1196.7462,right,1,0.4975,,1196.7463,1197.7493,5,7,87,5,1,partial,1,images/Ex6.jpg,right,training,hard,3,,,,,
,,,,,65cb76b8dd56502a5687bfbd,001,33,Female,British,Bachelors Degree,2024-03-06_14h37.00.863,CRL1h,2023.2.3,MacIntel,59.84082341,65e67470ae2fbf2172c317b2,65e87d7142c856deba19f145,,,,,,,,,,,1197.7496,1.4,1199.1517,1199.1517,1200.3568,left,1,1.1976,,1200.3569,1201.3576,5,8,88,8,1,partial,1,images/Ex1.jpg,left,training,hard,3,,,,,
,,,,,65cb76b8dd56502a5687bfbd,001,33,Female,British,Bachelors Degree,2024-03-06_14h37.00.863,CRL1h,2023.2.3,MacIntel,59.84082341,65e67470ae2fbf2172c317b2,65e87d7142c856deba19f145,,,,,,,,,,,1201.3581,0.7,1202.0616,1202.0617,1202.7452,right,1,0.6758,,1202.7453,1203.7454,5,9,89,14,1,partial,1,images/Ex7.jpg,right,training,hard,3,,,,,
,,,,,65cb76b8dd56502a5687bfbd,001,33,Female,British,Bachelors Degree,2024-03-06_14h37.00.863,CRL1h,2023.2.3,MacIntel,59.84082341,65e67470ae2fbf2172c317b2,65e87d7142c856deba19f145,,,,,,,,,,,1203.7457,0.7,1204.4353,1204.4354,1205.1173,right,1,0.673,,1205.1174,1206.1209,5,10,90,12,1,partial,1,images/Ex5.jpg,right,training,hard,3,,,,,
,,,,,65cb76b8dd56502a5687bfbd,001,33,Female,British,Bachelors Degree,2024-03-06_14h37.00.863,CRL1h,2023.2.3,MacIntel,59.84082341,65e67470ae2fbf2172c317b2,65e87d7142c856deba19f145,,,,,,,,,,,1206.1218,1.5,1207.6265,1207.6265,1208.6952,left,1,1.0622,,1208.6955,1209.6967,5,11,91,1,1,partial,1,images/Ex2.jpg,left,training,hard,3,,,,,
,,,,,65cb76b8dd56502a5687bfbd,001,33,Female,British,Bachelors Degree,2024-03-06_14h37.00.863,CRL1h,2023.2.3,MacIntel,59.84082341,65e67470ae2fbf2172c317b2,65e87d7142c856deba19f145,,,,,,,,,,,1209.697,1.2,1210.9012,1210.9012,1211.5354,left,1,0.6298,,1211.5354,1212.5259,5,12,92,11,1,partial,1,images/Ex4.jpg,left,training,hard,3,,,,,
,,,,,65cb76b8dd56502a5687bfbd,001,33,Female,British,Bachelors Degree,2024-03-06_14h37.00.863,CRL1h,2023.2.3,MacIntel,59.84082341,65e67470ae2fbf2172c317b2,65e87d7142c856deba19f145,,,,,,,,,,,1212.5264,1.2,1213.7231,1213.7231,1214.3431,right,1,0.6143,,1214.3433,1215.347,5,13,93,6,1,partial,1,images/Ex7.jpg,right,training,hard,3,,,,,
,,,,,65cb76b8dd56502a5687bfbd,001,33,Female,British,Bachelors Degree,2024-03-06_14h37.00.863,CRL1h,2023.2.3,MacIntel,59.84082341,65e67470ae2fbf2172c317b2,65e87d7142c856deba19f145,,,,,,,,,,,1215.3474,1.1,1216.4496,1216.4496,1217.082,left,1,0.6286,,1217.082,1218.0873,5,14,94,3,1,partial,1,images/Ex4.jpg,left,training,hard,3,,,,,
,,,,,65cb76b8dd56502a5687bfbd,001,33,Female,British,Bachelors Degree,2024-03-06_14h37.00.863,CRL1h,2023.2.3,MacIntel,59.84082341,65e67470ae2fbf2172c317b2,65e87d7142c856deba19f145,,,,,,,,,,,1218.088,0.7,1218.7895,1218.7895,1219.6066,left,1,0.811,,1219.6066,1220.6122,5,15,95,0,1,partial,1,images/Ex1.jpg,left,training,hard,3,,,,,
,,,,,65cb76b8dd56502a5687bfbd,001,33,Female,British,Bachelors Degree,2024-03-06_14h37.00.863,CRL1h,2023.2.3,MacIntel,59.84082341,65e67470ae2fbf2172c317b2,65e87d7142c856deba19f145,,,,,,,,,,,1220.6126,0.5,1221.112,1221.1121,1222.332,left,1,1.2161,,1222.332,1223.3343,6,0,96,11,1,partial,1,images/Ex4.jpg,left,training,hard,3,,,,,
,,,,,65cb76b8dd56502a5687bfbd,001,33,Female,British,Bachelors Degree,2024-03-06_14h37.00.863,CRL1h,2023.2.3,MacIntel,59.84082341,65e67470ae2fbf2172c317b2,65e87d7142c856deba19f145,,,,,,,,,,,1223.3347,0.6,1223.9332,1223.9332,1224.5526,right,1,0.6136,,1224.5527,1225.5407,6,1,97,14,1,partial,1,images/Ex7.jpg,right,training,hard,3,,,,,
,,,,,65cb76b8dd56502a5687bfbd,001,33,Female,British,Bachelors Degree,2024-03-06_14h37.00.863,CRL1h,2023.2.3,MacIntel,59.84082341,65e67470ae2fbf2172c317b2,65e87d7142c856deba19f145,,,,,,,,,,,1225.5411,1.5,1227.0452,1227.0453,1227.963,left,1,0.9081,,1227.9631,1228.9628,6,2,98,1,1,partial,1,images/Ex2.jpg,left,training,hard,3,,,,,
,,,,,65cb76b8dd56502a5687bfbd,001,33,Female,British,Bachelors Degree,2024-03-06_14h37.00.863,CRL1h,2023.2.3,MacIntel,59.84082341,65e67470ae2fbf2172c317b2,65e87d7142c856deba19f145,,,,,,,,,,,1228.9632,1,1229.9655,1229.9656,1230.552,left,1,0.5801,,1230.552,1231.5546,6,3,99,3,1,partial,1,images/Ex4.jpg,left,training,hard,3,,,,,
,,,,,65cb76b8dd56502a5687bfbd,001,33,Female,British,Bachelors Degree,2024-03-06_14h37.00.863,CRL1h,2023.2.3,MacIntel,59.84082341,65e67470ae2fbf2172c317b2,65e87d7142c856deba19f145,,,,,,,,,,,1231.555,1.4,1232.9607,1232.9608,1233.7276,right,1,0.7578,,1233.7277,1234.7299,6,4,100,15,1,partial,1,images/Ex8.jpg,right,training,hard,3,,,,,
,,,,,65cb76b8dd56502a5687bfbd,001,33,Female,British,Bachelors Degree,2024-03-06_14h37.00.863,CRL1h,2023.2.3,MacIntel,59.84082341,65e67470ae2fbf2172c317b2,65e87d7142c856deba19f145,,,,,,,,,,,1234.7305,1.4,1236.1331,1236.1331,1236.7182,left,1,0.579,,1236.7183,1237.7059,6,5,101,0,1,partial,1,images/Ex1.jpg,left,training,hard,3,,,,,
,,,,,65cb76b8dd56502a5687bfbd,001,33,Female,British,Bachelors Degree,2024-03-06_14h37.00.863,CRL1h,2023.2.3,MacIntel,59.84082341,65e67470ae2fbf2172c317b2,65e87d7142c856deba19f145,,,,,,,,,,,1237.7062,1.2,1238.9073,1238.9074,1239.5603,left,1,0.6507,,1239.5604,1240.5617,6,6,102,2,1,partial,1,images/Ex3.jpg,left,training,hard,3,,,,,
,,,,,65cb76b8dd56502a5687bfbd,001,33,Female,British,Bachelors Degree,2024-03-06_14h37.00.863,CRL1h,2023.2.3,MacIntel,59.84082341,65e67470ae2fbf2172c317b2,65e87d7142c856deba19f145,,,,,,,,,,,1240.562,1.3,1241.8642,1241.8642,1242.8301,right,1,0.9613,,1242.8301,1243.821,6,7,103,13,1,partial,1,images/Ex6.jpg,right,training,hard,3,,,,,
,,,,,65cb76b8dd56502a5687bfbd,001,33,Female,British,Bachelors Degree,2024-03-06_14h37.00.863,CRL1h,2023.2.3,MacIntel,59.84082341,65e67470ae2fbf2172c317b2,65e87d7142c856deba19f145,,,,,,,,,,,1243.8213,1.3,1245.1097,1245.1097,1245.7952,right,1,0.6764,,1245.7953,1246.7964,6,8,104,6,1,partial,1,images/Ex7.jpg,right,training,hard,3,,,,,
,,,,,65cb76b8dd56502a5687bfbd,001,33,Female,British,Bachelors Degree,2024-03-06_14h37.00.863,CRL1h,2023.2.3,MacIntel,59.84082341,65e67470ae2fbf2172c317b2,65e87d7142c856deba19f145,,,,,,,,,,,1246.7976,1.1,1247.9004,1247.9004,1248.7518,left,1,0.8402,,1248.752,1249.7539,6,9,105,10,1,partial,1,images/Ex3.jpg,left,training,hard,3,,,,,
,,,,,65cb76b8dd56502a5687bfbd,001,33,Female,British,Bachelors Degree,2024-03-06_14h37.00.863,CRL1h,2023.2.3,MacIntel,59.84082341,65e67470ae2fbf2172c317b2,65e87d7142c856deba19f145,,,,,,,,,,,1249.7543,1.3,1251.042,1251.042,1251.8932,left,1,0.8468,,1251.8932,1252.8937,6,10,106,9,1,partial,1,images/Ex2.jpg,left,training,hard,3,,,,,
,,,,,65cb76b8dd56502a5687bfbd,001,33,Female,British,Bachelors Degree,2024-03-06_14h37.00.863,CRL1h,2023.2.3,MacIntel,59.84082341,65e67470ae2fbf2172c317b2,65e87d7142c856deba19f145,,,,,,,,,,,1252.8941,0.6,1253.5011,1253.5012,1254.1138,right,1,0.6115,,1254.1138,1255.1174,6,11,107,12,1,partial,1,images/Ex5.jpg,right,training,hard,3,,,,,
,,,,,65cb76b8dd56502a5687bfbd,001,33,Female,British,Bachelors Degree,2024-03-06_14h37.00.863,CRL1h,2023.2.3,MacIntel,59.84082341,65e67470ae2fbf2172c317b2,65e87d7142c856deba19f145,,,,,,,,,,,1255.1178,1,1256.1203,1256.1203,1256.673,left,0,0.5465,,1256.673,1257.6781,6,12,108,7,1,partial,1,images/Ex8.jpg,right,training,hard,3,,,,,
,,,,,65cb76b8dd56502a5687bfbd,001,33,Female,British,Bachelors Degree,2024-03-06_14h37.00.863,CRL1h,2023.2.3,MacIntel,59.84082341,65e67470ae2fbf2172c317b2,65e87d7142c856deba19f145,,,,,,,,,,,1257.6784,1.3,1258.978,1258.978,1259.7474,right,1,0.7611,,1259.7475,1260.7353,6,13,109,5,1,partial,1,images/Ex6.jpg,right,training,hard,3,,,,,
