infCons.started,infCons.stopped,resp_consent.keys,resp_consent.rt,resp_consent.duration,participant,session,Age?,Gender?,Nationality?,Highest Educational Degree?,date,expName,psychopyVersion,OS,frameRate,STUDY_ID,SESSION_ID,instructions.started,instructions.stopped,resp_instructions.keys,resp_instructions.rt,resp_instructions.duration,nextTask.started,nextTask.stopped,ready_task.keys,ready_task.rt,ready_task.duration,fixation.started,ITI,fixation.stopped,stim.started,stim.stopped,response.keys,response.corr,response.rt,response.duration,feedback.started,feedback.stopped,trials.thisRepN,trials.thisTrialN,trials.thisN,trials.thisIndex,trials.ran,task,phase,Exemplars,r_correct,condition,difficulty,set,end.started,end.stopped,resp_end.keys,resp_end.rt,resp_end.duration
0,6.909,space,6.886,,56b8de29e1d0a200051517f8,001,42,female,American,Bachelor,2024-02-26_12h19.31.181,CRL1e,2023.2.3,MacIntel,76.92307692,65dbad3905fde4fe1981dc61,65dcc80629fb92e03946a6c4,,,,,,,,,,,,,,,,,,,,,,,,,,,,,,,,,,,,,,
,,,,,56b8de29e1d0a200051517f8,001,42,female,American,Bachelor,2024-02-26_12h19.31.181,CRL1e,2023.2.3,MacIntel,76.92307692,65dbad3905fde4fe1981dc61,65dcc80629fb92e03946a6c4,6.909,54.834,space,47.895,,,,,,,,,,,,,,,,,,,,,,,,,,,,,,,,,,
,,,,,56b8de29e1d0a200051517f8,001,42,female,American,Bachelor,2024-02-26_12h19.31.181,CRL1e,2023.2.3,MacIntel,76.92307692,65dbad3905fde4fe1981dc61,65dcc80629fb92e03946a6c4,,,,,,54.846,58.167,space,3.306,,58.176,1,59.167,59.167,60.221,left,0,1.047,,60.222,61.221,0,0,0,6,1,partial,1,images/Ex4.jpg,right,training,easy,4,,,,,
,,,,,56b8de29e1d0a200051517f8,001,42,female,American,Bachelor,2024-02-26_12h19.31.181,CRL1e,2023.2.3,MacIntel,76.92307692,65dbad3905fde4fe1981dc61,65dcc80629fb92e03946a6c4,,,,,,,,,,,61.223,0.6,61.821,61.821,62.755,left,0,0.923,,62.755,63.754,0,1,1,4,1,partial,1,images/Ex3.jpg,right,training,easy,4,,,,,
,,,,,56b8de29e1d0a200051517f8,001,42,female,American,Bachelor,2024-02-26_12h19.31.181,CRL1e,2023.2.3,MacIntel,76.92307692,65dbad3905fde4fe1981dc61,65dcc80629fb92e03946a6c4,,,,,,,,,,,63.755,1.1,64.849,64.849,65.622,left,1,0.763,,65.623,66.622,0,2,2,3,1,partial,1,images/Ex2.jpg,left,training,easy,4,,,,,
,,,,,56b8de29e1d0a200051517f8,001,42,female,American,Bachelor,2024-02-26_12h19.31.181,CRL1e,2023.2.3,MacIntel,76.92307692,65dbad3905fde4fe1981dc61,65dcc80629fb92e03946a6c4,,,,,,,,,,,66.623,0.8,67.423,67.423,68.369,right,0,0.941,,68.369,69.37,0,3,3,1,1,partial,1,images/Ex1.jpg,left,training,easy,4,,,,,
,,,,,56b8de29e1d0a200051517f8,001,42,female,American,Bachelor,2024-02-26_12h19.31.181,CRL1e,2023.2.3,MacIntel,76.92307692,65dbad3905fde4fe1981dc61,65dcc80629fb92e03946a6c4,,,,,,,,,,,69.371,0.7,70.064,70.064,70.944,left,1,0.869,,70.944,71.945,0,4,4,0,1,partial,1,images/Ex1.jpg,left,training,easy,4,,,,,
,,,,,56b8de29e1d0a200051517f8,001,42,female,American,Bachelor,2024-02-26_12h19.31.181,CRL1e,2023.2.3,MacIntel,76.92307692,65dbad3905fde4fe1981dc61,65dcc80629fb92e03946a6c4,,,,,,,,,,,71.945,0.8,72.745,72.745,73.452,right,1,0.704,,73.452,74.452,0,5,5,7,1,partial,1,images/Ex4.jpg,right,training,easy,4,,,,,
,,,,,56b8de29e1d0a200051517f8,001,42,female,American,Bachelor,2024-02-26_12h19.31.181,CRL1e,2023.2.3,MacIntel,76.92307692,65dbad3905fde4fe1981dc61,65dcc80629fb92e03946a6c4,,,,,,,,,,,74.452,0.6,75.052,75.052,75.839,right,0,0.774,,75.839,76.84,0,6,6,2,1,partial,1,images/Ex2.jpg,left,training,easy,4,,,,,
,,,,,56b8de29e1d0a200051517f8,001,42,female,American,Bachelor,2024-02-26_12h19.31.181,CRL1e,2023.2.3,MacIntel,76.92307692,65dbad3905fde4fe1981dc61,65dcc80629fb92e03946a6c4,,,,,,,,,,,76.841,0.8,77.64,77.64,78.454,right,1,0.809,,78.454,79.454,0,7,7,5,1,partial,1,images/Ex3.jpg,right,training,easy,4,,,,,
,,,,,56b8de29e1d0a200051517f8,001,42,female,American,Bachelor,2024-02-26_12h19.31.181,CRL1e,2023.2.3,MacIntel,76.92307692,65dbad3905fde4fe1981dc61,65dcc80629fb92e03946a6c4,,,,,,,,,,,79.454,0.8,80.254,80.254,81.054,right,0,0.794,,81.054,82.055,1,0,8,2,1,partial,1,images/Ex2.jpg,left,training,easy,4,,,,,
,,,,,56b8de29e1d0a200051517f8,001,42,female,American,Bachelor,2024-02-26_12h19.31.181,CRL1e,2023.2.3,MacIntel,76.92307692,65dbad3905fde4fe1981dc61,65dcc80629fb92e03946a6c4,,,,,,,,,,,82.056,0.6,82.655,82.655,83.415,right,1,0.747,,83.415,84.418,1,1,9,6,1,partial,1,images/Ex4.jpg,right,training,easy,4,,,,,
,,,,,56b8de29e1d0a200051517f8,001,42,female,American,Bachelor,2024-02-26_12h19.31.181,CRL1e,2023.2.3,MacIntel,76.92307692,65dbad3905fde4fe1981dc61,65dcc80629fb92e03946a6c4,,,,,,,,,,,84.419,1.5,85.909,85.909,86.79,left,0,0.875,,86.79,87.79,1,2,10,5,1,partial,1,images/Ex3.jpg,right,training,easy,4,,,,,
,,,,,56b8de29e1d0a200051517f8,001,42,female,American,Bachelor,2024-02-26_12h19.31.181,CRL1e,2023.2.3,MacIntel,76.92307692,65dbad3905fde4fe1981dc61,65dcc80629fb92e03946a6c4,,,,,,,,,,,87.79,0.7,88.483,88.484,89.536,right,0,1.044,,89.537,90.538,1,3,11,0,1,partial,1,images/Ex1.jpg,left,training,easy,4,,,,,
,,,,,56b8de29e1d0a200051517f8,001,42,female,American,Bachelor,2024-02-26_12h19.31.181,CRL1e,2023.2.3,MacIntel,76.92307692,65dbad3905fde4fe1981dc61,65dcc80629fb92e03946a6c4,,,,,,,,,,,90.538,1,91.538,91.538,92.552,right,1,1.006,,92.552,93.552,1,4,12,4,1,partial,1,images/Ex3.jpg,right,training,easy,4,,,,,
,,,,,56b8de29e1d0a200051517f8,001,42,female,American,Bachelor,2024-02-26_12h19.31.181,CRL1e,2023.2.3,MacIntel,76.92307692,65dbad3905fde4fe1981dc61,65dcc80629fb92e03946a6c4,,,,,,,,,,,93.553,1.4,94.952,94.953,95.9,right,0,0.936,,95.9,96.9,1,5,13,1,1,partial,1,images/Ex1.jpg,left,training,easy,4,,,,,
,,,,,56b8de29e1d0a200051517f8,001,42,female,American,Bachelor,2024-02-26_12h19.31.181,CRL1e,2023.2.3,MacIntel,76.92307692,65dbad3905fde4fe1981dc61,65dcc80629fb92e03946a6c4,,,,,,,,,,,96.9,1.3,98.194,98.194,99.021,left,1,0.817,,99.021,100.021,1,6,14,3,1,partial,1,images/Ex2.jpg,left,training,easy,4,,,,,
,,,,,56b8de29e1d0a200051517f8,001,42,female,American,Bachelor,2024-02-26_12h19.31.181,CRL1e,2023.2.3,MacIntel,76.92307692,65dbad3905fde4fe1981dc61,65dcc80629fb92e03946a6c4,,,,,,,,,,,100.022,0.7,100.715,100.715,101.288,right,1,0.565,,101.288,102.288,1,7,15,7,1,partial,1,images/Ex4.jpg,right,training,easy,4,,,,,
,,,,,56b8de29e1d0a200051517f8,001,42,female,American,Bachelor,2024-02-26_12h19.31.181,CRL1e,2023.2.3,MacIntel,76.92307692,65dbad3905fde4fe1981dc61,65dcc80629fb92e03946a6c4,,,,,,,,,,,102.289,0.8,103.089,103.089,103.998,right,1,0.897,,103.999,104.996,2,0,16,4,1,partial,1,images/Ex3.jpg,right,training,easy,4,,,,,
,,,,,56b8de29e1d0a200051517f8,001,42,female,American,Bachelor,2024-02-26_12h19.31.181,CRL1e,2023.2.3,MacIntel,76.92307692,65dbad3905fde4fe1981dc61,65dcc80629fb92e03946a6c4,,,,,,,,,,,104.997,1.4,106.396,106.397,106.984,right,1,0.582,,106.984,107.984,2,1,17,7,1,partial,1,images/Ex4.jpg,right,training,easy,4,,,,,
,,,,,56b8de29e1d0a200051517f8,001,42,female,American,Bachelor,2024-02-26_12h19.31.181,CRL1e,2023.2.3,MacIntel,76.92307692,65dbad3905fde4fe1981dc61,65dcc80629fb92e03946a6c4,,,,,,,,,,,107.985,1,108.984,108.984,109.744,right,0,0.748,,109.745,110.745,2,2,18,2,1,partial,1,images/Ex2.jpg,left,training,easy,4,,,,,
,,,,,56b8de29e1d0a200051517f8,001,42,female,American,Bachelor,2024-02-26_12h19.31.181,CRL1e,2023.2.3,MacIntel,76.92307692,65dbad3905fde4fe1981dc61,65dcc80629fb92e03946a6c4,,,,,,,,,,,110.746,1.1,111.838,111.838,112.239,left,1,0.393,,112.239,113.239,2,3,19,1,1,partial,1,images/Ex1.jpg,left,training,easy,4,,,,,
,,,,,56b8de29e1d0a200051517f8,001,42,female,American,Bachelor,2024-02-26_12h19.31.181,CRL1e,2023.2.3,MacIntel,76.92307692,65dbad3905fde4fe1981dc61,65dcc80629fb92e03946a6c4,,,,,,,,,,,113.24,1.3,114.533,114.533,115.134,left,1,0.59,,115.134,116.133,2,4,20,0,1,partial,1,images/Ex1.jpg,left,training,easy,4,,,,,
,,,,,56b8de29e1d0a200051517f8,001,42,female,American,Bachelor,2024-02-26_12h19.31.181,CRL1e,2023.2.3,MacIntel,76.92307692,65dbad3905fde4fe1981dc61,65dcc80629fb92e03946a6c4,,,,,,,,,,,116.134,0.7,116.827,116.827,117.413,right,1,0.576,,117.413,118.414,2,5,21,6,1,partial,1,images/Ex4.jpg,right,training,easy,4,,,,,
,,,,,56b8de29e1d0a200051517f8,001,42,female,American,Bachelor,2024-02-26_12h19.31.181,CRL1e,2023.2.3,MacIntel,76.92307692,65dbad3905fde4fe1981dc61,65dcc80629fb92e03946a6c4,,,,,,,,,,,118.415,1,119.414,119.414,120.068,right,1,0.643,,120.068,121.068,2,6,22,5,1,partial,1,images/Ex3.jpg,right,training,easy,4,,,,,
,,,,,56b8de29e1d0a200051517f8,001,42,female,American,Bachelor,2024-02-26_12h19.31.181,CRL1e,2023.2.3,MacIntel,76.92307692,65dbad3905fde4fe1981dc61,65dcc80629fb92e03946a6c4,,,,,,,,,,,121.069,1,122.069,122.069,122.642,right,0,0.563,,122.643,123.643,2,7,23,3,1,partial,1,images/Ex2.jpg,left,training,easy,4,,,,,
,,,,,56b8de29e1d0a200051517f8,001,42,female,American,Bachelor,2024-02-26_12h19.31.181,CRL1e,2023.2.3,MacIntel,76.92307692,65dbad3905fde4fe1981dc61,65dcc80629fb92e03946a6c4,,,,,,,,,,,123.643,1.5,125.136,125.137,125.83,left,1,0.69,,125.83,126.831,3,0,24,3,1,partial,1,images/Ex2.jpg,left,training,easy,4,,,,,
,,,,,56b8de29e1d0a200051517f8,001,42,female,American,Bachelor,2024-02-26_12h19.31.181,CRL1e,2023.2.3,MacIntel,76.92307692,65dbad3905fde4fe1981dc61,65dcc80629fb92e03946a6c4,,,,,,,,,,,126.831,1.1,127.924,127.924,128.444,right,1,0.508,,128.445,129.445,3,1,25,7,1,partial,1,images/Ex4.jpg,right,training,easy,4,,,,,
,,,,,56b8de29e1d0a200051517f8,001,42,female,American,Bachelor,2024-02-26_12h19.31.181,CRL1e,2023.2.3,MacIntel,76.92307692,65dbad3905fde4fe1981dc61,65dcc80629fb92e03946a6c4,,,,,,,,,,,129.445,0.9,130.339,130.339,130.886,left,1,0.545,,130.886,131.886,3,2,26,0,1,partial,1,images/Ex1.jpg,left,training,easy,4,,,,,
,,,,,56b8de29e1d0a200051517f8,001,42,female,American,Bachelor,2024-02-26_12h19.31.181,CRL1e,2023.2.3,MacIntel,76.92307692,65dbad3905fde4fe1981dc61,65dcc80629fb92e03946a6c4,,,,,,,,,,,131.886,0.6,132.486,132.486,133.286,right,1,0.792,,133.286,134.287,3,3,27,4,1,partial,1,images/Ex3.jpg,right,training,easy,4,,,,,
,,,,,56b8de29e1d0a200051517f8,001,42,female,American,Bachelor,2024-02-26_12h19.31.181,CRL1e,2023.2.3,MacIntel,76.92307692,65dbad3905fde4fe1981dc61,65dcc80629fb92e03946a6c4,,,,,,,,,,,134.288,0.9,135.181,135.181,135.741,right,1,0.547,,135.741,136.74,3,4,28,6,1,partial,1,images/Ex4.jpg,right,training,easy,4,,,,,
,,,,,56b8de29e1d0a200051517f8,001,42,female,American,Bachelor,2024-02-26_12h19.31.181,CRL1e,2023.2.3,MacIntel,76.92307692,65dbad3905fde4fe1981dc61,65dcc80629fb92e03946a6c4,,,,,,,,,,,136.742,1.4,138.141,138.141,138.608,left,1,0.455,,138.608,139.608,3,5,29,2,1,partial,1,images/Ex2.jpg,left,training,easy,4,,,,,
,,,,,56b8de29e1d0a200051517f8,001,42,female,American,Bachelor,2024-02-26_12h19.31.181,CRL1e,2023.2.3,MacIntel,76.92307692,65dbad3905fde4fe1981dc61,65dcc80629fb92e03946a6c4,,,,,,,,,,,139.608,1.1,140.701,140.701,141.289,left,1,0.579,,141.29,142.29,3,6,30,1,1,partial,1,images/Ex1.jpg,left,training,easy,4,,,,,
,,,,,56b8de29e1d0a200051517f8,001,42,female,American,Bachelor,2024-02-26_12h19.31.181,CRL1e,2023.2.3,MacIntel,76.92307692,65dbad3905fde4fe1981dc61,65dcc80629fb92e03946a6c4,,,,,,,,,,,142.291,1.4,143.69,143.69,144.373,right,1,0.668,,144.373,145.371,3,7,31,5,1,partial,1,images/Ex3.jpg,right,training,easy,4,,,,,
,,,,,56b8de29e1d0a200051517f8,001,42,female,American,Bachelor,2024-02-26_12h19.31.181,CRL1e,2023.2.3,MacIntel,76.92307692,65dbad3905fde4fe1981dc61,65dcc80629fb92e03946a6c4,,,,,,,,,,,145.371,1.4,146.771,146.771,147.358,right,1,0.577,,147.358,148.358,4,0,32,7,1,partial,1,images/Ex4.jpg,right,training,easy,4,,,,,
,,,,,56b8de29e1d0a200051517f8,001,42,female,American,Bachelor,2024-02-26_12h19.31.181,CRL1e,2023.2.3,MacIntel,76.92307692,65dbad3905fde4fe1981dc61,65dcc80629fb92e03946a6c4,,,,,,,,,,,148.359,0.6,148.958,148.959,149.506,left,1,0.537,,149.506,150.506,4,1,33,2,1,partial,1,images/Ex2.jpg,left,training,easy,4,,,,,
,,,,,56b8de29e1d0a200051517f8,001,42,female,American,Bachelor,2024-02-26_12h19.31.181,CRL1e,2023.2.3,MacIntel,76.92307692,65dbad3905fde4fe1981dc61,65dcc80629fb92e03946a6c4,,,,,,,,,,,150.506,0.6,151.106,151.106,151.626,left,1,0.51,,151.626,152.626,4,2,34,0,1,partial,1,images/Ex1.jpg,left,training,easy,4,,,,,
,,,,,56b8de29e1d0a200051517f8,001,42,female,American,Bachelor,2024-02-26_12h19.31.181,CRL1e,2023.2.3,MacIntel,76.92307692,65dbad3905fde4fe1981dc61,65dcc80629fb92e03946a6c4,,,,,,,,,,,152.627,0.6,153.226,153.227,153.667,right,1,0.43,,153.667,154.667,4,3,35,4,1,partial,1,images/Ex3.jpg,right,training,easy,4,,,,,
,,,,,56b8de29e1d0a200051517f8,001,42,female,American,Bachelor,2024-02-26_12h19.31.181,CRL1e,2023.2.3,MacIntel,76.92307692,65dbad3905fde4fe1981dc61,65dcc80629fb92e03946a6c4,,,,,,,,,,,154.668,1.3,155.961,155.961,156.588,right,1,0.617,,156.588,157.588,4,4,36,5,1,partial,1,images/Ex3.jpg,right,training,easy,4,,,,,
,,,,,56b8de29e1d0a200051517f8,001,42,female,American,Bachelor,2024-02-26_12h19.31.181,CRL1e,2023.2.3,MacIntel,76.92307692,65dbad3905fde4fe1981dc61,65dcc80629fb92e03946a6c4,,,,,,,,,,,157.589,0.7,158.282,158.282,158.776,left,1,0.481,,158.776,159.776,4,5,37,3,1,partial,1,images/Ex2.jpg,left,training,easy,4,,,,,
,,,,,56b8de29e1d0a200051517f8,001,42,female,American,Bachelor,2024-02-26_12h19.31.181,CRL1e,2023.2.3,MacIntel,76.92307692,65dbad3905fde4fe1981dc61,65dcc80629fb92e03946a6c4,,,,,,,,,,,159.776,1.4,161.176,161.176,161.523,left,1,0.336,,161.523,162.522,4,6,38,1,1,partial,1,images/Ex1.jpg,left,training,easy,4,,,,,
,,,,,56b8de29e1d0a200051517f8,001,42,female,American,Bachelor,2024-02-26_12h19.31.181,CRL1e,2023.2.3,MacIntel,76.92307692,65dbad3905fde4fe1981dc61,65dcc80629fb92e03946a6c4,,,,,,,,,,,162.523,1.1,163.617,163.617,164.11,right,1,0.489,,164.111,165.111,4,7,39,6,1,partial,1,images/Ex4.jpg,right,training,easy,4,,,,,
,,,,,56b8de29e1d0a200051517f8,001,42,female,American,Bachelor,2024-02-26_12h19.31.181,CRL1e,2023.2.3,MacIntel,76.92307692,65dbad3905fde4fe1981dc61,65dcc80629fb92e03946a6c4,,,,,,,,,,,165.112,0.5,165.604,165.604,166.165,left,1,0.548,,166.165,167.167,5,0,40,2,1,partial,1,images/Ex2.jpg,left,training,easy,4,,,,,
,,,,,56b8de29e1d0a200051517f8,001,42,female,American,Bachelor,2024-02-26_12h19.31.181,CRL1e,2023.2.3,MacIntel,76.92307692,65dbad3905fde4fe1981dc61,65dcc80629fb92e03946a6c4,,,,,,,,,,,167.168,1.4,168.565,168.566,169.059,right,1,0.482,,169.059,170.059,5,1,41,7,1,partial,1,images/Ex4.jpg,right,training,easy,4,,,,,
,,,,,56b8de29e1d0a200051517f8,001,42,female,American,Bachelor,2024-02-26_12h19.31.181,CRL1e,2023.2.3,MacIntel,76.92307692,65dbad3905fde4fe1981dc61,65dcc80629fb92e03946a6c4,,,,,,,,,,,170.06,1.4,171.46,171.46,171.98,left,1,0.508,,171.98,172.98,5,2,42,1,1,partial,1,images/Ex1.jpg,left,training,easy,4,,,,,
,,,,,56b8de29e1d0a200051517f8,001,42,female,American,Bachelor,2024-02-26_12h19.31.181,CRL1e,2023.2.3,MacIntel,76.92307692,65dbad3905fde4fe1981dc61,65dcc80629fb92e03946a6c4,,,,,,,,,,,172.981,0.8,173.781,173.781,174.261,right,1,0.47,,174.261,175.261,5,3,43,4,1,partial,1,images/Ex3.jpg,right,training,easy,4,,,,,
,,,,,56b8de29e1d0a200051517f8,001,42,female,American,Bachelor,2024-02-26_12h19.31.181,CRL1e,2023.2.3,MacIntel,76.92307692,65dbad3905fde4fe1981dc61,65dcc80629fb92e03946a6c4,,,,,,,,,,,175.261,1.1,176.355,176.355,176.822,right,1,0.456,,176.822,177.822,5,4,44,5,1,partial,1,images/Ex3.jpg,right,training,easy,4,,,,,
,,,,,56b8de29e1d0a200051517f8,001,42,female,American,Bachelor,2024-02-26_12h19.31.181,CRL1e,2023.2.3,MacIntel,76.92307692,65dbad3905fde4fe1981dc61,65dcc80629fb92e03946a6c4,,,,,,,,,,,177.823,1.4,179.222,179.222,179.823,left,1,0.594,,179.823,180.824,5,5,45,3,1,partial,1,images/Ex2.jpg,left,training,easy,4,,,,,
,,,,,56b8de29e1d0a200051517f8,001,42,female,American,Bachelor,2024-02-26_12h19.31.181,CRL1e,2023.2.3,MacIntel,76.92307692,65dbad3905fde4fe1981dc61,65dcc80629fb92e03946a6c4,,,,,,,,,,,180.825,0.7,181.517,181.517,182.011,right,1,0.48,,182.011,183.011,5,6,46,6,1,partial,1,images/Ex4.jpg,right,training,easy,4,,,,,
,,,,,56b8de29e1d0a200051517f8,001,42,female,American,Bachelor,2024-02-26_12h19.31.181,CRL1e,2023.2.3,MacIntel,76.92307692,65dbad3905fde4fe1981dc61,65dcc80629fb92e03946a6c4,,,,,,,,,,,183.011,0.6,183.611,183.611,184.144,left,1,0.524,,184.144,185.145,5,7,47,0,1,partial,1,images/Ex1.jpg,left,training,easy,4,,,,,
,,,,,56b8de29e1d0a200051517f8,001,42,female,American,Bachelor,2024-02-26_12h19.31.181,CRL1e,2023.2.3,MacIntel,76.92307692,65dbad3905fde4fe1981dc61,65dcc80629fb92e03946a6c4,,,,,,,,,,,185.155,1.4,186.559,186.559,187.092,right,1,0.521,,187.093,188.093,0,0,0,7,1,partial,2,images/Ex4.jpg,right,nonreversed,easy,4,,,,,
,,,,,56b8de29e1d0a200051517f8,001,42,female,American,Bachelor,2024-02-26_12h19.31.181,CRL1e,2023.2.3,MacIntel,76.92307692,65dbad3905fde4fe1981dc61,65dcc80629fb92e03946a6c4,,,,,,,,,,,188.093,1.1,189.186,189.186,189.666,right,1,0.47,,189.666,190.666,0,1,1,6,1,partial,2,images/Ex4.jpg,right,nonreversed,easy,4,,,,,
,,,,,56b8de29e1d0a200051517f8,001,42,female,American,Bachelor,2024-02-26_12h19.31.181,CRL1e,2023.2.3,MacIntel,76.92307692,65dbad3905fde4fe1981dc61,65dcc80629fb92e03946a6c4,,,,,,,,,,,190.667,0.6,191.267,191.267,191.787,left,1,0.508,,191.787,192.787,0,2,2,2,1,partial,2,images/Ex2.jpg,left,nonreversed,easy,4,,,,,
,,,,,56b8de29e1d0a200051517f8,001,42,female,American,Bachelor,2024-02-26_12h19.31.181,CRL1e,2023.2.3,MacIntel,76.92307692,65dbad3905fde4fe1981dc61,65dcc80629fb92e03946a6c4,,,,,,,,,,,192.787,0.6,193.387,193.387,193.908,left,0,0.509,,193.908,194.908,0,3,3,1,1,partial,2,images/Ex1.jpg,right,reversed,easy,4,,,,,
,,,,,56b8de29e1d0a200051517f8,001,42,female,American,Bachelor,2024-02-26_12h19.31.181,CRL1e,2023.2.3,MacIntel,76.92307692,65dbad3905fde4fe1981dc61,65dcc80629fb92e03946a6c4,,,,,,,,,,,194.909,0.8,195.709,195.709,196.617,right,0,0.894,,196.617,197.616,0,4,4,4,1,partial,2,images/Ex3.jpg,left,reversed,easy,4,,,,,
,,,,,56b8de29e1d0a200051517f8,001,42,female,American,Bachelor,2024-02-26_12h19.31.181,CRL1e,2023.2.3,MacIntel,76.92307692,65dbad3905fde4fe1981dc61,65dcc80629fb92e03946a6c4,,,,,,,,,,,197.616,0.9,198.509,198.51,199.803,left,0,1.283,,199.804,200.804,0,5,5,0,1,partial,2,images/Ex1.jpg,right,reversed,easy,4,,,,,
,,,,,56b8de29e1d0a200051517f8,001,42,female,American,Bachelor,2024-02-26_12h19.31.181,CRL1e,2023.2.3,MacIntel,76.92307692,65dbad3905fde4fe1981dc61,65dcc80629fb92e03946a6c4,,,,,,,,,,,200.804,1.5,202.298,202.298,203.218,right,0,0.91,,203.218,204.219,0,6,6,3,1,partial,2,images/Ex2.jpg,left,nonreversed,easy,4,,,,,
,,,,,56b8de29e1d0a200051517f8,001,42,female,American,Bachelor,2024-02-26_12h19.31.181,CRL1e,2023.2.3,MacIntel,76.92307692,65dbad3905fde4fe1981dc61,65dcc80629fb92e03946a6c4,,,,,,,,,,,204.22,1,205.219,205.219,206.406,right,0,1.177,,206.406,207.406,0,7,7,5,1,partial,2,images/Ex3.jpg,left,reversed,easy,4,,,,,
,,,,,56b8de29e1d0a200051517f8,001,42,female,American,Bachelor,2024-02-26_12h19.31.181,CRL1e,2023.2.3,MacIntel,76.92307692,65dbad3905fde4fe1981dc61,65dcc80629fb92e03946a6c4,,,,,,,,,,,207.407,0.6,208.006,208.006,209.86,right,0,1.85,,209.86,210.861,1,0,8,5,1,partial,2,images/Ex3.jpg,left,reversed,easy,4,,,,,
,,,,,56b8de29e1d0a200051517f8,001,42,female,American,Bachelor,2024-02-26_12h19.31.181,CRL1e,2023.2.3,MacIntel,76.92307692,65dbad3905fde4fe1981dc61,65dcc80629fb92e03946a6c4,,,,,,,,,,,210.861,0.7,211.554,211.554,212.394,left,1,0.829,,212.394,213.395,1,1,9,3,1,partial,2,images/Ex2.jpg,left,nonreversed,easy,4,,,,,
,,,,,56b8de29e1d0a200051517f8,001,42,female,American,Bachelor,2024-02-26_12h19.31.181,CRL1e,2023.2.3,MacIntel,76.92307692,65dbad3905fde4fe1981dc61,65dcc80629fb92e03946a6c4,,,,,,,,,,,213.395,0.7,214.088,214.088,214.702,left,0,0.601,,214.702,215.702,1,2,10,0,1,partial,2,images/Ex1.jpg,right,reversed,easy,4,,,,,
,,,,,56b8de29e1d0a200051517f8,001,42,female,American,Bachelor,2024-02-26_12h19.31.181,CRL1e,2023.2.3,MacIntel,76.92307692,65dbad3905fde4fe1981dc61,65dcc80629fb92e03946a6c4,,,,,,,,,,,215.703,1.4,217.103,217.103,217.877,left,1,0.771,,217.877,218.876,1,3,11,2,1,partial,2,images/Ex2.jpg,left,nonreversed,easy,4,,,,,
,,,,,56b8de29e1d0a200051517f8,001,42,female,American,Bachelor,2024-02-26_12h19.31.181,CRL1e,2023.2.3,MacIntel,76.92307692,65dbad3905fde4fe1981dc61,65dcc80629fb92e03946a6c4,,,,,,,,,,,218.877,1.4,220.277,220.277,220.864,right,1,0.575,,220.864,221.864,1,4,12,7,1,partial,2,images/Ex4.jpg,right,nonreversed,easy,4,,,,,
,,,,,56b8de29e1d0a200051517f8,001,42,female,American,Bachelor,2024-02-26_12h19.31.181,CRL1e,2023.2.3,MacIntel,76.92307692,65dbad3905fde4fe1981dc61,65dcc80629fb92e03946a6c4,,,,,,,,,,,221.865,1.3,223.158,223.158,223.878,right,0,0.712,,223.879,224.879,1,5,13,4,1,partial,2,images/Ex3.jpg,left,reversed,easy,4,,,,,
,,,,,56b8de29e1d0a200051517f8,001,42,female,American,Bachelor,2024-02-26_12h19.31.181,CRL1e,2023.2.3,MacIntel,76.92307692,65dbad3905fde4fe1981dc61,65dcc80629fb92e03946a6c4,,,,,,,,,,,224.879,0.7,225.572,225.572,226.359,right,1,0.775,,226.359,227.36,1,6,14,6,1,partial,2,images/Ex4.jpg,right,nonreversed,easy,4,,,,,
,,,,,56b8de29e1d0a200051517f8,001,42,female,American,Bachelor,2024-02-26_12h19.31.181,CRL1e,2023.2.3,MacIntel,76.92307692,65dbad3905fde4fe1981dc61,65dcc80629fb92e03946a6c4,,,,,,,,,,,227.361,0.7,228.053,228.054,228.694,left,0,0.636,,228.694,229.694,1,7,15,1,1,partial,2,images/Ex1.jpg,right,reversed,easy,4,,,,,
,,,,,56b8de29e1d0a200051517f8,001,42,female,American,Bachelor,2024-02-26_12h19.31.181,CRL1e,2023.2.3,MacIntel,76.92307692,65dbad3905fde4fe1981dc61,65dcc80629fb92e03946a6c4,,,,,,,,,,,229.695,1.5,231.188,231.188,231.881,right,0,0.683,,231.881,232.882,2,0,16,4,1,partial,2,images/Ex3.jpg,left,reversed,easy,4,,,,,
,,,,,56b8de29e1d0a200051517f8,001,42,female,American,Bachelor,2024-02-26_12h19.31.181,CRL1e,2023.2.3,MacIntel,76.92307692,65dbad3905fde4fe1981dc61,65dcc80629fb92e03946a6c4,,,,,,,,,,,232.882,1.2,234.082,234.082,234.656,left,1,0.562,,234.656,235.656,2,1,17,5,1,partial,2,images/Ex3.jpg,left,reversed,easy,4,,,,,
,,,,,56b8de29e1d0a200051517f8,001,42,female,American,Bachelor,2024-02-26_12h19.31.181,CRL1e,2023.2.3,MacIntel,76.92307692,65dbad3905fde4fe1981dc61,65dcc80629fb92e03946a6c4,,,,,,,,,,,235.657,1,236.656,236.656,237.31,right,1,0.648,,237.31,238.31,2,2,18,1,1,partial,2,images/Ex1.jpg,right,reversed,easy,4,,,,,
,,,,,56b8de29e1d0a200051517f8,001,42,female,American,Bachelor,2024-02-26_12h19.31.181,CRL1e,2023.2.3,MacIntel,76.92307692,65dbad3905fde4fe1981dc61,65dcc80629fb92e03946a6c4,,,,,,,,,,,238.311,1.4,239.711,239.711,240.271,right,1,0.555,,240.271,241.271,2,3,19,7,1,partial,2,images/Ex4.jpg,right,nonreversed,easy,4,,,,,
,,,,,56b8de29e1d0a200051517f8,001,42,female,American,Bachelor,2024-02-26_12h19.31.181,CRL1e,2023.2.3,MacIntel,76.92307692,65dbad3905fde4fe1981dc61,65dcc80629fb92e03946a6c4,,,,,,,,,,,241.272,0.9,242.165,242.165,242.752,right,1,0.577,,242.752,243.752,2,4,20,6,1,partial,2,images/Ex4.jpg,right,nonreversed,easy,4,,,,,
,,,,,56b8de29e1d0a200051517f8,001,42,female,American,Bachelor,2024-02-26_12h19.31.181,CRL1e,2023.2.3,MacIntel,76.92307692,65dbad3905fde4fe1981dc61,65dcc80629fb92e03946a6c4,,,,,,,,,,,243.753,0.8,244.552,244.553,245.219,right,1,0.656,,245.22,246.22,2,5,21,0,1,partial,2,images/Ex1.jpg,right,reversed,easy,4,,,,,
,,,,,56b8de29e1d0a200051517f8,001,42,female,American,Bachelor,2024-02-26_12h19.31.181,CRL1e,2023.2.3,MacIntel,76.92307692,65dbad3905fde4fe1981dc61,65dcc80629fb92e03946a6c4,,,,,,,,,,,246.221,1.4,247.62,247.62,248.314,right,0,0.681,,248.315,249.315,2,6,22,2,1,partial,2,images/Ex2.jpg,left,nonreversed,easy,4,,,,,
,,,,,56b8de29e1d0a200051517f8,001,42,female,American,Bachelor,2024-02-26_12h19.31.181,CRL1e,2023.2.3,MacIntel,76.92307692,65dbad3905fde4fe1981dc61,65dcc80629fb92e03946a6c4,,,,,,,,,,,249.315,0.8,250.114,250.115,250.808,left,1,0.683,,250.809,251.809,2,7,23,3,1,partial,2,images/Ex2.jpg,left,nonreversed,easy,4,,,,,
,,,,,56b8de29e1d0a200051517f8,001,42,female,American,Bachelor,2024-02-26_12h19.31.181,CRL1e,2023.2.3,MacIntel,76.92307692,65dbad3905fde4fe1981dc61,65dcc80629fb92e03946a6c4,,,,,,,,,,,251.809,1.4,253.209,253.209,253.876,right,1,0.654,,253.876,254.876,3,0,24,1,1,partial,2,images/Ex1.jpg,right,reversed,easy,4,,,,,
,,,,,56b8de29e1d0a200051517f8,001,42,female,American,Bachelor,2024-02-26_12h19.31.181,CRL1e,2023.2.3,MacIntel,76.92307692,65dbad3905fde4fe1981dc61,65dcc80629fb92e03946a6c4,,,,,,,,,,,254.877,1.4,256.277,256.277,256.864,right,1,0.573,,256.864,257.864,3,1,25,7,1,partial,2,images/Ex4.jpg,right,nonreversed,easy,4,,,,,
,,,,,56b8de29e1d0a200051517f8,001,42,female,American,Bachelor,2024-02-26_12h19.31.181,CRL1e,2023.2.3,MacIntel,76.92307692,65dbad3905fde4fe1981dc61,65dcc80629fb92e03946a6c4,,,,,,,,,,,257.865,1.1,258.958,258.958,259.785,right,0,0.812,,259.785,260.785,3,2,26,3,1,partial,2,images/Ex2.jpg,left,nonreversed,easy,4,,,,,
,,,,,56b8de29e1d0a200051517f8,001,42,female,American,Bachelor,2024-02-26_12h19.31.181,CRL1e,2023.2.3,MacIntel,76.92307692,65dbad3905fde4fe1981dc61,65dcc80629fb92e03946a6c4,,,,,,,,,,,260.786,1.4,262.185,262.185,262.771,right,1,0.581,,262.772,263.763,3,3,27,6,1,partial,2,images/Ex4.jpg,right,nonreversed,easy,4,,,,,
,,,,,56b8de29e1d0a200051517f8,001,42,female,American,Bachelor,2024-02-26_12h19.31.181,CRL1e,2023.2.3,MacIntel,76.92307692,65dbad3905fde4fe1981dc61,65dcc80629fb92e03946a6c4,,,,,,,,,,,263.763,0.7,264.466,264.466,265.133,right,1,0.656,,265.133,266.134,3,4,28,0,1,partial,2,images/Ex1.jpg,right,reversed,easy,4,,,,,
,,,,,56b8de29e1d0a200051517f8,001,42,female,American,Bachelor,2024-02-26_12h19.31.181,CRL1e,2023.2.3,MacIntel,76.92307692,65dbad3905fde4fe1981dc61,65dcc80629fb92e03946a6c4,,,,,,,,,,,266.134,0.6,266.734,266.734,267.548,left,1,0.8,,267.548,268.548,3,5,29,2,1,partial,2,images/Ex2.jpg,left,nonreversed,easy,4,,,,,
,,,,,56b8de29e1d0a200051517f8,001,42,female,American,Bachelor,2024-02-26_12h19.31.181,CRL1e,2023.2.3,MacIntel,76.92307692,65dbad3905fde4fe1981dc61,65dcc80629fb92e03946a6c4,,,,,,,,,,,268.548,0.6,269.148,269.148,269.681,right,0,0.523,,269.682,270.682,3,6,30,5,1,partial,2,images/Ex3.jpg,left,reversed,easy,4,,,,,
,,,,,56b8de29e1d0a200051517f8,001,42,female,American,Bachelor,2024-02-26_12h19.31.181,CRL1e,2023.2.3,MacIntel,76.92307692,65dbad3905fde4fe1981dc61,65dcc80629fb92e03946a6c4,,,,,,,,,,,270.683,1,271.682,271.682,272.083,left,1,0.389,,272.083,273.083,3,7,31,4,1,partial,2,images/Ex3.jpg,left,reversed,easy,4,,,,,
,,,,,56b8de29e1d0a200051517f8,001,42,female,American,Bachelor,2024-02-26_12h19.31.181,CRL1e,2023.2.3,MacIntel,76.92307692,65dbad3905fde4fe1981dc61,65dcc80629fb92e03946a6c4,,,,,,,,,,,273.083,0.7,273.776,273.776,274.176,left,1,0.391,,274.177,275.177,4,0,32,4,1,partial,2,images/Ex3.jpg,left,reversed,easy,4,,,,,
,,,,,56b8de29e1d0a200051517f8,001,42,female,American,Bachelor,2024-02-26_12h19.31.181,CRL1e,2023.2.3,MacIntel,76.92307692,65dbad3905fde4fe1981dc61,65dcc80629fb92e03946a6c4,,,,,,,,,,,275.177,0.6,275.777,275.777,276.444,right,1,0.658,,276.444,277.444,4,1,33,1,1,partial,2,images/Ex1.jpg,right,reversed,easy,4,,,,,
,,,,,56b8de29e1d0a200051517f8,001,42,female,American,Bachelor,2024-02-26_12h19.31.181,CRL1e,2023.2.3,MacIntel,76.92307692,65dbad3905fde4fe1981dc61,65dcc80629fb92e03946a6c4,,,,,,,,,,,277.444,1.5,278.938,278.938,279.565,right,1,0.617,,279.565,280.565,4,2,34,0,1,partial,2,images/Ex1.jpg,right,reversed,easy,4,,,,,
,,,,,56b8de29e1d0a200051517f8,001,42,female,American,Bachelor,2024-02-26_12h19.31.181,CRL1e,2023.2.3,MacIntel,76.92307692,65dbad3905fde4fe1981dc61,65dcc80629fb92e03946a6c4,,,,,,,,,,,280.566,1.3,281.859,281.859,282.353,left,1,0.484,,282.353,283.353,4,3,35,2,1,partial,2,images/Ex2.jpg,left,nonreversed,easy,4,,,,,
,,,,,56b8de29e1d0a200051517f8,001,42,female,American,Bachelor,2024-02-26_12h19.31.181,CRL1e,2023.2.3,MacIntel,76.92307692,65dbad3905fde4fe1981dc61,65dcc80629fb92e03946a6c4,,,,,,,,,,,283.353,1,284.353,284.353,284.887,left,1,0.526,,284.887,285.887,4,4,36,5,1,partial,2,images/Ex3.jpg,left,reversed,easy,4,,,,,
,,,,,56b8de29e1d0a200051517f8,001,42,female,American,Bachelor,2024-02-26_12h19.31.181,CRL1e,2023.2.3,MacIntel,76.92307692,65dbad3905fde4fe1981dc61,65dcc80629fb92e03946a6c4,,,,,,,,,,,285.888,0.5,286.381,286.381,286.901,right,1,0.512,,286.901,287.901,4,5,37,6,1,partial,2,images/Ex4.jpg,right,nonreversed,easy,4,,,,,
,,,,,56b8de29e1d0a200051517f8,001,42,female,American,Bachelor,2024-02-26_12h19.31.181,CRL1e,2023.2.3,MacIntel,76.92307692,65dbad3905fde4fe1981dc61,65dcc80629fb92e03946a6c4,,,,,,,,,,,287.902,1.3,289.195,289.195,289.769,left,1,0.565,,289.769,290.769,4,6,38,3,1,partial,2,images/Ex2.jpg,left,nonreversed,easy,4,,,,,
,,,,,56b8de29e1d0a200051517f8,001,42,female,American,Bachelor,2024-02-26_12h19.31.181,CRL1e,2023.2.3,MacIntel,76.92307692,65dbad3905fde4fe1981dc61,65dcc80629fb92e03946a6c4,,,,,,,,,,,290.769,0.8,291.569,291.569,292.076,right,1,0.504,,292.076,293.076,4,7,39,7,1,partial,2,images/Ex4.jpg,right,nonreversed,easy,4,,,,,
,,,,,56b8de29e1d0a200051517f8,001,42,female,American,Bachelor,2024-02-26_12h19.31.181,CRL1e,2023.2.3,MacIntel,76.92307692,65dbad3905fde4fe1981dc61,65dcc80629fb92e03946a6c4,,,,,,,,,,,293.077,1.5,294.57,294.57,295.144,left,1,0.562,,295.144,296.144,5,0,40,3,1,partial,2,images/Ex2.jpg,left,nonreversed,easy,4,,,,,
,,,,,56b8de29e1d0a200051517f8,001,42,female,American,Bachelor,2024-02-26_12h19.31.181,CRL1e,2023.2.3,MacIntel,76.92307692,65dbad3905fde4fe1981dc61,65dcc80629fb92e03946a6c4,,,,,,,,,,,296.145,0.6,296.744,296.744,297.318,right,1,0.57,,297.318,298.318,5,1,41,0,1,partial,2,images/Ex1.jpg,right,reversed,easy,4,,,,,
,,,,,56b8de29e1d0a200051517f8,001,42,female,American,Bachelor,2024-02-26_12h19.31.181,CRL1e,2023.2.3,MacIntel,76.92307692,65dbad3905fde4fe1981dc61,65dcc80629fb92e03946a6c4,,,,,,,,,,,298.319,1.1,299.412,299.412,299.959,right,1,0.538,,299.959,300.96,5,2,42,7,1,partial,2,images/Ex4.jpg,right,nonreversed,easy,4,,,,,
,,,,,56b8de29e1d0a200051517f8,001,42,female,American,Bachelor,2024-02-26_12h19.31.181,CRL1e,2023.2.3,MacIntel,76.92307692,65dbad3905fde4fe1981dc61,65dcc80629fb92e03946a6c4,,,,,,,,,,,300.961,0.5,301.453,301.453,301.934,right,1,0.467,,301.934,302.934,5,3,43,1,1,partial,2,images/Ex1.jpg,right,reversed,easy,4,,,,,
,,,,,56b8de29e1d0a200051517f8,001,42,female,American,Bachelor,2024-02-26_12h19.31.181,CRL1e,2023.2.3,MacIntel,76.92307692,65dbad3905fde4fe1981dc61,65dcc80629fb92e03946a6c4,,,,,,,,,,,302.934,0.8,303.734,303.734,304.294,left,1,0.553,,304.294,305.294,5,4,44,5,1,partial,2,images/Ex3.jpg,left,reversed,easy,4,,,,,
,,,,,56b8de29e1d0a200051517f8,001,42,female,American,Bachelor,2024-02-26_12h19.31.181,CRL1e,2023.2.3,MacIntel,76.92307692,65dbad3905fde4fe1981dc61,65dcc80629fb92e03946a6c4,,,,,,,,,,,305.295,0.9,306.188,306.188,306.708,left,1,0.518,,306.708,307.708,5,5,45,4,1,partial,2,images/Ex3.jpg,left,reversed,easy,4,,,,,
,,,,,56b8de29e1d0a200051517f8,001,42,female,American,Bachelor,2024-02-26_12h19.31.181,CRL1e,2023.2.3,MacIntel,76.92307692,65dbad3905fde4fe1981dc61,65dcc80629fb92e03946a6c4,,,,,,,,,,,307.709,1.4,309.109,309.109,309.576,right,1,0.458,,309.576,310.576,5,6,46,6,1,partial,2,images/Ex4.jpg,right,nonreversed,easy,4,,,,,
,,,,,56b8de29e1d0a200051517f8,001,42,female,American,Bachelor,2024-02-26_12h19.31.181,CRL1e,2023.2.3,MacIntel,76.92307692,65dbad3905fde4fe1981dc61,65dcc80629fb92e03946a6c4,,,,,,,,,,,310.577,1.3,311.87,311.87,312.403,left,1,0.522,,312.404,313.404,5,7,47,2,1,partial,2,images/Ex2.jpg,left,nonreversed,easy,4,,,,,
,,,,,56b8de29e1d0a200051517f8,001,42,female,American,Bachelor,2024-02-26_12h19.31.181,CRL1e,2023.2.3,MacIntel,76.92307692,65dbad3905fde4fe1981dc61,65dcc80629fb92e03946a6c4,,,,,,313.405,317.059,space,3.642,,317.064,1.2,318.259,318.259,318.793,left,0,0.523,,318.793,319.793,0,0,0,7,1,total,1,images/Ex8.jpg,right,training,easy,4,,,,,
,,,,,56b8de29e1d0a200051517f8,001,42,female,American,Bachelor,2024-02-26_12h19.31.181,CRL1e,2023.2.3,MacIntel,76.92307692,65dbad3905fde4fe1981dc61,65dcc80629fb92e03946a6c4,,,,,,,,,,,319.793,0.7,320.486,320.486,321.206,left,0,0.714,,321.207,322.207,0,1,1,5,1,total,1,images/Ex7.jpg,right,training,easy,4,,,,,
,,,,,56b8de29e1d0a200051517f8,001,42,female,American,Bachelor,2024-02-26_12h19.31.181,CRL1e,2023.2.3,MacIntel,76.92307692,65dbad3905fde4fe1981dc61,65dcc80629fb92e03946a6c4,,,,,,,,,,,322.208,0.6,322.807,322.807,323.474,left,1,0.657,,323.474,324.475,0,2,2,3,1,total,1,images/Ex6.jpg,left,training,easy,4,,,,,
,,,,,56b8de29e1d0a200051517f8,001,42,female,American,Bachelor,2024-02-26_12h19.31.181,CRL1e,2023.2.3,MacIntel,76.92307692,65dbad3905fde4fe1981dc61,65dcc80629fb92e03946a6c4,,,,,,,,,,,324.475,1.4,325.875,325.875,326.622,right,0,0.741,,326.622,327.622,0,3,3,1,1,total,1,images/Ex5.jpg,left,training,easy,4,,,,,
,,,,,56b8de29e1d0a200051517f8,001,42,female,American,Bachelor,2024-02-26_12h19.31.181,CRL1e,2023.2.3,MacIntel,76.92307692,65dbad3905fde4fe1981dc61,65dcc80629fb92e03946a6c4,,,,,,,,,,,327.622,1,328.623,328.623,329.316,right,1,0.682,,329.316,330.317,0,4,4,6,1,total,1,images/Ex8.jpg,right,training,easy,4,,,,,
,,,,,56b8de29e1d0a200051517f8,001,42,female,American,Bachelor,2024-02-26_12h19.31.181,CRL1e,2023.2.3,MacIntel,76.92307692,65dbad3905fde4fe1981dc61,65dcc80629fb92e03946a6c4,,,,,,,,,,,330.317,1,331.317,331.317,332.13,right,0,0.803,,332.131,333.13,0,5,5,2,1,total,1,images/Ex6.jpg,left,training,easy,4,,,,,
,,,,,56b8de29e1d0a200051517f8,001,42,female,American,Bachelor,2024-02-26_12h19.31.181,CRL1e,2023.2.3,MacIntel,76.92307692,65dbad3905fde4fe1981dc61,65dcc80629fb92e03946a6c4,,,,,,,,,,,333.131,0.9,334.024,334.025,334.705,right,0,0.673,,334.705,335.705,0,6,6,0,1,total,1,images/Ex5.jpg,left,training,easy,4,,,,,
,,,,,56b8de29e1d0a200051517f8,001,42,female,American,Bachelor,2024-02-26_12h19.31.181,CRL1e,2023.2.3,MacIntel,76.92307692,65dbad3905fde4fe1981dc61,65dcc80629fb92e03946a6c4,,,,,,,,,,,335.705,0.5,336.199,336.199,337.012,right,1,0.808,,337.013,338.013,0,7,7,4,1,total,1,images/Ex7.jpg,right,training,easy,4,,,,,
,,,,,56b8de29e1d0a200051517f8,001,42,female,American,Bachelor,2024-02-26_12h19.31.181,CRL1e,2023.2.3,MacIntel,76.92307692,65dbad3905fde4fe1981dc61,65dcc80629fb92e03946a6c4,,,,,,,,,,,338.013,0.8,338.813,338.813,339.453,left,1,0.631,,339.453,340.453,1,0,8,0,1,total,1,images/Ex5.jpg,left,training,easy,4,,,,,
,,,,,56b8de29e1d0a200051517f8,001,42,female,American,Bachelor,2024-02-26_12h19.31.181,CRL1e,2023.2.3,MacIntel,76.92307692,65dbad3905fde4fe1981dc61,65dcc80629fb92e03946a6c4,,,,,,,,,,,340.454,1.3,341.747,341.747,342.294,left,1,0.534,,342.294,343.294,1,1,9,1,1,total,1,images/Ex5.jpg,left,training,easy,4,,,,,
,,,,,56b8de29e1d0a200051517f8,001,42,female,American,Bachelor,2024-02-26_12h19.31.181,CRL1e,2023.2.3,MacIntel,76.92307692,65dbad3905fde4fe1981dc61,65dcc80629fb92e03946a6c4,,,,,,,,,,,343.294,0.7,343.987,343.987,344.576,left,1,0.579,,344.576,345.575,1,2,10,3,1,total,1,images/Ex6.jpg,left,training,easy,4,,,,,
,,,,,56b8de29e1d0a200051517f8,001,42,female,American,Bachelor,2024-02-26_12h19.31.181,CRL1e,2023.2.3,MacIntel,76.92307692,65dbad3905fde4fe1981dc61,65dcc80629fb92e03946a6c4,,,,,,,,,,,345.576,1.2,346.776,346.776,347.336,left,1,0.551,,347.336,348.336,1,3,11,2,1,total,1,images/Ex6.jpg,left,training,easy,4,,,,,
,,,,,56b8de29e1d0a200051517f8,001,42,female,American,Bachelor,2024-02-26_12h19.31.181,CRL1e,2023.2.3,MacIntel,76.92307692,65dbad3905fde4fe1981dc61,65dcc80629fb92e03946a6c4,,,,,,,,,,,348.337,0.5,348.83,348.83,349.389,right,1,0.547,,349.389,350.39,1,4,12,5,1,total,1,images/Ex7.jpg,right,training,easy,4,,,,,
,,,,,56b8de29e1d0a200051517f8,001,42,female,American,Bachelor,2024-02-26_12h19.31.181,CRL1e,2023.2.3,MacIntel,76.92307692,65dbad3905fde4fe1981dc61,65dcc80629fb92e03946a6c4,,,,,,,,,,,350.391,0.9,351.284,351.284,351.764,left,0,0.476,,351.764,352.764,1,5,13,7,1,total,1,images/Ex8.jpg,right,training,easy,4,,,,,
,,,,,56b8de29e1d0a200051517f8,001,42,female,American,Bachelor,2024-02-26_12h19.31.181,CRL1e,2023.2.3,MacIntel,76.92307692,65dbad3905fde4fe1981dc61,65dcc80629fb92e03946a6c4,,,,,,,,,,,352.765,0.8,353.565,353.565,353.925,right,1,0.356,,353.925,354.925,1,6,14,6,1,total,1,images/Ex8.jpg,right,training,easy,4,,,,,
,,,,,56b8de29e1d0a200051517f8,001,42,female,American,Bachelor,2024-02-26_12h19.31.181,CRL1e,2023.2.3,MacIntel,76.92307692,65dbad3905fde4fe1981dc61,65dcc80629fb92e03946a6c4,,,,,,,,,,,354.926,1,355.926,355.926,356.459,right,1,0.531,,356.459,357.459,1,7,15,4,1,total,1,images/Ex7.jpg,right,training,easy,4,,,,,
,,,,,56b8de29e1d0a200051517f8,001,42,female,American,Bachelor,2024-02-26_12h19.31.181,CRL1e,2023.2.3,MacIntel,76.92307692,65dbad3905fde4fe1981dc61,65dcc80629fb92e03946a6c4,,,,,,,,,,,357.46,0.7,358.153,358.153,358.58,right,1,0.417,,358.58,359.58,2,0,16,5,1,total,1,images/Ex7.jpg,right,training,easy,4,,,,,
,,,,,56b8de29e1d0a200051517f8,001,42,female,American,Bachelor,2024-02-26_12h19.31.181,CRL1e,2023.2.3,MacIntel,76.92307692,65dbad3905fde4fe1981dc61,65dcc80629fb92e03946a6c4,,,,,,,,,,,359.581,1,360.581,360.581,361.074,left,1,0.483,,361.074,362.075,2,1,17,3,1,total,1,images/Ex6.jpg,left,training,easy,4,,,,,
,,,,,56b8de29e1d0a200051517f8,001,42,female,American,Bachelor,2024-02-26_12h19.31.181,CRL1e,2023.2.3,MacIntel,76.92307692,65dbad3905fde4fe1981dc61,65dcc80629fb92e03946a6c4,,,,,,,,,,,362.075,0.8,362.875,362.875,363.395,right,1,0.51,,363.395,364.395,2,2,18,6,1,total,1,images/Ex8.jpg,right,training,easy,4,,,,,
,,,,,56b8de29e1d0a200051517f8,001,42,female,American,Bachelor,2024-02-26_12h19.31.181,CRL1e,2023.2.3,MacIntel,76.92307692,65dbad3905fde4fe1981dc61,65dcc80629fb92e03946a6c4,,,,,,,,,,,364.395,1.3,365.689,365.689,366.236,right,0,0.544,,366.236,367.236,2,3,19,1,1,total,1,images/Ex5.jpg,left,training,easy,4,,,,,
,,,,,56b8de29e1d0a200051517f8,001,42,female,American,Bachelor,2024-02-26_12h19.31.181,CRL1e,2023.2.3,MacIntel,76.92307692,65dbad3905fde4fe1981dc61,65dcc80629fb92e03946a6c4,,,,,,,,,,,367.237,1.1,368.33,368.33,368.677,left,0,0.341,,368.677,369.677,2,4,20,7,1,total,1,images/Ex8.jpg,right,training,easy,4,,,,,
,,,,,56b8de29e1d0a200051517f8,001,42,female,American,Bachelor,2024-02-26_12h19.31.181,CRL1e,2023.2.3,MacIntel,76.92307692,65dbad3905fde4fe1981dc61,65dcc80629fb92e03946a6c4,,,,,,,,,,,369.678,1.1,370.77,370.77,371.264,left,1,0.481,,371.264,372.265,2,5,21,2,1,total,1,images/Ex6.jpg,left,training,easy,4,,,,,
,,,,,56b8de29e1d0a200051517f8,001,42,female,American,Bachelor,2024-02-26_12h19.31.181,CRL1e,2023.2.3,MacIntel,76.92307692,65dbad3905fde4fe1981dc61,65dcc80629fb92e03946a6c4,,,,,,,,,,,372.265,1.4,373.665,373.665,374.332,right,0,0.657,,374.332,375.333,2,6,22,0,1,total,1,images/Ex5.jpg,left,training,easy,4,,,,,
,,,,,56b8de29e1d0a200051517f8,001,42,female,American,Bachelor,2024-02-26_12h19.31.181,CRL1e,2023.2.3,MacIntel,76.92307692,65dbad3905fde4fe1981dc61,65dcc80629fb92e03946a6c4,,,,,,,,,,,375.333,0.6,375.933,375.933,376.44,right,1,0.5,,376.44,377.44,2,7,23,4,1,total,1,images/Ex7.jpg,right,training,easy,4,,,,,
,,,,,56b8de29e1d0a200051517f8,001,42,female,American,Bachelor,2024-02-26_12h19.31.181,CRL1e,2023.2.3,MacIntel,76.92307692,65dbad3905fde4fe1981dc61,65dcc80629fb92e03946a6c4,,,,,,,,,,,377.441,0.8,378.24,378.24,378.787,left,1,0.535,,378.787,379.788,3,0,24,2,1,total,1,images/Ex6.jpg,left,training,easy,4,,,,,
,,,,,56b8de29e1d0a200051517f8,001,42,female,American,Bachelor,2024-02-26_12h19.31.181,CRL1e,2023.2.3,MacIntel,76.92307692,65dbad3905fde4fe1981dc61,65dcc80629fb92e03946a6c4,,,,,,,,,,,379.789,0.9,380.681,380.681,381.654,right,1,0.962,,381.654,382.655,3,1,25,7,1,total,1,images/Ex8.jpg,right,training,easy,4,,,,,
,,,,,56b8de29e1d0a200051517f8,001,42,female,American,Bachelor,2024-02-26_12h19.31.181,CRL1e,2023.2.3,MacIntel,76.92307692,65dbad3905fde4fe1981dc61,65dcc80629fb92e03946a6c4,,,,,,,,,,,382.656,1.4,384.056,384.056,384.589,left,1,0.524,,384.589,385.589,3,2,26,1,1,total,1,images/Ex5.jpg,left,training,easy,4,,,,,
,,,,,56b8de29e1d0a200051517f8,001,42,female,American,Bachelor,2024-02-26_12h19.31.181,CRL1e,2023.2.3,MacIntel,76.92307692,65dbad3905fde4fe1981dc61,65dcc80629fb92e03946a6c4,,,,,,,,,,,385.59,0.7,386.283,386.283,386.804,right,1,0.51,,386.804,387.803,3,3,27,5,1,total,1,images/Ex7.jpg,right,training,easy,4,,,,,
,,,,,56b8de29e1d0a200051517f8,001,42,female,American,Bachelor,2024-02-26_12h19.31.181,CRL1e,2023.2.3,MacIntel,76.92307692,65dbad3905fde4fe1981dc61,65dcc80629fb92e03946a6c4,,,,,,,,,,,387.804,0.9,388.697,388.697,389.244,left,1,0.538,,389.244,390.244,3,4,28,3,1,total,1,images/Ex6.jpg,left,training,easy,4,,,,,
,,,,,56b8de29e1d0a200051517f8,001,42,female,American,Bachelor,2024-02-26_12h19.31.181,CRL1e,2023.2.3,MacIntel,76.92307692,65dbad3905fde4fe1981dc61,65dcc80629fb92e03946a6c4,,,,,,,,,,,390.245,1.3,391.538,391.538,392.152,right,1,0.601,,392.152,393.152,3,5,29,6,1,total,1,images/Ex8.jpg,right,training,easy,4,,,,,
,,,,,56b8de29e1d0a200051517f8,001,42,female,American,Bachelor,2024-02-26_12h19.31.181,CRL1e,2023.2.3,MacIntel,76.92307692,65dbad3905fde4fe1981dc61,65dcc80629fb92e03946a6c4,,,,,,,,,,,393.152,0.6,393.752,393.752,394.312,right,1,0.548,,394.312,395.313,3,6,30,4,1,total,1,images/Ex7.jpg,right,training,easy,4,,,,,
,,,,,56b8de29e1d0a200051517f8,001,42,female,American,Bachelor,2024-02-26_12h19.31.181,CRL1e,2023.2.3,MacIntel,76.92307692,65dbad3905fde4fe1981dc61,65dcc80629fb92e03946a6c4,,,,,,,,,,,395.313,0.7,396.007,396.007,396.58,left,1,0.568,,396.58,397.58,3,7,31,0,1,total,1,images/Ex5.jpg,left,training,easy,4,,,,,
,,,,,56b8de29e1d0a200051517f8,001,42,female,American,Bachelor,2024-02-26_12h19.31.181,CRL1e,2023.2.3,MacIntel,76.92307692,65dbad3905fde4fe1981dc61,65dcc80629fb92e03946a6c4,,,,,,,,,,,397.581,1.1,398.674,398.674,399.221,right,1,0.544,,399.221,400.221,4,0,32,5,1,total,1,images/Ex7.jpg,right,training,easy,4,,,,,
,,,,,56b8de29e1d0a200051517f8,001,42,female,American,Bachelor,2024-02-26_12h19.31.181,CRL1e,2023.2.3,MacIntel,76.92307692,65dbad3905fde4fe1981dc61,65dcc80629fb92e03946a6c4,,,,,,,,,,,400.222,0.8,401.021,401.021,401.702,right,1,0.668,,401.702,402.702,4,1,33,7,1,total,1,images/Ex8.jpg,right,training,easy,4,,,,,
,,,,,56b8de29e1d0a200051517f8,001,42,female,American,Bachelor,2024-02-26_12h19.31.181,CRL1e,2023.2.3,MacIntel,76.92307692,65dbad3905fde4fe1981dc61,65dcc80629fb92e03946a6c4,,,,,,,,,,,402.703,1.2,403.903,403.903,404.276,right,1,0.369,,404.276,405.276,4,2,34,4,1,total,1,images/Ex7.jpg,right,training,easy,4,,,,,
,,,,,56b8de29e1d0a200051517f8,001,42,female,American,Bachelor,2024-02-26_12h19.31.181,CRL1e,2023.2.3,MacIntel,76.92307692,65dbad3905fde4fe1981dc61,65dcc80629fb92e03946a6c4,,,,,,,,,,,405.277,0.6,405.877,405.877,406.384,left,1,0.497,,406.384,407.384,4,3,35,2,1,total,1,images/Ex6.jpg,left,training,easy,4,,,,,
,,,,,56b8de29e1d0a200051517f8,001,42,female,American,Bachelor,2024-02-26_12h19.31.181,CRL1e,2023.2.3,MacIntel,76.92307692,65dbad3905fde4fe1981dc61,65dcc80629fb92e03946a6c4,,,,,,,,,,,407.384,0.7,408.077,408.077,408.637,left,1,0.548,,408.638,409.638,4,4,36,1,1,total,1,images/Ex5.jpg,left,training,easy,4,,,,,
,,,,,56b8de29e1d0a200051517f8,001,42,female,American,Bachelor,2024-02-26_12h19.31.181,CRL1e,2023.2.3,MacIntel,76.92307692,65dbad3905fde4fe1981dc61,65dcc80629fb92e03946a6c4,,,,,,,,,,,409.638,0.9,410.531,410.531,411.105,right,1,0.564,,411.105,412.106,4,5,37,6,1,total,1,images/Ex8.jpg,right,training,easy,4,,,,,
,,,,,56b8de29e1d0a200051517f8,001,42,female,American,Bachelor,2024-02-26_12h19.31.181,CRL1e,2023.2.3,MacIntel,76.92307692,65dbad3905fde4fe1981dc61,65dcc80629fb92e03946a6c4,,,,,,,,,,,412.106,0.6,412.706,412.706,413.279,left,1,0.565,,413.279,414.28,4,6,38,3,1,total,1,images/Ex6.jpg,left,training,easy,4,,,,,
,,,,,56b8de29e1d0a200051517f8,001,42,female,American,Bachelor,2024-02-26_12h19.31.181,CRL1e,2023.2.3,MacIntel,76.92307692,65dbad3905fde4fe1981dc61,65dcc80629fb92e03946a6c4,,,,,,,,,,,414.28,0.8,415.08,415.08,415.68,left,1,0.589,,415.68,416.68,4,7,39,0,1,total,1,images/Ex5.jpg,left,training,easy,4,,,,,
,,,,,56b8de29e1d0a200051517f8,001,42,female,American,Bachelor,2024-02-26_12h19.31.181,CRL1e,2023.2.3,MacIntel,76.92307692,65dbad3905fde4fe1981dc61,65dcc80629fb92e03946a6c4,,,,,,,,,,,416.681,1.1,417.774,417.774,418.334,left,1,0.553,,418.334,419.335,5,0,40,0,1,total,1,images/Ex5.jpg,left,training,easy,4,,,,,
,,,,,56b8de29e1d0a200051517f8,001,42,female,American,Bachelor,2024-02-26_12h19.31.181,CRL1e,2023.2.3,MacIntel,76.92307692,65dbad3905fde4fe1981dc61,65dcc80629fb92e03946a6c4,,,,,,,,,,,419.336,1,420.335,420.335,420.869,right,1,0.519,,420.869,421.869,5,1,41,4,1,total,1,images/Ex7.jpg,right,training,easy,4,,,,,
,,,,,56b8de29e1d0a200051517f8,001,42,female,American,Bachelor,2024-02-26_12h19.31.181,CRL1e,2023.2.3,MacIntel,76.92307692,65dbad3905fde4fe1981dc61,65dcc80629fb92e03946a6c4,,,,,,,,,,,421.87,0.7,422.562,422.563,423.069,left,1,0.501,,423.07,424.07,5,2,42,3,1,total,1,images/Ex6.jpg,left,training,easy,4,,,,,
,,,,,56b8de29e1d0a200051517f8,001,42,female,American,Bachelor,2024-02-26_12h19.31.181,CRL1e,2023.2.3,MacIntel,76.92307692,65dbad3905fde4fe1981dc61,65dcc80629fb92e03946a6c4,,,,,,,,,,,424.07,0.6,424.67,424.67,425.204,right,1,0.529,,425.204,426.204,5,3,43,7,1,total,1,images/Ex8.jpg,right,training,easy,4,,,,,
,,,,,56b8de29e1d0a200051517f8,001,42,female,American,Bachelor,2024-02-26_12h19.31.181,CRL1e,2023.2.3,MacIntel,76.92307692,65dbad3905fde4fe1981dc61,65dcc80629fb92e03946a6c4,,,,,,,,,,,426.205,1,427.204,427.204,427.725,right,1,0.508,,427.725,428.725,5,4,44,5,1,total,1,images/Ex7.jpg,right,training,easy,4,,,,,
,,,,,56b8de29e1d0a200051517f8,001,42,female,American,Bachelor,2024-02-26_12h19.31.181,CRL1e,2023.2.3,MacIntel,76.92307692,65dbad3905fde4fe1981dc61,65dcc80629fb92e03946a6c4,,,,,,,,,,,428.725,1.1,429.818,429.818,430.472,right,1,0.644,,430.472,431.473,5,5,45,6,1,total,1,images/Ex8.jpg,right,training,easy,4,,,,,
,,,,,56b8de29e1d0a200051517f8,001,42,female,American,Bachelor,2024-02-26_12h19.31.181,CRL1e,2023.2.3,MacIntel,76.92307692,65dbad3905fde4fe1981dc61,65dcc80629fb92e03946a6c4,,,,,,,,,,,431.473,1,432.473,432.473,433.06,left,1,0.576,,433.06,434.06,5,6,46,2,1,total,1,images/Ex6.jpg,left,training,easy,4,,,,,
,,,,,56b8de29e1d0a200051517f8,001,42,female,American,Bachelor,2024-02-26_12h19.31.181,CRL1e,2023.2.3,MacIntel,76.92307692,65dbad3905fde4fe1981dc61,65dcc80629fb92e03946a6c4,,,,,,,,,,,434.061,1.3,435.354,435.354,435.927,left,1,0.565,,435.927,436.928,5,7,47,1,1,total,1,images/Ex5.jpg,left,training,easy,4,,,,,
,,,,,56b8de29e1d0a200051517f8,001,42,female,American,Bachelor,2024-02-26_12h19.31.181,CRL1e,2023.2.3,MacIntel,76.92307692,65dbad3905fde4fe1981dc61,65dcc80629fb92e03946a6c4,,,,,,,,,,,436.932,1.1,438.035,438.035,438.449,right,0,0.402,,438.449,439.449,0,0,0,4,1,total,2,images/Ex7.jpg,left,reversed,easy,4,,,,,
,,,,,56b8de29e1d0a200051517f8,001,42,female,American,Bachelor,2024-02-26_12h19.31.181,CRL1e,2023.2.3,MacIntel,76.92307692,65dbad3905fde4fe1981dc61,65dcc80629fb92e03946a6c4,,,,,,,,,,,439.45,0.5,439.942,439.942,440.382,left,1,0.434,,440.383,441.383,0,1,1,5,1,total,2,images/Ex7.jpg,left,reversed,easy,4,,,,,
,,,,,56b8de29e1d0a200051517f8,001,42,female,American,Bachelor,2024-02-26_12h19.31.181,CRL1e,2023.2.3,MacIntel,76.92307692,65dbad3905fde4fe1981dc61,65dcc80629fb92e03946a6c4,,,,,,,,,,,441.383,0.6,441.983,441.983,442.543,left,0,0.552,,442.543,443.543,0,2,2,3,1,total,2,images/Ex6.jpg,right,reversed,easy,4,,,,,
,,,,,56b8de29e1d0a200051517f8,001,42,female,American,Bachelor,2024-02-26_12h19.31.181,CRL1e,2023.2.3,MacIntel,76.92307692,65dbad3905fde4fe1981dc61,65dcc80629fb92e03946a6c4,,,,,,,,,,,443.544,0.6,444.144,444.144,445.037,right,0,0.887,,445.038,446.038,0,3,3,7,1,total,2,images/Ex8.jpg,left,reversed,easy,4,,,,,
,,,,,56b8de29e1d0a200051517f8,001,42,female,American,Bachelor,2024-02-26_12h19.31.181,CRL1e,2023.2.3,MacIntel,76.92307692,65dbad3905fde4fe1981dc61,65dcc80629fb92e03946a6c4,,,,,,,,,,,446.038,1.3,447.331,447.332,447.918,left,1,0.575,,447.918,448.919,0,4,4,6,1,total,2,images/Ex8.jpg,left,reversed,easy,4,,,,,
,,,,,56b8de29e1d0a200051517f8,001,42,female,American,Bachelor,2024-02-26_12h19.31.181,CRL1e,2023.2.3,MacIntel,76.92307692,65dbad3905fde4fe1981dc61,65dcc80629fb92e03946a6c4,,,,,,,,,,,448.92,1.1,450.013,450.013,450.773,left,0,0.755,,450.773,451.773,0,5,5,0,1,total,2,images/Ex5.jpg,right,reversed,easy,4,,,,,
,,,,,56b8de29e1d0a200051517f8,001,42,female,American,Bachelor,2024-02-26_12h19.31.181,CRL1e,2023.2.3,MacIntel,76.92307692,65dbad3905fde4fe1981dc61,65dcc80629fb92e03946a6c4,,,,,,,,,,,451.773,0.9,452.667,452.667,453.467,right,1,0.788,,453.467,454.467,0,6,6,2,1,total,2,images/Ex6.jpg,right,reversed,easy,4,,,,,
,,,,,56b8de29e1d0a200051517f8,001,42,female,American,Bachelor,2024-02-26_12h19.31.181,CRL1e,2023.2.3,MacIntel,76.92307692,65dbad3905fde4fe1981dc61,65dcc80629fb92e03946a6c4,,,,,,,,,,,454.468,1.1,455.561,455.562,456.402,left,0,0.828,,456.402,457.402,0,7,7,1,1,total,2,images/Ex5.jpg,right,reversed,easy,4,,,,,
,,,,,56b8de29e1d0a200051517f8,001,42,female,American,Bachelor,2024-02-26_12h19.31.181,CRL1e,2023.2.3,MacIntel,76.92307692,65dbad3905fde4fe1981dc61,65dcc80629fb92e03946a6c4,,,,,,,,,,,457.402,0.6,458.002,458.002,458.735,left,1,0.721,,458.735,459.736,1,0,8,6,1,total,2,images/Ex8.jpg,left,reversed,easy,4,,,,,
,,,,,56b8de29e1d0a200051517f8,001,42,female,American,Bachelor,2024-02-26_12h19.31.181,CRL1e,2023.2.3,MacIntel,76.92307692,65dbad3905fde4fe1981dc61,65dcc80629fb92e03946a6c4,,,,,,,,,,,459.737,1,460.736,460.736,461.203,left,1,0.463,,461.203,462.203,1,1,9,7,1,total,2,images/Ex8.jpg,left,reversed,easy,4,,,,,
,,,,,56b8de29e1d0a200051517f8,001,42,female,American,Bachelor,2024-02-26_12h19.31.181,CRL1e,2023.2.3,MacIntel,76.92307692,65dbad3905fde4fe1981dc61,65dcc80629fb92e03946a6c4,,,,,,,,,,,462.204,1.1,463.297,463.297,464.084,left,1,0.777,,464.084,465.085,1,2,10,4,1,total,2,images/Ex7.jpg,left,reversed,easy,4,,,,,
,,,,,56b8de29e1d0a200051517f8,001,42,female,American,Bachelor,2024-02-26_12h19.31.181,CRL1e,2023.2.3,MacIntel,76.92307692,65dbad3905fde4fe1981dc61,65dcc80629fb92e03946a6c4,,,,,,,,,,,465.085,1.4,466.485,466.485,467.312,right,1,0.82,,467.312,468.312,1,3,11,1,1,total,2,images/Ex5.jpg,right,reversed,easy,4,,,,,
,,,,,56b8de29e1d0a200051517f8,001,42,female,American,Bachelor,2024-02-26_12h19.31.181,CRL1e,2023.2.3,MacIntel,76.92307692,65dbad3905fde4fe1981dc61,65dcc80629fb92e03946a6c4,,,,,,,,,,,468.316,1.5,469.82,469.82,470.259,right,1,0.435,,470.259,471.26,1,4,12,0,1,total,2,images/Ex5.jpg,right,reversed,easy,4,,,,,
,,,,,56b8de29e1d0a200051517f8,001,42,female,American,Bachelor,2024-02-26_12h19.31.181,CRL1e,2023.2.3,MacIntel,76.92307692,65dbad3905fde4fe1981dc61,65dcc80629fb92e03946a6c4,,,,,,,,,,,471.26,1.4,472.66,472.66,473.341,left,1,0.675,,473.341,474.341,1,5,13,5,1,total,2,images/Ex7.jpg,left,reversed,easy,4,,,,,
,,,,,56b8de29e1d0a200051517f8,001,42,female,American,Bachelor,2024-02-26_12h19.31.181,CRL1e,2023.2.3,MacIntel,76.92307692,65dbad3905fde4fe1981dc61,65dcc80629fb92e03946a6c4,,,,,,,,,,,474.341,0.9,475.235,475.235,475.928,right,1,0.682,,475.928,476.929,1,6,14,2,1,total,2,images/Ex6.jpg,right,reversed,easy,4,,,,,
,,,,,56b8de29e1d0a200051517f8,001,42,female,American,Bachelor,2024-02-26_12h19.31.181,CRL1e,2023.2.3,MacIntel,76.92307692,65dbad3905fde4fe1981dc61,65dcc80629fb92e03946a6c4,,,,,,,,,,,476.93,1.1,478.023,478.023,478.556,right,1,0.53,,478.556,479.557,1,7,15,3,1,total,2,images/Ex6.jpg,right,reversed,easy,4,,,,,
,,,,,56b8de29e1d0a200051517f8,001,42,female,American,Bachelor,2024-02-26_12h19.31.181,CRL1e,2023.2.3,MacIntel,76.92307692,65dbad3905fde4fe1981dc61,65dcc80629fb92e03946a6c4,,,,,,,,,,,479.557,1.2,480.757,480.757,481.384,left,1,0.619,,481.384,482.384,2,0,16,5,1,total,2,images/Ex7.jpg,left,reversed,easy,4,,,,,
,,,,,56b8de29e1d0a200051517f8,001,42,female,American,Bachelor,2024-02-26_12h19.31.181,CRL1e,2023.2.3,MacIntel,76.92307692,65dbad3905fde4fe1981dc61,65dcc80629fb92e03946a6c4,,,,,,,,,,,482.385,1.2,483.584,483.585,484.091,left,1,0.498,,484.091,485.092,2,1,17,4,1,total,2,images/Ex7.jpg,left,reversed,easy,4,,,,,
,,,,,56b8de29e1d0a200051517f8,001,42,female,American,Bachelor,2024-02-26_12h19.31.181,CRL1e,2023.2.3,MacIntel,76.92307692,65dbad3905fde4fe1981dc61,65dcc80629fb92e03946a6c4,,,,,,,,,,,485.093,0.7,485.785,485.785,486.412,right,1,0.616,,486.412,487.411,2,2,18,3,1,total,2,images/Ex6.jpg,right,reversed,easy,4,,,,,
,,,,,56b8de29e1d0a200051517f8,001,42,female,American,Bachelor,2024-02-26_12h19.31.181,CRL1e,2023.2.3,MacIntel,76.92307692,65dbad3905fde4fe1981dc61,65dcc80629fb92e03946a6c4,,,,,,,,,,,487.412,1.2,488.613,488.613,489.32,left,1,0.694,,489.32,490.32,2,3,19,7,1,total,2,images/Ex8.jpg,left,reversed,easy,4,,,,,
,,,,,56b8de29e1d0a200051517f8,001,42,female,American,Bachelor,2024-02-26_12h19.31.181,CRL1e,2023.2.3,MacIntel,76.92307692,65dbad3905fde4fe1981dc61,65dcc80629fb92e03946a6c4,,,,,,,,,,,490.321,0.7,491.013,491.013,491.601,left,0,0.58,,491.601,492.601,2,4,20,1,1,total,2,images/Ex5.jpg,right,reversed,easy,4,,,,,
,,,,,56b8de29e1d0a200051517f8,001,42,female,American,Bachelor,2024-02-26_12h19.31.181,CRL1e,2023.2.3,MacIntel,76.92307692,65dbad3905fde4fe1981dc61,65dcc80629fb92e03946a6c4,,,,,,,,,,,492.601,1.2,493.801,493.801,494.428,right,1,0.624,,494.428,495.428,2,5,21,2,1,total,2,images/Ex6.jpg,right,reversed,easy,4,,,,,
,,,,,56b8de29e1d0a200051517f8,001,42,female,American,Bachelor,2024-02-26_12h19.31.181,CRL1e,2023.2.3,MacIntel,76.92307692,65dbad3905fde4fe1981dc61,65dcc80629fb92e03946a6c4,,,,,,,,,,,495.429,1.1,496.522,496.522,497.043,right,1,0.508,,497.043,498.042,2,6,22,0,1,total,2,images/Ex5.jpg,right,reversed,easy,4,,,,,
,,,,,56b8de29e1d0a200051517f8,001,42,female,American,Bachelor,2024-02-26_12h19.31.181,CRL1e,2023.2.3,MacIntel,76.92307692,65dbad3905fde4fe1981dc61,65dcc80629fb92e03946a6c4,,,,,,,,,,,498.043,1.4,499.443,499.444,500.257,right,0,0.804,,500.257,501.257,2,7,23,6,1,total,2,images/Ex8.jpg,left,reversed,easy,4,,,,,
,,,,,56b8de29e1d0a200051517f8,001,42,female,American,Bachelor,2024-02-26_12h19.31.181,CRL1e,2023.2.3,MacIntel,76.92307692,65dbad3905fde4fe1981dc61,65dcc80629fb92e03946a6c4,,,,,,,,,,,501.258,1,502.258,502.258,502.898,right,1,0.627,,502.898,503.898,3,0,24,1,1,total,2,images/Ex5.jpg,right,reversed,easy,4,,,,,
,,,,,56b8de29e1d0a200051517f8,001,42,female,American,Bachelor,2024-02-26_12h19.31.181,CRL1e,2023.2.3,MacIntel,76.92307692,65dbad3905fde4fe1981dc61,65dcc80629fb92e03946a6c4,,,,,,,,,,,503.899,0.9,504.792,504.792,505.419,left,1,0.624,,505.419,506.419,3,1,25,4,1,total,2,images/Ex7.jpg,left,reversed,easy,4,,,,,
,,,,,56b8de29e1d0a200051517f8,001,42,female,American,Bachelor,2024-02-26_12h19.31.181,CRL1e,2023.2.3,MacIntel,76.92307692,65dbad3905fde4fe1981dc61,65dcc80629fb92e03946a6c4,,,,,,,,,,,506.42,0.8,507.219,507.219,507.712,right,1,0.483,,507.712,508.713,3,2,26,3,1,total,2,images/Ex6.jpg,right,reversed,easy,4,,,,,
,,,,,56b8de29e1d0a200051517f8,001,42,female,American,Bachelor,2024-02-26_12h19.31.181,CRL1e,2023.2.3,MacIntel,76.92307692,65dbad3905fde4fe1981dc61,65dcc80629fb92e03946a6c4,,,,,,,,,,,508.714,0.9,509.608,509.608,510.14,left,1,0.52,,510.14,511.141,3,3,27,5,1,total,2,images/Ex7.jpg,left,reversed,easy,4,,,,,
,,,,,56b8de29e1d0a200051517f8,001,42,female,American,Bachelor,2024-02-26_12h19.31.181,CRL1e,2023.2.3,MacIntel,76.92307692,65dbad3905fde4fe1981dc61,65dcc80629fb92e03946a6c4,,,,,,,,,,,511.141,0.9,512.034,512.035,512.835,left,1,0.791,,512.835,513.835,3,4,28,6,1,total,2,images/Ex8.jpg,left,reversed,easy,4,,,,,
,,,,,56b8de29e1d0a200051517f8,001,42,female,American,Bachelor,2024-02-26_12h19.31.181,CRL1e,2023.2.3,MacIntel,76.92307692,65dbad3905fde4fe1981dc61,65dcc80629fb92e03946a6c4,,,,,,,,,,,513.836,0.9,514.729,514.729,515.262,right,1,0.526,,515.262,516.263,3,5,29,2,1,total,2,images/Ex6.jpg,right,reversed,easy,4,,,,,
,,,,,56b8de29e1d0a200051517f8,001,42,female,American,Bachelor,2024-02-26_12h19.31.181,CRL1e,2023.2.3,MacIntel,76.92307692,65dbad3905fde4fe1981dc61,65dcc80629fb92e03946a6c4,,,,,,,,,,,516.263,1.3,517.556,517.556,518.063,left,1,0.495,,518.063,519.063,3,6,30,7,1,total,2,images/Ex8.jpg,left,reversed,easy,4,,,,,
,,,,,56b8de29e1d0a200051517f8,001,42,female,American,Bachelor,2024-02-26_12h19.31.181,CRL1e,2023.2.3,MacIntel,76.92307692,65dbad3905fde4fe1981dc61,65dcc80629fb92e03946a6c4,,,,,,,,,,,519.064,1.1,520.157,520.158,520.558,right,1,0.394,,520.558,521.558,3,7,31,0,1,total,2,images/Ex5.jpg,right,reversed,easy,4,,,,,
,,,,,56b8de29e1d0a200051517f8,001,42,female,American,Bachelor,2024-02-26_12h19.31.181,CRL1e,2023.2.3,MacIntel,76.92307692,65dbad3905fde4fe1981dc61,65dcc80629fb92e03946a6c4,,,,,,,,,,,521.558,0.5,522.051,522.051,522.545,right,1,0.482,,522.545,523.545,4,0,32,1,1,total,2,images/Ex5.jpg,right,reversed,easy,4,,,,,
,,,,,56b8de29e1d0a200051517f8,001,42,female,American,Bachelor,2024-02-26_12h19.31.181,CRL1e,2023.2.3,MacIntel,76.92307692,65dbad3905fde4fe1981dc61,65dcc80629fb92e03946a6c4,,,,,,,,,,,523.546,0.9,524.439,524.439,524.986,left,1,0.537,,524.986,525.986,4,1,33,5,1,total,2,images/Ex7.jpg,left,reversed,easy,4,,,,,
,,,,,56b8de29e1d0a200051517f8,001,42,female,American,Bachelor,2024-02-26_12h19.31.181,CRL1e,2023.2.3,MacIntel,76.92307692,65dbad3905fde4fe1981dc61,65dcc80629fb92e03946a6c4,,,,,,,,,,,525.987,0.7,526.68,526.68,527.12,right,0,0.43,,527.12,528.12,4,2,34,7,1,total,2,images/Ex8.jpg,left,reversed,easy,4,,,,,
,,,,,56b8de29e1d0a200051517f8,001,42,female,American,Bachelor,2024-02-26_12h19.31.181,CRL1e,2023.2.3,MacIntel,76.92307692,65dbad3905fde4fe1981dc61,65dcc80629fb92e03946a6c4,,,,,,,,,,,528.121,1.4,529.521,529.521,529.974,right,1,0.441,,529.974,530.975,4,3,35,2,1,total,2,images/Ex6.jpg,right,reversed,easy,4,,,,,
,,,,,56b8de29e1d0a200051517f8,001,42,female,American,Bachelor,2024-02-26_12h19.31.181,CRL1e,2023.2.3,MacIntel,76.92307692,65dbad3905fde4fe1981dc61,65dcc80629fb92e03946a6c4,,,,,,,,,,,530.975,0.8,531.775,531.775,532.322,right,1,0.536,,532.322,533.322,4,4,36,3,1,total,2,images/Ex6.jpg,right,reversed,easy,4,,,,,
,,,,,56b8de29e1d0a200051517f8,001,42,female,American,Bachelor,2024-02-26_12h19.31.181,CRL1e,2023.2.3,MacIntel,76.92307692,65dbad3905fde4fe1981dc61,65dcc80629fb92e03946a6c4,,,,,,,,,,,533.323,0.9,534.216,534.216,534.576,left,1,0.349,,534.576,535.576,4,5,37,6,1,total,2,images/Ex8.jpg,left,reversed,easy,4,,,,,
,,,,,56b8de29e1d0a200051517f8,001,42,female,American,Bachelor,2024-02-26_12h19.31.181,CRL1e,2023.2.3,MacIntel,76.92307692,65dbad3905fde4fe1981dc61,65dcc80629fb92e03946a6c4,,,,,,,,,,,535.577,0.7,536.27,536.27,536.79,left,1,0.51,,536.79,537.79,4,6,38,4,1,total,2,images/Ex7.jpg,left,reversed,easy,4,,,,,
,,,,,56b8de29e1d0a200051517f8,001,42,female,American,Bachelor,2024-02-26_12h19.31.181,CRL1e,2023.2.3,MacIntel,76.92307692,65dbad3905fde4fe1981dc61,65dcc80629fb92e03946a6c4,,,,,,,,,,,537.791,1.2,538.991,538.991,539.525,right,1,0.521,,539.525,540.525,4,7,39,0,1,total,2,images/Ex5.jpg,right,reversed,easy,4,,,,,
,,,,,56b8de29e1d0a200051517f8,001,42,female,American,Bachelor,2024-02-26_12h19.31.181,CRL1e,2023.2.3,MacIntel,76.92307692,65dbad3905fde4fe1981dc61,65dcc80629fb92e03946a6c4,,,,,,,,,,,540.525,1.1,541.619,541.619,542.018,left,1,0.388,,542.018,543.019,5,0,40,6,1,total,2,images/Ex8.jpg,left,reversed,easy,4,,,,,
,,,,,56b8de29e1d0a200051517f8,001,42,female,American,Bachelor,2024-02-26_12h19.31.181,CRL1e,2023.2.3,MacIntel,76.92307692,65dbad3905fde4fe1981dc61,65dcc80629fb92e03946a6c4,,,,,,,,,,,543.02,1.2,544.219,544.219,544.646,right,1,0.418,,544.647,545.646,5,1,41,3,1,total,2,images/Ex6.jpg,right,reversed,easy,4,,,,,
,,,,,56b8de29e1d0a200051517f8,001,42,female,American,Bachelor,2024-02-26_12h19.31.181,CRL1e,2023.2.3,MacIntel,76.92307692,65dbad3905fde4fe1981dc61,65dcc80629fb92e03946a6c4,,,,,,,,,,,545.647,1,546.647,546.647,547.261,right,1,0.61,,547.261,548.261,5,2,42,1,1,total,2,images/Ex5.jpg,right,reversed,easy,4,,,,,
,,,,,56b8de29e1d0a200051517f8,001,42,female,American,Bachelor,2024-02-26_12h19.31.181,CRL1e,2023.2.3,MacIntel,76.92307692,65dbad3905fde4fe1981dc61,65dcc80629fb92e03946a6c4,,,,,,,,,,,548.262,1.1,549.355,549.355,549.781,right,1,0.422,,549.782,550.782,5,3,43,0,1,total,2,images/Ex5.jpg,right,reversed,easy,4,,,,,
,,,,,56b8de29e1d0a200051517f8,001,42,female,American,Bachelor,2024-02-26_12h19.31.181,CRL1e,2023.2.3,MacIntel,76.92307692,65dbad3905fde4fe1981dc61,65dcc80629fb92e03946a6c4,,,,,,,,,,,550.782,1.2,551.982,551.982,552.409,left,1,0.416,,552.409,553.409,5,4,44,7,1,total,2,images/Ex8.jpg,left,reversed,easy,4,,,,,
,,,,,56b8de29e1d0a200051517f8,001,42,female,American,Bachelor,2024-02-26_12h19.31.181,CRL1e,2023.2.3,MacIntel,76.92307692,65dbad3905fde4fe1981dc61,65dcc80629fb92e03946a6c4,,,,,,,,,,,553.409,0.7,554.102,554.103,554.556,right,0,0.448,,554.556,555.556,5,5,45,5,1,total,2,images/Ex7.jpg,left,reversed,easy,4,,,,,
,,,,,56b8de29e1d0a200051517f8,001,42,female,American,Bachelor,2024-02-26_12h19.31.181,CRL1e,2023.2.3,MacIntel,76.92307692,65dbad3905fde4fe1981dc61,65dcc80629fb92e03946a6c4,,,,,,,,,,,555.557,0.6,556.157,556.157,556.704,right,1,0.537,,556.704,557.704,5,6,46,2,1,total,2,images/Ex6.jpg,right,reversed,easy,4,,,,,
,,,,,56b8de29e1d0a200051517f8,001,42,female,American,Bachelor,2024-02-26_12h19.31.181,CRL1e,2023.2.3,MacIntel,76.92307692,65dbad3905fde4fe1981dc61,65dcc80629fb92e03946a6c4,,,,,,,,,,,557.705,1.4,559.105,559.105,559.505,left,1,0.39,,559.505,560.505,5,7,47,4,1,total,2,images/Ex7.jpg,left,reversed,easy,4,,,,,
,,,,,56b8de29e1d0a200051517f8,001,42,female,American,Bachelor,2024-02-26_12h19.31.181,CRL1e,2023.2.3,MacIntel,76.92307692,65dbad3905fde4fe1981dc61,65dcc80629fb92e03946a6c4,,,,,,,,,,,,,,,,,,,,,,,,,,,,,,,,,,560.506,582.807,space,22.28,