infCons.started,infCons.stopped,resp_consent.keys,resp_consent.rt,resp_consent.duration,participant,session,Age?,Gender?,Nationality?,Highest Educational Degree?,date,expName,psychopyVersion,OS,frameRate,STUDY_ID,SESSION_ID,instructions.started,instructions.stopped,resp_instructions.keys,resp_instructions.rt,resp_instructions.duration,nextTask.started,nextTask.stopped,ready_task.keys,ready_task.rt,ready_task.duration,fixation.started,ITI,fixation.stopped,stim.started,stim.stopped,response.keys,response.corr,response.rt,response.duration,feedback.started,feedback.stopped,trials.thisRepN,trials.thisTrialN,trials.thisN,trials.thisIndex,trials.ran,task,phase,Exemplars,r_correct,condition,difficulty,set,end.started,end.stopped,resp_end.keys,resp_end.rt,resp_end.duration
0.0003,9.5245,space,9.4912,,5c4f5967aac8be0001716a65,001,32,Male,Irish,Some College,2024-02-26_17h21.12.197,CRL1e,2023.2.3,Win32,59.88023952,65dbad3905fde4fe1981dc61,65dcc80546794a057b7402bb,,,,,,,,,,,,,,,,,,,,,,,,,,,,,,,,,,,,,,
,,,,,5c4f5967aac8be0001716a65,001,32,Male,Irish,Some College,2024-02-26_17h21.12.197,CRL1e,2023.2.3,Win32,59.88023952,65dbad3905fde4fe1981dc61,65dcc80546794a057b7402bb,9.5247,40.892,space,31.3479,,,,,,,,,,,,,,,,,,,,,,,,,,,,,,,,,,
,,,,,5c4f5967aac8be0001716a65,001,32,Male,Irish,Some College,2024-02-26_17h21.12.197,CRL1e,2023.2.3,Win32,59.88023952,65dbad3905fde4fe1981dc61,65dcc80546794a057b7402bb,,,,,,40.9007,57.209,space,16.2956,,57.2177,1.3,58.5088,58.5089,61.8924,right,0,3.3649,,61.8995,62.8922,0,0,0,1,1,partial,1,images/Ex1.jpg,left,training,easy,4,,,,,
,,,,,5c4f5967aac8be0001716a65,001,32,Male,Irish,Some College,2024-02-26_17h21.12.197,CRL1e,2023.2.3,Win32,59.88023952,65dbad3905fde4fe1981dc61,65dcc80546794a057b7402bb,,,,,,,,,,,62.8927,1.4,64.2924,64.2925,66.1091,left,1,1.8008,,66.1092,67.1092,0,1,1,2,1,partial,1,images/Ex2.jpg,left,training,easy,4,,,,,
,,,,,5c4f5967aac8be0001716a65,001,32,Male,Irish,Some College,2024-02-26_17h21.12.197,CRL1e,2023.2.3,Win32,59.88023952,65dbad3905fde4fe1981dc61,65dcc80546794a057b7402bb,,,,,,,,,,,67.1095,0.9,68.0089,68.0089,68.8257,left,0,0.8053,,68.8257,69.8255,0,2,2,7,1,partial,1,images/Ex4.jpg,right,training,easy,4,,,,,
,,,,,5c4f5967aac8be0001716a65,001,32,Male,Irish,Some College,2024-02-26_17h21.12.197,CRL1e,2023.2.3,Win32,59.88023952,65dbad3905fde4fe1981dc61,65dcc80546794a057b7402bb,,,,,,,,,,,69.826,0.7,70.5258,70.5258,71.3425,left,1,0.8032,,71.3425,72.3422,0,3,3,3,1,partial,1,images/Ex2.jpg,left,training,easy,4,,,,,
,,,,,5c4f5967aac8be0001716a65,001,32,Male,Irish,Some College,2024-02-26_17h21.12.197,CRL1e,2023.2.3,Win32,59.88023952,65dbad3905fde4fe1981dc61,65dcc80546794a057b7402bb,,,,,,,,,,,72.3426,0.7,73.0423,73.0424,73.9259,right,1,0.8716,,73.9259,74.9258,0,4,4,6,1,partial,1,images/Ex4.jpg,right,training,easy,4,,,,,
,,,,,5c4f5967aac8be0001716a65,001,32,Male,Irish,Some College,2024-02-26_17h21.12.197,CRL1e,2023.2.3,Win32,59.88023952,65dbad3905fde4fe1981dc61,65dcc80546794a057b7402bb,,,,,,,,,,,74.926,0.8,75.7258,75.7258,76.4593,left,1,0.7301,,76.4593,77.4591,0,5,5,0,1,partial,1,images/Ex1.jpg,left,training,easy,4,,,,,
,,,,,5c4f5967aac8be0001716a65,001,32,Male,Irish,Some College,2024-02-26_17h21.12.197,CRL1e,2023.2.3,Win32,59.88023952,65dbad3905fde4fe1981dc61,65dcc80546794a057b7402bb,,,,,,,,,,,77.4594,0.5,77.9593,77.9593,78.626,right,1,0.6657,,78.626,79.6258,0,6,6,5,1,partial,1,images/Ex3.jpg,right,training,easy,4,,,,,
,,,,,5c4f5967aac8be0001716a65,001,32,Male,Irish,Some College,2024-02-26_17h21.12.197,CRL1e,2023.2.3,Win32,59.88023952,65dbad3905fde4fe1981dc61,65dcc80546794a057b7402bb,,,,,,,,,,,79.6261,1.2,80.8259,80.8259,81.4261,right,1,0.5981,,81.4261,82.426,0,7,7,4,1,partial,1,images/Ex3.jpg,right,training,easy,4,,,,,
,,,,,5c4f5967aac8be0001716a65,001,32,Male,Irish,Some College,2024-02-26_17h21.12.197,CRL1e,2023.2.3,Win32,59.88023952,65dbad3905fde4fe1981dc61,65dcc80546794a057b7402bb,,,,,,,,,,,82.4264,1.3,83.7262,83.7262,84.5762,right,1,0.8448,,84.5762,85.5761,1,0,8,6,1,partial,1,images/Ex4.jpg,right,training,easy,4,,,,,
,,,,,5c4f5967aac8be0001716a65,001,32,Male,Irish,Some College,2024-02-26_17h21.12.197,CRL1e,2023.2.3,Win32,59.88023952,65dbad3905fde4fe1981dc61,65dcc80546794a057b7402bb,,,,,,,,,,,85.5764,1.3,86.8772,86.8772,87.8595,left,1,0.969,,87.8595,88.8594,1,1,9,1,1,partial,1,images/Ex1.jpg,left,training,easy,4,,,,,
,,,,,5c4f5967aac8be0001716a65,001,32,Male,Irish,Some College,2024-02-26_17h21.12.197,CRL1e,2023.2.3,Win32,59.88023952,65dbad3905fde4fe1981dc61,65dcc80546794a057b7402bb,,,,,,,,,,,88.8597,1.3,90.1593,90.1594,90.793,right,1,0.6179,,90.793,91.7928,1,2,10,4,1,partial,1,images/Ex3.jpg,right,training,easy,4,,,,,
,,,,,5c4f5967aac8be0001716a65,001,32,Male,Irish,Some College,2024-02-26_17h21.12.197,CRL1e,2023.2.3,Win32,59.88023952,65dbad3905fde4fe1981dc61,65dcc80546794a057b7402bb,,,,,,,,,,,91.7932,0.5,92.2927,92.2927,93.2433,left,1,0.9405,,93.2433,94.2431,1,3,11,3,1,partial,1,images/Ex2.jpg,left,training,easy,4,,,,,
,,,,,5c4f5967aac8be0001716a65,001,32,Male,Irish,Some College,2024-02-26_17h21.12.197,CRL1e,2023.2.3,Win32,59.88023952,65dbad3905fde4fe1981dc61,65dcc80546794a057b7402bb,,,,,,,,,,,94.2434,0.7,94.9428,94.9428,95.743,right,1,0.7956,,95.7431,96.7436,1,4,12,7,1,partial,1,images/Ex4.jpg,right,training,easy,4,,,,,
,,,,,5c4f5967aac8be0001716a65,001,32,Male,Irish,Some College,2024-02-26_17h21.12.197,CRL1e,2023.2.3,Win32,59.88023952,65dbad3905fde4fe1981dc61,65dcc80546794a057b7402bb,,,,,,,,,,,96.7439,1.4,98.1429,98.1429,99.0098,left,1,0.8652,,99.0099,100.0097,1,5,13,0,1,partial,1,images/Ex1.jpg,left,training,easy,4,,,,,
,,,,,5c4f5967aac8be0001716a65,001,32,Male,Irish,Some College,2024-02-26_17h21.12.197,CRL1e,2023.2.3,Win32,59.88023952,65dbad3905fde4fe1981dc61,65dcc80546794a057b7402bb,,,,,,,,,,,100.0101,0.9,100.9104,100.9104,101.6932,left,1,0.7734,,101.6932,102.6933,1,6,14,2,1,partial,1,images/Ex2.jpg,left,training,easy,4,,,,,
,,,,,5c4f5967aac8be0001716a65,001,32,Male,Irish,Some College,2024-02-26_17h21.12.197,CRL1e,2023.2.3,Win32,59.88023952,65dbad3905fde4fe1981dc61,65dcc80546794a057b7402bb,,,,,,,,,,,102.6936,0.9,103.5932,103.5933,104.2601,right,1,0.6643,,104.2601,105.26,1,7,15,5,1,partial,1,images/Ex3.jpg,right,training,easy,4,,,,,
,,,,,5c4f5967aac8be0001716a65,001,32,Male,Irish,Some College,2024-02-26_17h21.12.197,CRL1e,2023.2.3,Win32,59.88023952,65dbad3905fde4fe1981dc61,65dcc80546794a057b7402bb,,,,,,,,,,,105.2603,0.7,105.96,105.96,106.6434,right,1,0.6737,,106.6434,107.6436,2,0,16,7,1,partial,1,images/Ex4.jpg,right,training,easy,4,,,,,
,,,,,5c4f5967aac8be0001716a65,001,32,Male,Irish,Some College,2024-02-26_17h21.12.197,CRL1e,2023.2.3,Win32,59.88023952,65dbad3905fde4fe1981dc61,65dcc80546794a057b7402bb,,,,,,,,,,,107.6438,1.3,108.9438,108.9438,109.7102,left,1,0.7634,,109.7102,110.7107,2,1,17,3,1,partial,1,images/Ex2.jpg,left,training,easy,4,,,,,
,,,,,5c4f5967aac8be0001716a65,001,32,Male,Irish,Some College,2024-02-26_17h21.12.197,CRL1e,2023.2.3,Win32,59.88023952,65dbad3905fde4fe1981dc61,65dcc80546794a057b7402bb,,,,,,,,,,,110.7108,0.9,111.61,111.61,112.2103,left,1,0.5864,,112.2103,113.2101,2,2,18,2,1,partial,1,images/Ex2.jpg,left,training,easy,4,,,,,
,,,,,5c4f5967aac8be0001716a65,001,32,Male,Irish,Some College,2024-02-26_17h21.12.197,CRL1e,2023.2.3,Win32,59.88023952,65dbad3905fde4fe1981dc61,65dcc80546794a057b7402bb,,,,,,,,,,,113.2104,0.5,113.7103,113.7104,114.3934,right,1,0.682,,114.3935,115.3936,2,3,19,4,1,partial,1,images/Ex3.jpg,right,training,easy,4,,,,,
,,,,,5c4f5967aac8be0001716a65,001,32,Male,Irish,Some College,2024-02-26_17h21.12.197,CRL1e,2023.2.3,Win32,59.88023952,65dbad3905fde4fe1981dc61,65dcc80546794a057b7402bb,,,,,,,,,,,115.394,1.3,116.6937,116.6938,117.5605,left,1,0.8525,,117.5605,118.5602,2,4,20,1,1,partial,1,images/Ex1.jpg,left,training,easy,4,,,,,
,,,,,5c4f5967aac8be0001716a65,001,32,Male,Irish,Some College,2024-02-26_17h21.12.197,CRL1e,2023.2.3,Win32,59.88023952,65dbad3905fde4fe1981dc61,65dcc80546794a057b7402bb,,,,,,,,,,,118.5604,1,119.5603,119.5603,120.0437,left,1,0.469,,120.0438,121.0436,2,5,21,0,1,partial,1,images/Ex1.jpg,left,training,easy,4,,,,,
,,,,,5c4f5967aac8be0001716a65,001,32,Male,Irish,Some College,2024-02-26_17h21.12.197,CRL1e,2023.2.3,Win32,59.88023952,65dbad3905fde4fe1981dc61,65dcc80546794a057b7402bb,,,,,,,,,,,121.044,1.3,122.3435,122.3436,123.0104,right,1,0.6528,,123.0104,124.0103,2,6,22,6,1,partial,1,images/Ex4.jpg,right,training,easy,4,,,,,
,,,,,5c4f5967aac8be0001716a65,001,32,Male,Irish,Some College,2024-02-26_17h21.12.197,CRL1e,2023.2.3,Win32,59.88023952,65dbad3905fde4fe1981dc61,65dcc80546794a057b7402bb,,,,,,,,,,,124.0108,0.7,124.7103,124.7103,125.3272,right,1,0.61,,125.3272,126.3281,2,7,23,5,1,partial,1,images/Ex3.jpg,right,training,easy,4,,,,,
,,,,,5c4f5967aac8be0001716a65,001,32,Male,Irish,Some College,2024-02-26_17h21.12.197,CRL1e,2023.2.3,Win32,59.88023952,65dbad3905fde4fe1981dc61,65dcc80546794a057b7402bb,,,,,,,,,,,126.3284,0.6,126.927,126.9272,127.6772,left,1,0.738,,127.6773,128.6771,3,0,24,3,1,partial,1,images/Ex2.jpg,left,training,easy,4,,,,,
,,,,,5c4f5967aac8be0001716a65,001,32,Male,Irish,Some College,2024-02-26_17h21.12.197,CRL1e,2023.2.3,Win32,59.88023952,65dbad3905fde4fe1981dc61,65dcc80546794a057b7402bb,,,,,,,,,,,128.6774,1.5,130.1771,130.1771,130.8946,right,1,0.7008,,130.8947,131.8954,3,1,25,5,1,partial,1,images/Ex3.jpg,right,training,easy,4,,,,,
,,,,,5c4f5967aac8be0001716a65,001,32,Male,Irish,Some College,2024-02-26_17h21.12.197,CRL1e,2023.2.3,Win32,59.88023952,65dbad3905fde4fe1981dc61,65dcc80546794a057b7402bb,,,,,,,,,,,131.8955,0.9,132.7939,132.794,133.8944,right,1,1.0932,,133.8945,134.8939,3,2,26,7,1,partial,1,images/Ex4.jpg,right,training,easy,4,,,,,
,,,,,5c4f5967aac8be0001716a65,001,32,Male,Irish,Some College,2024-02-26_17h21.12.197,CRL1e,2023.2.3,Win32,59.88023952,65dbad3905fde4fe1981dc61,65dcc80546794a057b7402bb,,,,,,,,,,,134.8941,1,135.8942,135.8942,136.9945,left,1,1.093,,136.9946,137.9939,3,3,27,0,1,partial,1,images/Ex1.jpg,left,training,easy,4,,,,,
,,,,,5c4f5967aac8be0001716a65,001,32,Male,Irish,Some College,2024-02-26_17h21.12.197,CRL1e,2023.2.3,Win32,59.88023952,65dbad3905fde4fe1981dc61,65dcc80546794a057b7402bb,,,,,,,,,,,137.9942,1.3,139.2942,139.2942,140.111,right,1,0.8042,,140.1112,141.1109,3,4,28,4,1,partial,1,images/Ex3.jpg,right,training,easy,4,,,,,
,,,,,5c4f5967aac8be0001716a65,001,32,Male,Irish,Some College,2024-02-26_17h21.12.197,CRL1e,2023.2.3,Win32,59.88023952,65dbad3905fde4fe1981dc61,65dcc80546794a057b7402bb,,,,,,,,,,,141.1112,1.2,142.3111,142.3112,143.5617,left,1,1.2339,,143.5618,144.561,3,5,29,1,1,partial,1,images/Ex1.jpg,left,training,easy,4,,,,,
,,,,,5c4f5967aac8be0001716a65,001,32,Male,Irish,Some College,2024-02-26_17h21.12.197,CRL1e,2023.2.3,Win32,59.88023952,65dbad3905fde4fe1981dc61,65dcc80546794a057b7402bb,,,,,,,,,,,144.5613,0.5,145.0609,145.0609,145.7281,right,1,0.6634,,145.7282,146.7277,3,6,30,6,1,partial,1,images/Ex4.jpg,right,training,easy,4,,,,,
,,,,,5c4f5967aac8be0001716a65,001,32,Male,Irish,Some College,2024-02-26_17h21.12.197,CRL1e,2023.2.3,Win32,59.88023952,65dbad3905fde4fe1981dc61,65dcc80546794a057b7402bb,,,,,,,,,,,146.7279,1.1,147.8279,147.8279,148.4612,left,1,0.6204,,148.4612,149.4615,3,7,31,2,1,partial,1,images/Ex2.jpg,left,training,easy,4,,,,,
,,,,,5c4f5967aac8be0001716a65,001,32,Male,Irish,Some College,2024-02-26_17h21.12.197,CRL1e,2023.2.3,Win32,59.88023952,65dbad3905fde4fe1981dc61,65dcc80546794a057b7402bb,,,,,,,,,,,149.4617,0.9,150.3611,150.3611,150.9612,right,1,0.5852,,150.9613,151.9611,4,0,32,7,1,partial,1,images/Ex4.jpg,right,training,easy,4,,,,,
,,,,,5c4f5967aac8be0001716a65,001,32,Male,Irish,Some College,2024-02-26_17h21.12.197,CRL1e,2023.2.3,Win32,59.88023952,65dbad3905fde4fe1981dc61,65dcc80546794a057b7402bb,,,,,,,,,,,151.9614,0.7,152.6613,152.6613,153.378,right,1,0.7051,,153.378,154.3778,4,1,33,4,1,partial,1,images/Ex3.jpg,right,training,easy,4,,,,,
,,,,,5c4f5967aac8be0001716a65,001,32,Male,Irish,Some College,2024-02-26_17h21.12.197,CRL1e,2023.2.3,Win32,59.88023952,65dbad3905fde4fe1981dc61,65dcc80546794a057b7402bb,,,,,,,,,,,154.3781,0.5,154.8778,154.8779,155.495,left,1,0.6042,,155.495,156.4947,4,2,34,0,1,partial,1,images/Ex1.jpg,left,training,easy,4,,,,,
,,,,,5c4f5967aac8be0001716a65,001,32,Male,Irish,Some College,2024-02-26_17h21.12.197,CRL1e,2023.2.3,Win32,59.88023952,65dbad3905fde4fe1981dc61,65dcc80546794a057b7402bb,,,,,,,,,,,156.495,1.5,157.9946,157.9946,159.4788,left,1,1.4835,,159.4788,160.478,4,3,35,1,1,partial,1,images/Ex1.jpg,left,training,easy,4,,,,,
,,,,,5c4f5967aac8be0001716a65,001,32,Male,Irish,Some College,2024-02-26_17h21.12.197,CRL1e,2023.2.3,Win32,59.88023952,65dbad3905fde4fe1981dc61,65dcc80546794a057b7402bb,,,,,,,,,,,160.4782,1.4,161.8796,161.8796,163.1952,right,1,1.3084,,163.1953,164.1948,4,4,36,5,1,partial,1,images/Ex3.jpg,right,training,easy,4,,,,,
,,,,,5c4f5967aac8be0001716a65,001,32,Male,Irish,Some College,2024-02-26_17h21.12.197,CRL1e,2023.2.3,Win32,59.88023952,65dbad3905fde4fe1981dc61,65dcc80546794a057b7402bb,,,,,,,,,,,164.1951,0.7,164.8949,164.8949,165.7615,left,1,0.8563,,165.7616,166.7616,4,5,37,2,1,partial,1,images/Ex2.jpg,left,training,easy,4,,,,,
,,,,,5c4f5967aac8be0001716a65,001,32,Male,Irish,Some College,2024-02-26_17h21.12.197,CRL1e,2023.2.3,Win32,59.88023952,65dbad3905fde4fe1981dc61,65dcc80546794a057b7402bb,,,,,,,,,,,166.7619,1.3,168.062,168.0621,168.6451,left,1,0.5771,,168.6451,169.6453,4,6,38,3,1,partial,1,images/Ex2.jpg,left,training,easy,4,,,,,
,,,,,5c4f5967aac8be0001716a65,001,32,Male,Irish,Some College,2024-02-26_17h21.12.197,CRL1e,2023.2.3,Win32,59.88023952,65dbad3905fde4fe1981dc61,65dcc80546794a057b7402bb,,,,,,,,,,,169.6455,0.9,170.5464,170.5464,171.2285,right,1,0.6716,,171.2285,172.2286,4,7,39,6,1,partial,1,images/Ex4.jpg,right,training,easy,4,,,,,
,,,,,5c4f5967aac8be0001716a65,001,32,Male,Irish,Some College,2024-02-26_17h21.12.197,CRL1e,2023.2.3,Win32,59.88023952,65dbad3905fde4fe1981dc61,65dcc80546794a057b7402bb,,,,,,,,,,,172.2289,0.6,172.8285,172.8285,173.4284,left,1,0.5955,,173.4285,174.4285,5,0,40,3,1,partial,1,images/Ex2.jpg,left,training,easy,4,,,,,
,,,,,5c4f5967aac8be0001716a65,001,32,Male,Irish,Some College,2024-02-26_17h21.12.197,CRL1e,2023.2.3,Win32,59.88023952,65dbad3905fde4fe1981dc61,65dcc80546794a057b7402bb,,,,,,,,,,,174.4288,1.4,175.8285,175.8286,176.5296,left,1,0.6964,,176.5297,177.5286,5,1,41,1,1,partial,1,images/Ex1.jpg,left,training,easy,4,,,,,
,,,,,5c4f5967aac8be0001716a65,001,32,Male,Irish,Some College,2024-02-26_17h21.12.197,CRL1e,2023.2.3,Win32,59.88023952,65dbad3905fde4fe1981dc61,65dcc80546794a057b7402bb,,,,,,,,,,,177.529,0.8,178.3286,178.3287,180.1625,right,1,1.8283,,180.1625,181.1625,5,2,42,4,1,partial,1,images/Ex3.jpg,right,training,easy,4,,,,,
,,,,,5c4f5967aac8be0001716a65,001,32,Male,Irish,Some College,2024-02-26_17h21.12.197,CRL1e,2023.2.3,Win32,59.88023952,65dbad3905fde4fe1981dc61,65dcc80546794a057b7402bb,,,,,,,,,,,181.1629,0.8,181.9622,181.9622,182.9289,right,1,0.9602,,182.9289,183.9288,5,3,43,5,1,partial,1,images/Ex3.jpg,right,training,easy,4,,,,,
,,,,,5c4f5967aac8be0001716a65,001,32,Male,Irish,Some College,2024-02-26_17h21.12.197,CRL1e,2023.2.3,Win32,59.88023952,65dbad3905fde4fe1981dc61,65dcc80546794a057b7402bb,,,,,,,,,,,183.9291,1.3,185.2287,185.2288,186.8956,right,1,1.6602,,186.8956,187.8956,5,4,44,6,1,partial,1,images/Ex4.jpg,right,training,easy,4,,,,,
,,,,,5c4f5967aac8be0001716a65,001,32,Male,Irish,Some College,2024-02-26_17h21.12.197,CRL1e,2023.2.3,Win32,59.88023952,65dbad3905fde4fe1981dc61,65dcc80546794a057b7402bb,,,,,,,,,,,187.9021,0.9,188.7955,188.7956,189.4956,left,1,0.6856,,189.4956,190.4957,5,5,45,2,1,partial,1,images/Ex2.jpg,left,training,easy,4,,,,,
,,,,,5c4f5967aac8be0001716a65,001,32,Male,Irish,Some College,2024-02-26_17h21.12.197,CRL1e,2023.2.3,Win32,59.88023952,65dbad3905fde4fe1981dc61,65dcc80546794a057b7402bb,,,,,,,,,,,190.4961,0.7,191.1956,191.1957,192.2457,right,1,1.0375,,192.2457,193.2456,5,6,46,7,1,partial,1,images/Ex4.jpg,right,training,easy,4,,,,,
,,,,,5c4f5967aac8be0001716a65,001,32,Male,Irish,Some College,2024-02-26_17h21.12.197,CRL1e,2023.2.3,Win32,59.88023952,65dbad3905fde4fe1981dc61,65dcc80546794a057b7402bb,,,,,,,,,,,193.2459,0.7,193.9457,193.9457,194.7625,left,1,0.8134,,194.7625,195.7623,5,7,47,0,1,partial,1,images/Ex1.jpg,left,training,easy,4,,,,,
,,,,,5c4f5967aac8be0001716a65,001,32,Male,Irish,Some College,2024-02-26_17h21.12.197,CRL1e,2023.2.3,Win32,59.88023952,65dbad3905fde4fe1981dc61,65dcc80546794a057b7402bb,,,,,,,,,,,195.7649,0.8,196.5623,196.5624,197.4962,right,1,0.9194,,197.4962,198.4958,0,0,0,6,1,partial,2,images/Ex4.jpg,right,nonreversed,easy,4,,,,,
,,,,,5c4f5967aac8be0001716a65,001,32,Male,Irish,Some College,2024-02-26_17h21.12.197,CRL1e,2023.2.3,Win32,59.88023952,65dbad3905fde4fe1981dc61,65dcc80546794a057b7402bb,,,,,,,,,,,198.4962,1,199.4975,199.4975,200.3463,left,0,0.8454,,200.3463,201.3458,0,1,1,0,1,partial,2,images/Ex1.jpg,right,reversed,easy,4,,,,,
,,,,,5c4f5967aac8be0001716a65,001,32,Male,Irish,Some College,2024-02-26_17h21.12.197,CRL1e,2023.2.3,Win32,59.88023952,65dbad3905fde4fe1981dc61,65dcc80546794a057b7402bb,,,,,,,,,,,201.3461,1.3,202.6459,202.6459,203.2962,left,1,0.643,,203.2963,204.2959,0,2,2,2,1,partial,2,images/Ex2.jpg,left,nonreversed,easy,4,,,,,
,,,,,5c4f5967aac8be0001716a65,001,32,Male,Irish,Some College,2024-02-26_17h21.12.197,CRL1e,2023.2.3,Win32,59.88023952,65dbad3905fde4fe1981dc61,65dcc80546794a057b7402bb,,,,,,,,,,,204.2961,1,205.296,205.2961,206.6795,right,0,1.3753,,206.6795,207.6793,0,3,3,5,1,partial,2,images/Ex3.jpg,left,reversed,easy,4,,,,,
,,,,,5c4f5967aac8be0001716a65,001,32,Male,Irish,Some College,2024-02-26_17h21.12.197,CRL1e,2023.2.3,Win32,59.88023952,65dbad3905fde4fe1981dc61,65dcc80546794a057b7402bb,,,,,,,,,,,207.6858,0.7,208.3795,208.3795,209.5296,right,0,1.1366,,209.5296,210.5296,0,4,4,4,1,partial,2,images/Ex3.jpg,left,reversed,easy,4,,,,,
,,,,,5c4f5967aac8be0001716a65,001,32,Male,Irish,Some College,2024-02-26_17h21.12.197,CRL1e,2023.2.3,Win32,59.88023952,65dbad3905fde4fe1981dc61,65dcc80546794a057b7402bb,,,,,,,,,,,210.5299,1.1,211.6296,211.6296,212.4297,left,0,0.7852,,212.4297,213.4295,0,5,5,1,1,partial,2,images/Ex1.jpg,right,reversed,easy,4,,,,,
,,,,,5c4f5967aac8be0001716a65,001,32,Male,Irish,Some College,2024-02-26_17h21.12.197,CRL1e,2023.2.3,Win32,59.88023952,65dbad3905fde4fe1981dc61,65dcc80546794a057b7402bb,,,,,,,,,,,213.4299,1.2,214.6299,214.6299,215.4466,left,0,0.8047,,215.4466,216.4463,0,6,6,7,1,partial,2,images/Ex4.jpg,right,nonreversed,easy,4,,,,,
,,,,,5c4f5967aac8be0001716a65,001,32,Male,Irish,Some College,2024-02-26_17h21.12.197,CRL1e,2023.2.3,Win32,59.88023952,65dbad3905fde4fe1981dc61,65dcc80546794a057b7402bb,,,,,,,,,,,216.4466,1,217.4463,217.4463,218.3966,left,1,0.9402,,218.3966,219.3963,0,7,7,3,1,partial,2,images/Ex2.jpg,left,nonreversed,easy,4,,,,,
,,,,,5c4f5967aac8be0001716a65,001,32,Male,Irish,Some College,2024-02-26_17h21.12.197,CRL1e,2023.2.3,Win32,59.88023952,65dbad3905fde4fe1981dc61,65dcc80546794a057b7402bb,,,,,,,,,,,219.3967,0.7,220.0967,220.0967,221.63,right,1,1.522,,221.6301,222.6296,1,0,8,0,1,partial,2,images/Ex1.jpg,right,reversed,easy,4,,,,,
,,,,,5c4f5967aac8be0001716a65,001,32,Male,Irish,Some College,2024-02-26_17h21.12.197,CRL1e,2023.2.3,Win32,59.88023952,65dbad3905fde4fe1981dc61,65dcc80546794a057b7402bb,,,,,,,,,,,222.63,1.1,223.731,223.731,224.4307,left,1,0.6899,,224.4308,225.4299,1,1,9,3,1,partial,2,images/Ex2.jpg,left,nonreversed,easy,4,,,,,
,,,,,5c4f5967aac8be0001716a65,001,32,Male,Irish,Some College,2024-02-26_17h21.12.197,CRL1e,2023.2.3,Win32,59.88023952,65dbad3905fde4fe1981dc61,65dcc80546794a057b7402bb,,,,,,,,,,,225.4303,1.4,226.8299,226.8299,227.8472,right,1,1.0167,,227.8472,228.8479,1,2,10,6,1,partial,2,images/Ex4.jpg,right,nonreversed,easy,4,,,,,
,,,,,5c4f5967aac8be0001716a65,001,32,Male,Irish,Some College,2024-02-26_17h21.12.197,CRL1e,2023.2.3,Win32,59.88023952,65dbad3905fde4fe1981dc61,65dcc80546794a057b7402bb,,,,,,,,,,,228.848,1.5,230.3466,230.3466,231.5634,right,0,1.2114,,231.5634,232.5635,1,3,11,5,1,partial,2,images/Ex3.jpg,left,reversed,easy,4,,,,,
,,,,,5c4f5967aac8be0001716a65,001,32,Male,Irish,Some College,2024-02-26_17h21.12.197,CRL1e,2023.2.3,Win32,59.88023952,65dbad3905fde4fe1981dc61,65dcc80546794a057b7402bb,,,,,,,,,,,232.5638,1.4,233.9634,233.9635,234.6979,right,1,0.7214,,234.698,235.6971,1,4,12,7,1,partial,2,images/Ex4.jpg,right,nonreversed,easy,4,,,,,
,,,,,5c4f5967aac8be0001716a65,001,32,Male,Irish,Some College,2024-02-26_17h21.12.197,CRL1e,2023.2.3,Win32,59.88023952,65dbad3905fde4fe1981dc61,65dcc80546794a057b7402bb,,,,,,,,,,,235.6975,1.5,237.1969,237.1969,237.9804,left,1,0.7789,,237.9805,238.9802,1,5,13,2,1,partial,2,images/Ex2.jpg,left,nonreversed,easy,4,,,,,
,,,,,5c4f5967aac8be0001716a65,001,32,Male,Irish,Some College,2024-02-26_17h21.12.197,CRL1e,2023.2.3,Win32,59.88023952,65dbad3905fde4fe1981dc61,65dcc80546794a057b7402bb,,,,,,,,,,,238.9805,1.1,240.0804,240.0804,241.048,left,0,0.9536,,241.048,242.047,1,6,14,1,1,partial,2,images/Ex1.jpg,right,reversed,easy,4,,,,,
,,,,,5c4f5967aac8be0001716a65,001,32,Male,Irish,Some College,2024-02-26_17h21.12.197,CRL1e,2023.2.3,Win32,59.88023952,65dbad3905fde4fe1981dc61,65dcc80546794a057b7402bb,,,,,,,,,,,242.0473,0.8,242.847,242.8471,243.8473,right,0,0.9951,,243.8473,244.8471,1,7,15,4,1,partial,2,images/Ex3.jpg,left,reversed,easy,4,,,,,
,,,,,5c4f5967aac8be0001716a65,001,32,Male,Irish,Some College,2024-02-26_17h21.12.197,CRL1e,2023.2.3,Win32,59.88023952,65dbad3905fde4fe1981dc61,65dcc80546794a057b7402bb,,,,,,,,,,,244.8475,1.1,245.9472,245.9473,246.9637,right,1,1.0155,,246.9638,247.9639,2,0,16,6,1,partial,2,images/Ex4.jpg,right,nonreversed,easy,4,,,,,
,,,,,5c4f5967aac8be0001716a65,001,32,Male,Irish,Some College,2024-02-26_17h21.12.197,CRL1e,2023.2.3,Win32,59.88023952,65dbad3905fde4fe1981dc61,65dcc80546794a057b7402bb,,,,,,,,,,,247.9642,1.1,249.0639,249.064,249.631,right,1,0.5534,,249.631,250.6306,2,1,17,7,1,partial,2,images/Ex4.jpg,right,nonreversed,easy,4,,,,,
,,,,,5c4f5967aac8be0001716a65,001,32,Male,Irish,Some College,2024-02-26_17h21.12.197,CRL1e,2023.2.3,Win32,59.88023952,65dbad3905fde4fe1981dc61,65dcc80546794a057b7402bb,,,,,,,,,,,250.6309,1.3,251.931,251.931,252.5481,left,1,0.6164,,252.5481,253.5474,2,2,18,2,1,partial,2,images/Ex2.jpg,left,nonreversed,easy,4,,,,,
,,,,,5c4f5967aac8be0001716a65,001,32,Male,Irish,Some College,2024-02-26_17h21.12.197,CRL1e,2023.2.3,Win32,59.88023952,65dbad3905fde4fe1981dc61,65dcc80546794a057b7402bb,,,,,,,,,,,253.5477,0.8,254.3474,254.3474,255.3976,left,0,1.0396,,255.3977,256.3975,2,3,19,0,1,partial,2,images/Ex1.jpg,right,reversed,easy,4,,,,,
,,,,,5c4f5967aac8be0001716a65,001,32,Male,Irish,Some College,2024-02-26_17h21.12.197,CRL1e,2023.2.3,Win32,59.88023952,65dbad3905fde4fe1981dc61,65dcc80546794a057b7402bb,,,,,,,,,,,256.3977,0.6,256.9975,256.9975,257.631,left,1,0.6275,,257.6311,258.6308,2,4,20,3,1,partial,2,images/Ex2.jpg,left,nonreversed,easy,4,,,,,
,,,,,5c4f5967aac8be0001716a65,001,32,Male,Irish,Some College,2024-02-26_17h21.12.197,CRL1e,2023.2.3,Win32,59.88023952,65dbad3905fde4fe1981dc61,65dcc80546794a057b7402bb,,,,,,,,,,,258.6312,1.2,259.8311,259.8312,260.7978,left,1,0.9576,,260.7979,261.7976,2,5,21,4,1,partial,2,images/Ex3.jpg,left,reversed,easy,4,,,,,
,,,,,5c4f5967aac8be0001716a65,001,32,Male,Irish,Some College,2024-02-26_17h21.12.197,CRL1e,2023.2.3,Win32,59.88023952,65dbad3905fde4fe1981dc61,65dcc80546794a057b7402bb,,,,,,,,,,,261.7978,1.4,263.1977,263.1977,263.7811,left,1,0.5805,,263.7812,264.7811,2,6,22,5,1,partial,2,images/Ex3.jpg,left,reversed,easy,4,,,,,
,,,,,5c4f5967aac8be0001716a65,001,32,Male,Irish,Some College,2024-02-26_17h21.12.197,CRL1e,2023.2.3,Win32,59.88023952,65dbad3905fde4fe1981dc61,65dcc80546794a057b7402bb,,,,,,,,,,,264.7813,0.8,265.581,265.581,266.7147,right,1,1.132,,266.7147,267.7146,2,7,23,1,1,partial,2,images/Ex1.jpg,right,reversed,easy,4,,,,,
,,,,,5c4f5967aac8be0001716a65,001,32,Male,Irish,Some College,2024-02-26_17h21.12.197,CRL1e,2023.2.3,Win32,59.88023952,65dbad3905fde4fe1981dc61,65dcc80546794a057b7402bb,,,,,,,,,,,267.7149,1.3,269.0145,269.0146,269.6313,left,1,0.6022,,269.6313,270.6312,3,0,24,3,1,partial,2,images/Ex2.jpg,left,nonreversed,easy,4,,,,,
,,,,,5c4f5967aac8be0001716a65,001,32,Male,Irish,Some College,2024-02-26_17h21.12.197,CRL1e,2023.2.3,Win32,59.88023952,65dbad3905fde4fe1981dc61,65dcc80546794a057b7402bb,,,,,,,,,,,270.6315,1.5,272.1313,272.1314,272.8814,right,1,0.7394,,272.8814,273.8813,3,1,25,1,1,partial,2,images/Ex1.jpg,right,reversed,easy,4,,,,,
,,,,,5c4f5967aac8be0001716a65,001,32,Male,Irish,Some College,2024-02-26_17h21.12.197,CRL1e,2023.2.3,Win32,59.88023952,65dbad3905fde4fe1981dc61,65dcc80546794a057b7402bb,,,,,,,,,,,273.8816,0.8,274.6813,274.6814,276.2815,right,1,1.5873,,276.2815,277.2813,3,2,26,6,1,partial,2,images/Ex4.jpg,right,nonreversed,easy,4,,,,,
,,,,,5c4f5967aac8be0001716a65,001,32,Male,Irish,Some College,2024-02-26_17h21.12.197,CRL1e,2023.2.3,Win32,59.88023952,65dbad3905fde4fe1981dc61,65dcc80546794a057b7402bb,,,,,,,,,,,277.2817,0.6,277.8814,277.8814,279.0315,right,0,1.1476,,279.0316,280.0314,3,3,27,5,1,partial,2,images/Ex3.jpg,left,reversed,easy,4,,,,,
,,,,,5c4f5967aac8be0001716a65,001,32,Male,Irish,Some College,2024-02-26_17h21.12.197,CRL1e,2023.2.3,Win32,59.88023952,65dbad3905fde4fe1981dc61,65dcc80546794a057b7402bb,,,,,,,,,,,280.0318,1.2,281.2315,281.2315,281.815,left,1,0.5732,,281.8151,282.815,3,4,28,2,1,partial,2,images/Ex2.jpg,left,nonreversed,easy,4,,,,,
,,,,,5c4f5967aac8be0001716a65,001,32,Male,Irish,Some College,2024-02-26_17h21.12.197,CRL1e,2023.2.3,Win32,59.88023952,65dbad3905fde4fe1981dc61,65dcc80546794a057b7402bb,,,,,,,,,,,282.8153,1.4,284.2149,284.215,285.2318,right,1,1.0087,,285.2319,286.2317,3,5,29,0,1,partial,2,images/Ex1.jpg,right,reversed,easy,4,,,,,
,,,,,5c4f5967aac8be0001716a65,001,32,Male,Irish,Some College,2024-02-26_17h21.12.197,CRL1e,2023.2.3,Win32,59.88023952,65dbad3905fde4fe1981dc61,65dcc80546794a057b7402bb,,,,,,,,,,,286.232,1.4,287.6316,287.6317,288.6818,right,1,1.038,,288.6819,289.6818,3,6,30,7,1,partial,2,images/Ex4.jpg,right,nonreversed,easy,4,,,,,
,,,,,5c4f5967aac8be0001716a65,001,32,Male,Irish,Some College,2024-02-26_17h21.12.197,CRL1e,2023.2.3,Win32,59.88023952,65dbad3905fde4fe1981dc61,65dcc80546794a057b7402bb,,,,,,,,,,,289.6821,0.7,290.3817,290.3818,291.4152,left,1,1.0178,,291.4153,292.4152,3,7,31,4,1,partial,2,images/Ex3.jpg,left,reversed,easy,4,,,,,
,,,,,5c4f5967aac8be0001716a65,001,32,Male,Irish,Some College,2024-02-26_17h21.12.197,CRL1e,2023.2.3,Win32,59.88023952,65dbad3905fde4fe1981dc61,65dcc80546794a057b7402bb,,,,,,,,,,,292.4154,0.9,293.3152,293.3152,294.882,left,0,1.5555,,294.882,295.882,4,0,32,1,1,partial,2,images/Ex1.jpg,right,reversed,easy,4,,,,,
,,,,,5c4f5967aac8be0001716a65,001,32,Male,Irish,Some College,2024-02-26_17h21.12.197,CRL1e,2023.2.3,Win32,59.88023952,65dbad3905fde4fe1981dc61,65dcc80546794a057b7402bb,,,,,,,,,,,295.8881,0.7,296.5823,296.5823,297.782,right,1,1.1866,,297.7821,298.7819,4,1,33,0,1,partial,2,images/Ex1.jpg,right,reversed,easy,4,,,,,
,,,,,5c4f5967aac8be0001716a65,001,32,Male,Irish,Some College,2024-02-26_17h21.12.197,CRL1e,2023.2.3,Win32,59.88023952,65dbad3905fde4fe1981dc61,65dcc80546794a057b7402bb,,,,,,,,,,,298.7823,0.5,299.282,299.2822,300.4988,left,1,1.2146,,300.4988,301.4988,4,2,34,5,1,partial,2,images/Ex3.jpg,left,reversed,easy,4,,,,,
,,,,,5c4f5967aac8be0001716a65,001,32,Male,Irish,Some College,2024-02-26_17h21.12.197,CRL1e,2023.2.3,Win32,59.88023952,65dbad3905fde4fe1981dc61,65dcc80546794a057b7402bb,,,,,,,,,,,301.4991,0.5,301.9988,301.9989,303.4156,left,1,1.412,,303.4156,304.4154,4,3,35,3,1,partial,2,images/Ex2.jpg,left,nonreversed,easy,4,,,,,
,,,,,5c4f5967aac8be0001716a65,001,32,Male,Irish,Some College,2024-02-26_17h21.12.197,CRL1e,2023.2.3,Win32,59.88023952,65dbad3905fde4fe1981dc61,65dcc80546794a057b7402bb,,,,,,,,,,,304.4158,0.8,305.2156,305.2157,307.4824,right,1,2.263,,307.4825,308.4823,4,4,36,6,1,partial,2,images/Ex4.jpg,right,nonreversed,easy,4,,,,,
,,,,,5c4f5967aac8be0001716a65,001,32,Male,Irish,Some College,2024-02-26_17h21.12.197,CRL1e,2023.2.3,Win32,59.88023952,65dbad3905fde4fe1981dc61,65dcc80546794a057b7402bb,,,,,,,,,,,308.4879,1.3,309.7824,309.7824,311.4491,left,1,1.6584,,311.4491,312.449,4,5,37,4,1,partial,2,images/Ex3.jpg,left,reversed,easy,4,,,,,
,,,,,5c4f5967aac8be0001716a65,001,32,Male,Irish,Some College,2024-02-26_17h21.12.197,CRL1e,2023.2.3,Win32,59.88023952,65dbad3905fde4fe1981dc61,65dcc80546794a057b7402bb,,,,,,,,,,,312.4493,0.7,313.149,313.149,314.9159,right,1,1.754,,314.9159,315.9158,4,6,38,7,1,partial,2,images/Ex4.jpg,right,nonreversed,easy,4,,,,,
,,,,,5c4f5967aac8be0001716a65,001,32,Male,Irish,Some College,2024-02-26_17h21.12.197,CRL1e,2023.2.3,Win32,59.88023952,65dbad3905fde4fe1981dc61,65dcc80546794a057b7402bb,,,,,,,,,,,315.9213,0.9,316.8158,316.8158,318.266,left,1,1.4368,,318.2661,319.2661,4,7,39,2,1,partial,2,images/Ex2.jpg,left,nonreversed,easy,4,,,,,
,,,,,5c4f5967aac8be0001716a65,001,32,Male,Irish,Some College,2024-02-26_17h21.12.197,CRL1e,2023.2.3,Win32,59.88023952,65dbad3905fde4fe1981dc61,65dcc80546794a057b7402bb,,,,,,,,,,,319.2664,1.3,320.5659,320.5659,322.2827,right,1,1.7017,,322.2827,323.2827,5,0,40,0,1,partial,2,images/Ex1.jpg,right,reversed,easy,4,,,,,
,,,,,5c4f5967aac8be0001716a65,001,32,Male,Irish,Some College,2024-02-26_17h21.12.197,CRL1e,2023.2.3,Win32,59.88023952,65dbad3905fde4fe1981dc61,65dcc80546794a057b7402bb,,,,,,,,,,,323.2829,1.2,324.4827,324.4827,325.1162,left,1,0.619,,325.1163,326.1161,5,1,41,3,1,partial,2,images/Ex2.jpg,left,nonreversed,easy,4,,,,,
,,,,,5c4f5967aac8be0001716a65,001,32,Male,Irish,Some College,2024-02-26_17h21.12.197,CRL1e,2023.2.3,Win32,59.88023952,65dbad3905fde4fe1981dc61,65dcc80546794a057b7402bb,,,,,,,,,,,326.1164,0.5,326.616,326.6161,327.5163,left,1,0.8951,,327.5163,328.5162,5,2,42,5,1,partial,2,images/Ex3.jpg,left,reversed,easy,4,,,,,
,,,,,5c4f5967aac8be0001716a65,001,32,Male,Irish,Some College,2024-02-26_17h21.12.197,CRL1e,2023.2.3,Win32,59.88023952,65dbad3905fde4fe1981dc61,65dcc80546794a057b7402bb,,,,,,,,,,,328.5166,1.3,329.8161,329.8161,330.4996,left,0,0.6774,,330.4997,331.4996,5,3,43,6,1,partial,2,images/Ex4.jpg,right,nonreversed,easy,4,,,,,
,,,,,5c4f5967aac8be0001716a65,001,32,Male,Irish,Some College,2024-02-26_17h21.12.197,CRL1e,2023.2.3,Win32,59.88023952,65dbad3905fde4fe1981dc61,65dcc80546794a057b7402bb,,,,,,,,,,,331.4999,1.2,332.6995,332.6996,334.033,right,1,1.3201,,334.0331,335.0328,5,4,44,1,1,partial,2,images/Ex1.jpg,right,reversed,easy,4,,,,,
,,,,,5c4f5967aac8be0001716a65,001,32,Male,Irish,Some College,2024-02-26_17h21.12.197,CRL1e,2023.2.3,Win32,59.88023952,65dbad3905fde4fe1981dc61,65dcc80546794a057b7402bb,,,,,,,,,,,335.0332,1.1,336.1328,336.1329,337.0663,left,1,0.9281,,337.0665,338.0664,5,5,45,4,1,partial,2,images/Ex3.jpg,left,reversed,easy,4,,,,,
,,,,,5c4f5967aac8be0001716a65,001,32,Male,Irish,Some College,2024-02-26_17h21.12.197,CRL1e,2023.2.3,Win32,59.88023952,65dbad3905fde4fe1981dc61,65dcc80546794a057b7402bb,,,,,,,,,,,338.0682,0.7,338.7665,338.7665,339.6666,right,1,0.8954,,339.6666,340.6663,5,6,46,7,1,partial,2,images/Ex4.jpg,right,nonreversed,easy,4,,,,,
,,,,,5c4f5967aac8be0001716a65,001,32,Male,Irish,Some College,2024-02-26_17h21.12.197,CRL1e,2023.2.3,Win32,59.88023952,65dbad3905fde4fe1981dc61,65dcc80546794a057b7402bb,,,,,,,,,,,340.6666,1,341.6667,341.6667,343.0333,left,1,1.361,,343.0334,344.034,5,7,47,2,1,partial,2,images/Ex2.jpg,left,nonreversed,easy,4,,,,,
,,,,,5c4f5967aac8be0001716a65,001,32,Male,Irish,Some College,2024-02-26_17h21.12.197,CRL1e,2023.2.3,Win32,59.88023952,65dbad3905fde4fe1981dc61,65dcc80546794a057b7402bb,,,,,,344.0348,353.8672,space,9.8153,,353.8758,0.9,354.7668,354.7669,355.8003,left,0,1.0286,,355.8004,356.8003,0,0,0,4,1,total,1,images/Ex7.jpg,right,training,easy,4,,,,,
,,,,,5c4f5967aac8be0001716a65,001,32,Male,Irish,Some College,2024-02-26_17h21.12.197,CRL1e,2023.2.3,Win32,59.88023952,65dbad3905fde4fe1981dc61,65dcc80546794a057b7402bb,,,,,,,,,,,356.8006,0.8,357.6003,357.6003,358.8005,left,1,1.1994,,358.8005,359.8003,0,1,1,0,1,total,1,images/Ex5.jpg,left,training,easy,4,,,,,
,,,,,5c4f5967aac8be0001716a65,001,32,Male,Irish,Some College,2024-02-26_17h21.12.197,CRL1e,2023.2.3,Win32,59.88023952,65dbad3905fde4fe1981dc61,65dcc80546794a057b7402bb,,,,,,,,,,,359.8006,1.4,361.2004,361.2004,361.9341,left,0,0.7264,,361.9341,362.9338,0,2,2,6,1,total,1,images/Ex8.jpg,right,training,easy,4,,,,,
,,,,,5c4f5967aac8be0001716a65,001,32,Male,Irish,Some College,2024-02-26_17h21.12.197,CRL1e,2023.2.3,Win32,59.88023952,65dbad3905fde4fe1981dc61,65dcc80546794a057b7402bb,,,,,,,,,,,362.9341,0.9,363.8337,363.8337,365.4507,left,1,1.614,,365.4507,366.4515,0,3,3,3,1,total,1,images/Ex6.jpg,left,training,easy,4,,,,,
,,,,,5c4f5967aac8be0001716a65,001,32,Male,Irish,Some College,2024-02-26_17h21.12.197,CRL1e,2023.2.3,Win32,59.88023952,65dbad3905fde4fe1981dc61,65dcc80546794a057b7402bb,,,,,,,,,,,366.4584,1.5,367.9503,367.9504,368.801,left,1,0.8364,,368.801,369.8007,0,4,4,2,1,total,1,images/Ex6.jpg,left,training,easy,4,,,,,
,,,,,5c4f5967aac8be0001716a65,001,32,Male,Irish,Some College,2024-02-26_17h21.12.197,CRL1e,2023.2.3,Win32,59.88023952,65dbad3905fde4fe1981dc61,65dcc80546794a057b7402bb,,,,,,,,,,,369.801,0.9,370.7013,370.7013,371.4174,right,1,0.7076,,371.4174,372.4174,0,5,5,5,1,total,1,images/Ex7.jpg,right,training,easy,4,,,,,
,,,,,5c4f5967aac8be0001716a65,001,32,Male,Irish,Some College,2024-02-26_17h21.12.197,CRL1e,2023.2.3,Win32,59.88023952,65dbad3905fde4fe1981dc61,65dcc80546794a057b7402bb,,,,,,,,,,,372.4177,1.2,373.6173,373.6173,374.7176,left,0,1.0983,,374.7176,375.7181,0,6,6,7,1,total,1,images/Ex8.jpg,right,training,easy,4,,,,,
,,,,,5c4f5967aac8be0001716a65,001,32,Male,Irish,Some College,2024-02-26_17h21.12.197,CRL1e,2023.2.3,Win32,59.88023952,65dbad3905fde4fe1981dc61,65dcc80546794a057b7402bb,,,,,,,,,,,375.7183,1.4,377.1174,377.1175,377.7675,left,1,0.6454,,377.7676,378.7674,0,7,7,1,1,total,1,images/Ex5.jpg,left,training,easy,4,,,,,
,,,,,5c4f5967aac8be0001716a65,001,32,Male,Irish,Some College,2024-02-26_17h21.12.197,CRL1e,2023.2.3,Win32,59.88023952,65dbad3905fde4fe1981dc61,65dcc80546794a057b7402bb,,,,,,,,,,,378.7677,1.2,379.9675,379.9675,380.8176,left,1,0.8419,,380.8177,381.8179,1,0,8,2,1,total,1,images/Ex6.jpg,left,training,easy,4,,,,,
,,,,,5c4f5967aac8be0001716a65,001,32,Male,Irish,Some College,2024-02-26_17h21.12.197,CRL1e,2023.2.3,Win32,59.88023952,65dbad3905fde4fe1981dc61,65dcc80546794a057b7402bb,,,,,,,,,,,381.8183,0.7,382.5177,382.5177,383.4677,left,1,0.935,,383.4678,384.4685,1,1,9,0,1,total,1,images/Ex5.jpg,left,training,easy,4,,,,,
,,,,,5c4f5967aac8be0001716a65,001,32,Male,Irish,Some College,2024-02-26_17h21.12.197,CRL1e,2023.2.3,Win32,59.88023952,65dbad3905fde4fe1981dc61,65dcc80546794a057b7402bb,,,,,,,,,,,384.4687,0.8,385.2678,385.2679,385.9512,right,1,0.6688,,385.9512,386.9513,1,2,10,6,1,total,1,images/Ex8.jpg,right,training,easy,4,,,,,
,,,,,5c4f5967aac8be0001716a65,001,32,Male,Irish,Some College,2024-02-26_17h21.12.197,CRL1e,2023.2.3,Win32,59.88023952,65dbad3905fde4fe1981dc61,65dcc80546794a057b7402bb,,,,,,,,,,,386.9516,1.1,388.0511,388.0511,388.7345,right,1,0.6718,,388.7345,389.7352,1,3,11,5,1,total,1,images/Ex7.jpg,right,training,easy,4,,,,,
,,,,,5c4f5967aac8be0001716a65,001,32,Male,Irish,Some College,2024-02-26_17h21.12.197,CRL1e,2023.2.3,Win32,59.88023952,65dbad3905fde4fe1981dc61,65dcc80546794a057b7402bb,,,,,,,,,,,389.7354,0.8,390.5344,390.5346,391.3013,right,1,0.7516,,391.3013,392.3012,1,4,12,7,1,total,1,images/Ex8.jpg,right,training,easy,4,,,,,
,,,,,5c4f5967aac8be0001716a65,001,32,Male,Irish,Some College,2024-02-26_17h21.12.197,CRL1e,2023.2.3,Win32,59.88023952,65dbad3905fde4fe1981dc61,65dcc80546794a057b7402bb,,,,,,,,,,,392.3015,1.5,393.8017,393.8018,394.6846,left,1,0.882,,394.6847,395.6847,1,5,13,1,1,total,1,images/Ex5.jpg,left,training,easy,4,,,,,
,,,,,5c4f5967aac8be0001716a65,001,32,Male,Irish,Some College,2024-02-26_17h21.12.197,CRL1e,2023.2.3,Win32,59.88023952,65dbad3905fde4fe1981dc61,65dcc80546794a057b7402bb,,,,,,,,,,,395.6849,1,396.6853,396.6853,397.4515,left,1,0.7536,,397.4515,398.4513,1,6,14,3,1,total,1,images/Ex6.jpg,left,training,easy,4,,,,,
,,,,,5c4f5967aac8be0001716a65,001,32,Male,Irish,Some College,2024-02-26_17h21.12.197,CRL1e,2023.2.3,Win32,59.88023952,65dbad3905fde4fe1981dc61,65dcc80546794a057b7402bb,,,,,,,,,,,398.4515,1.3,399.7514,399.7514,400.4683,right,1,0.7135,,400.4683,401.4685,1,7,15,4,1,total,1,images/Ex7.jpg,right,training,easy,4,,,,,
,,,,,5c4f5967aac8be0001716a65,001,32,Male,Irish,Some College,2024-02-26_17h21.12.197,CRL1e,2023.2.3,Win32,59.88023952,65dbad3905fde4fe1981dc61,65dcc80546794a057b7402bb,,,,,,,,,,,401.4688,0.8,402.2694,402.2694,403.3519,right,1,1.0773,,403.3519,404.3523,2,0,16,4,1,total,1,images/Ex7.jpg,right,training,easy,4,,,,,
,,,,,5c4f5967aac8be0001716a65,001,32,Male,Irish,Some College,2024-02-26_17h21.12.197,CRL1e,2023.2.3,Win32,59.88023952,65dbad3905fde4fe1981dc61,65dcc80546794a057b7402bb,,,,,,,,,,,404.3527,0.7,405.0519,405.0521,405.653,left,1,0.5866,,405.653,406.6517,2,1,17,3,1,total,1,images/Ex6.jpg,left,training,easy,4,,,,,
,,,,,5c4f5967aac8be0001716a65,001,32,Male,Irish,Some College,2024-02-26_17h21.12.197,CRL1e,2023.2.3,Win32,59.88023952,65dbad3905fde4fe1981dc61,65dcc80546794a057b7402bb,,,,,,,,,,,406.6519,1.4,408.0515,408.0516,408.7184,left,1,0.6553,,408.7184,409.7184,2,2,18,2,1,total,1,images/Ex6.jpg,left,training,easy,4,,,,,
,,,,,5c4f5967aac8be0001716a65,001,32,Male,Irish,Some College,2024-02-26_17h21.12.197,CRL1e,2023.2.3,Win32,59.88023952,65dbad3905fde4fe1981dc61,65dcc80546794a057b7402bb,,,,,,,,,,,409.7186,1.1,410.8184,410.8184,411.4517,right,1,0.6323,,411.4517,412.4517,2,3,19,7,1,total,1,images/Ex8.jpg,right,training,easy,4,,,,,
,,,,,5c4f5967aac8be0001716a65,001,32,Male,Irish,Some College,2024-02-26_17h21.12.197,CRL1e,2023.2.3,Win32,59.88023952,65dbad3905fde4fe1981dc61,65dcc80546794a057b7402bb,,,,,,,,,,,412.4521,1.3,413.7518,413.7519,414.3858,right,1,0.6288,,414.3858,415.3854,2,4,20,5,1,total,1,images/Ex7.jpg,right,training,easy,4,,,,,
,,,,,5c4f5967aac8be0001716a65,001,32,Male,Irish,Some College,2024-02-26_17h21.12.197,CRL1e,2023.2.3,Win32,59.88023952,65dbad3905fde4fe1981dc61,65dcc80546794a057b7402bb,,,,,,,,,,,415.3857,1.3,416.6868,416.6868,417.2693,left,1,0.5707,,417.2694,418.2687,2,5,21,1,1,total,1,images/Ex5.jpg,left,training,easy,4,,,,,
,,,,,5c4f5967aac8be0001716a65,001,32,Male,Irish,Some College,2024-02-26_17h21.12.197,CRL1e,2023.2.3,Win32,59.88023952,65dbad3905fde4fe1981dc61,65dcc80546794a057b7402bb,,,,,,,,,,,418.2689,1.4,419.6686,419.6687,420.3688,right,1,0.6889,,420.3688,421.3687,2,6,22,6,1,total,1,images/Ex8.jpg,right,training,easy,4,,,,,
,,,,,5c4f5967aac8be0001716a65,001,32,Male,Irish,Some College,2024-02-26_17h21.12.197,CRL1e,2023.2.3,Win32,59.88023952,65dbad3905fde4fe1981dc61,65dcc80546794a057b7402bb,,,,,,,,,,,421.3692,1.2,422.5687,422.5688,423.2358,left,1,0.6513,,423.2359,424.2355,2,7,23,0,1,total,1,images/Ex5.jpg,left,training,easy,4,,,,,
,,,,,5c4f5967aac8be0001716a65,001,32,Male,Irish,Some College,2024-02-26_17h21.12.197,CRL1e,2023.2.3,Win32,59.88023952,65dbad3905fde4fe1981dc61,65dcc80546794a057b7402bb,,,,,,,,,,,424.2358,1.5,425.7355,425.7355,426.3694,left,1,0.621,,426.3695,427.3688,3,0,24,3,1,total,1,images/Ex6.jpg,left,training,easy,4,,,,,
,,,,,5c4f5967aac8be0001716a65,001,32,Male,Irish,Some College,2024-02-26_17h21.12.197,CRL1e,2023.2.3,Win32,59.88023952,65dbad3905fde4fe1981dc61,65dcc80546794a057b7402bb,,,,,,,,,,,427.3692,1.5,428.8689,428.8689,429.7191,left,1,0.8488,,429.7191,430.719,3,1,25,0,1,total,1,images/Ex5.jpg,left,training,easy,4,,,,,
,,,,,5c4f5967aac8be0001716a65,001,32,Male,Irish,Some College,2024-02-26_17h21.12.197,CRL1e,2023.2.3,Win32,59.88023952,65dbad3905fde4fe1981dc61,65dcc80546794a057b7402bb,,,,,,,,,,,430.7193,0.6,431.319,431.319,431.9192,right,1,0.585,,431.9193,432.919,3,2,26,5,1,total,1,images/Ex7.jpg,right,training,easy,4,,,,,
,,,,,5c4f5967aac8be0001716a65,001,32,Male,Irish,Some College,2024-02-26_17h21.12.197,CRL1e,2023.2.3,Win32,59.88023952,65dbad3905fde4fe1981dc61,65dcc80546794a057b7402bb,,,,,,,,,,,432.9195,1.3,434.219,434.219,434.8862,right,1,0.6508,,434.8862,435.8858,3,3,27,6,1,total,1,images/Ex8.jpg,right,training,easy,4,,,,,
,,,,,5c4f5967aac8be0001716a65,001,32,Male,Irish,Some College,2024-02-26_17h21.12.197,CRL1e,2023.2.3,Win32,59.88023952,65dbad3905fde4fe1981dc61,65dcc80546794a057b7402bb,,,,,,,,,,,435.8861,0.9,436.7856,436.7857,437.5202,left,1,0.7337,,437.5203,438.5192,3,4,28,2,1,total,1,images/Ex6.jpg,left,training,easy,4,,,,,
,,,,,5c4f5967aac8be0001716a65,001,32,Male,Irish,Some College,2024-02-26_17h21.12.197,CRL1e,2023.2.3,Win32,59.88023952,65dbad3905fde4fe1981dc61,65dcc80546794a057b7402bb,,,,,,,,,,,438.5195,1.4,439.9192,439.9193,440.4534,left,1,0.5294,,440.4534,441.4527,3,5,29,1,1,total,1,images/Ex5.jpg,left,training,easy,4,,,,,
,,,,,5c4f5967aac8be0001716a65,001,32,Male,Irish,Some College,2024-02-26_17h21.12.197,CRL1e,2023.2.3,Win32,59.88023952,65dbad3905fde4fe1981dc61,65dcc80546794a057b7402bb,,,,,,,,,,,441.453,0.9,442.3526,442.3526,442.9527,right,1,0.5846,,442.9528,443.9531,3,6,30,4,1,total,1,images/Ex7.jpg,right,training,easy,4,,,,,
,,,,,5c4f5967aac8be0001716a65,001,32,Male,Irish,Some College,2024-02-26_17h21.12.197,CRL1e,2023.2.3,Win32,59.88023952,65dbad3905fde4fe1981dc61,65dcc80546794a057b7402bb,,,,,,,,,,,443.9533,1.2,445.1528,445.1528,445.8195,right,1,0.6557,,445.8196,446.8207,3,7,31,7,1,total,1,images/Ex8.jpg,right,training,easy,4,,,,,
,,,,,5c4f5967aac8be0001716a65,001,32,Male,Irish,Some College,2024-02-26_17h21.12.197,CRL1e,2023.2.3,Win32,59.88023952,65dbad3905fde4fe1981dc61,65dcc80546794a057b7402bb,,,,,,,,,,,446.8211,0.6,447.4202,447.4202,448.0696,right,1,0.6431,,448.0697,449.0696,4,0,32,5,1,total,1,images/Ex7.jpg,right,training,easy,4,,,,,
,,,,,5c4f5967aac8be0001716a65,001,32,Male,Irish,Some College,2024-02-26_17h21.12.197,CRL1e,2023.2.3,Win32,59.88023952,65dbad3905fde4fe1981dc61,65dcc80546794a057b7402bb,,,,,,,,,,,449.0699,0.6,449.6696,449.6696,450.4367,left,1,0.7655,,450.4367,451.4364,4,1,33,0,1,total,1,images/Ex5.jpg,left,training,easy,4,,,,,
,,,,,5c4f5967aac8be0001716a65,001,32,Male,Irish,Some College,2024-02-26_17h21.12.197,CRL1e,2023.2.3,Win32,59.88023952,65dbad3905fde4fe1981dc61,65dcc80546794a057b7402bb,,,,,,,,,,,451.4368,1.3,452.7364,452.7364,453.4366,left,1,0.6979,,453.4366,454.4364,4,2,34,2,1,total,1,images/Ex6.jpg,left,training,easy,4,,,,,
,,,,,5c4f5967aac8be0001716a65,001,32,Male,Irish,Some College,2024-02-26_17h21.12.197,CRL1e,2023.2.3,Win32,59.88023952,65dbad3905fde4fe1981dc61,65dcc80546794a057b7402bb,,,,,,,,,,,454.4368,1.2,455.6364,455.6365,456.3866,left,0,0.7345,,456.3867,457.3865,4,3,35,6,1,total,1,images/Ex8.jpg,right,training,easy,4,,,,,
,,,,,5c4f5967aac8be0001716a65,001,32,Male,Irish,Some College,2024-02-26_17h21.12.197,CRL1e,2023.2.3,Win32,59.88023952,65dbad3905fde4fe1981dc61,65dcc80546794a057b7402bb,,,,,,,,,,,457.3868,0.6,457.9871,457.9871,458.6199,right,1,0.6264,,458.62,459.6198,4,4,36,4,1,total,1,images/Ex7.jpg,right,training,easy,4,,,,,
,,,,,5c4f5967aac8be0001716a65,001,32,Male,Irish,Some College,2024-02-26_17h21.12.197,CRL1e,2023.2.3,Win32,59.88023952,65dbad3905fde4fe1981dc61,65dcc80546794a057b7402bb,,,,,,,,,,,459.6201,0.8,460.4198,460.4199,461.0533,right,1,0.6235,,461.0533,462.0533,4,5,37,7,1,total,1,images/Ex8.jpg,right,training,easy,4,,,,,
,,,,,5c4f5967aac8be0001716a65,001,32,Male,Irish,Some College,2024-02-26_17h21.12.197,CRL1e,2023.2.3,Win32,59.88023952,65dbad3905fde4fe1981dc61,65dcc80546794a057b7402bb,,,,,,,,,,,462.0536,0.6,462.6532,462.6532,463.3366,left,1,0.6823,,463.3367,464.3366,4,6,38,1,1,total,1,images/Ex5.jpg,left,training,easy,4,,,,,
,,,,,5c4f5967aac8be0001716a65,001,32,Male,Irish,Some College,2024-02-26_17h21.12.197,CRL1e,2023.2.3,Win32,59.88023952,65dbad3905fde4fe1981dc61,65dcc80546794a057b7402bb,,,,,,,,,,,464.3369,1,465.3366,465.3366,466.7369,left,1,1.3869,,466.7369,467.7367,4,7,39,3,1,total,1,images/Ex6.jpg,left,training,easy,4,,,,,
,,,,,5c4f5967aac8be0001716a65,001,32,Male,Irish,Some College,2024-02-26_17h21.12.197,CRL1e,2023.2.3,Win32,59.88023952,65dbad3905fde4fe1981dc61,65dcc80546794a057b7402bb,,,,,,,,,,,467.737,1,468.7367,468.7367,469.4035,left,1,0.6554,,469.4036,470.4034,5,0,40,1,1,total,1,images/Ex5.jpg,left,training,easy,4,,,,,
,,,,,5c4f5967aac8be0001716a65,001,32,Male,Irish,Some College,2024-02-26_17h21.12.197,CRL1e,2023.2.3,Win32,59.88023952,65dbad3905fde4fe1981dc61,65dcc80546794a057b7402bb,,,,,,,,,,,470.4038,0.7,471.1035,471.1035,472.0205,left,1,0.9159,,472.0205,473.0201,5,1,41,3,1,total,1,images/Ex6.jpg,left,training,easy,4,,,,,
,,,,,5c4f5967aac8be0001716a65,001,32,Male,Irish,Some College,2024-02-26_17h21.12.197,CRL1e,2023.2.3,Win32,59.88023952,65dbad3905fde4fe1981dc61,65dcc80546794a057b7402bb,,,,,,,,,,,473.0205,0.6,473.6202,473.6202,475.1205,right,1,1.4943,,475.1206,476.1202,5,2,42,6,1,total,1,images/Ex8.jpg,right,training,easy,4,,,,,
,,,,,5c4f5967aac8be0001716a65,001,32,Male,Irish,Some College,2024-02-26_17h21.12.197,CRL1e,2023.2.3,Win32,59.88023952,65dbad3905fde4fe1981dc61,65dcc80546794a057b7402bb,,,,,,,,,,,476.127,1,477.1206,477.1206,477.9872,left,1,0.86,,477.9873,478.9869,5,3,43,0,1,total,1,images/Ex5.jpg,left,training,easy,4,,,,,
,,,,,5c4f5967aac8be0001716a65,001,32,Male,Irish,Some College,2024-02-26_17h21.12.197,CRL1e,2023.2.3,Win32,59.88023952,65dbad3905fde4fe1981dc61,65dcc80546794a057b7402bb,,,,,,,,,,,478.9873,0.8,479.787,479.787,481.7205,right,1,1.9178,,481.7206,482.7203,5,4,44,5,1,total,1,images/Ex7.jpg,right,training,easy,4,,,,,
,,,,,5c4f5967aac8be0001716a65,001,32,Male,Irish,Some College,2024-02-26_17h21.12.197,CRL1e,2023.2.3,Win32,59.88023952,65dbad3905fde4fe1981dc61,65dcc80546794a057b7402bb,,,,,,,,,,,482.7267,0.8,483.5206,483.5206,485.4039,right,0,1.8729,,485.404,486.404,5,5,45,2,1,total,1,images/Ex6.jpg,left,training,easy,4,,,,,
,,,,,5c4f5967aac8be0001716a65,001,32,Male,Irish,Some College,2024-02-26_17h21.12.197,CRL1e,2023.2.3,Win32,59.88023952,65dbad3905fde4fe1981dc61,65dcc80546794a057b7402bb,,,,,,,,,,,486.4099,0.5,486.9053,486.9053,487.6877,right,1,0.7801,,487.6878,488.6874,5,6,46,4,1,total,1,images/Ex7.jpg,right,training,easy,4,,,,,
,,,,,5c4f5967aac8be0001716a65,001,32,Male,Irish,Some College,2024-02-26_17h21.12.197,CRL1e,2023.2.3,Win32,59.88023952,65dbad3905fde4fe1981dc61,65dcc80546794a057b7402bb,,,,,,,,,,,488.6877,1.4,490.0873,490.0873,490.8388,right,1,0.7363,,490.8388,491.8374,5,7,47,7,1,total,1,images/Ex8.jpg,right,training,easy,4,,,,,
,,,,,5c4f5967aac8be0001716a65,001,32,Male,Irish,Some College,2024-02-26_17h21.12.197,CRL1e,2023.2.3,Win32,59.88023952,65dbad3905fde4fe1981dc61,65dcc80546794a057b7402bb,,,,,,,,,,,491.8396,0.9,492.7373,492.7373,494.2376,right,0,1.4845,,494.2376,495.2382,0,0,0,7,1,total,2,images/Ex8.jpg,left,reversed,easy,4,,,,,
,,,,,5c4f5967aac8be0001716a65,001,32,Male,Irish,Some College,2024-02-26_17h21.12.197,CRL1e,2023.2.3,Win32,59.88023952,65dbad3905fde4fe1981dc61,65dcc80546794a057b7402bb,,,,,,,,,,,495.2385,1,496.2374,496.2374,497.5378,left,0,1.291,,497.5379,498.5375,0,1,1,3,1,total,2,images/Ex6.jpg,right,reversed,easy,4,,,,,
,,,,,5c4f5967aac8be0001716a65,001,32,Male,Irish,Some College,2024-02-26_17h21.12.197,CRL1e,2023.2.3,Win32,59.88023952,65dbad3905fde4fe1981dc61,65dcc80546794a057b7402bb,,,,,,,,,,,498.5379,1.1,499.6376,499.6377,501.0878,left,0,1.4345,,501.0879,502.0877,0,2,2,0,1,total,2,images/Ex5.jpg,right,reversed,easy,4,,,,,
,,,,,5c4f5967aac8be0001716a65,001,32,Male,Irish,Some College,2024-02-26_17h21.12.197,CRL1e,2023.2.3,Win32,59.88023952,65dbad3905fde4fe1981dc61,65dcc80546794a057b7402bb,,,,,,,,,,,502.0938,1.3,503.3877,503.3877,504.2379,right,0,0.8415,,504.2379,505.2377,0,3,3,4,1,total,2,images/Ex7.jpg,left,reversed,easy,4,,,,,
,,,,,5c4f5967aac8be0001716a65,001,32,Male,Irish,Some College,2024-02-26_17h21.12.197,CRL1e,2023.2.3,Win32,59.88023952,65dbad3905fde4fe1981dc61,65dcc80546794a057b7402bb,,,,,,,,,,,505.238,0.6,505.8376,505.8377,506.571,left,1,0.7215,,506.5711,507.5709,0,4,4,5,1,total,2,images/Ex7.jpg,left,reversed,easy,4,,,,,
,,,,,5c4f5967aac8be0001716a65,001,32,Male,Irish,Some College,2024-02-26_17h21.12.197,CRL1e,2023.2.3,Win32,59.88023952,65dbad3905fde4fe1981dc61,65dcc80546794a057b7402bb,,,,,,,,,,,507.5712,1.2,508.7711,508.7711,510.0214,left,0,1.2381,,510.0214,511.0224,0,5,5,2,1,total,2,images/Ex6.jpg,right,reversed,easy,4,,,,,
,,,,,5c4f5967aac8be0001716a65,001,32,Male,Irish,Some College,2024-02-26_17h21.12.197,CRL1e,2023.2.3,Win32,59.88023952,65dbad3905fde4fe1981dc61,65dcc80546794a057b7402bb,,,,,,,,,,,511.0227,1.1,512.1211,512.1212,513.4049,right,1,1.2817,,513.4049,514.4046,0,6,6,1,1,total,2,images/Ex5.jpg,right,reversed,easy,4,,,,,
,,,,,5c4f5967aac8be0001716a65,001,32,Male,Irish,Some College,2024-02-26_17h21.12.197,CRL1e,2023.2.3,Win32,59.88023952,65dbad3905fde4fe1981dc61,65dcc80546794a057b7402bb,,,,,,,,,,,514.4048,0.5,514.9046,514.9046,515.7047,left,1,0.7948,,515.7047,516.7046,0,7,7,6,1,total,2,images/Ex8.jpg,left,reversed,easy,4,,,,,
,,,,,5c4f5967aac8be0001716a65,001,32,Male,Irish,Some College,2024-02-26_17h21.12.197,CRL1e,2023.2.3,Win32,59.88023952,65dbad3905fde4fe1981dc61,65dcc80546794a057b7402bb,,,,,,,,,,,516.7049,1.3,518.0046,518.0047,518.9716,right,1,0.9547,,518.9716,519.972,1,0,8,3,1,total,2,images/Ex6.jpg,right,reversed,easy,4,,,,,
,,,,,5c4f5967aac8be0001716a65,001,32,Male,Irish,Some College,2024-02-26_17h21.12.197,CRL1e,2023.2.3,Win32,59.88023952,65dbad3905fde4fe1981dc61,65dcc80546794a057b7402bb,,,,,,,,,,,519.9723,1.2,521.1717,521.1717,522.0385,right,1,0.8507,,522.0385,523.0382,1,1,9,1,1,total,2,images/Ex5.jpg,right,reversed,easy,4,,,,,
,,,,,5c4f5967aac8be0001716a65,001,32,Male,Irish,Some College,2024-02-26_17h21.12.197,CRL1e,2023.2.3,Win32,59.88023952,65dbad3905fde4fe1981dc61,65dcc80546794a057b7402bb,,,,,,,,,,,523.0385,0.9,523.9382,523.9383,524.6551,left,1,0.7114,,524.6551,525.6551,1,2,10,5,1,total,2,images/Ex7.jpg,left,reversed,easy,4,,,,,
,,,,,5c4f5967aac8be0001716a65,001,32,Male,Irish,Some College,2024-02-26_17h21.12.197,CRL1e,2023.2.3,Win32,59.88023952,65dbad3905fde4fe1981dc61,65dcc80546794a057b7402bb,,,,,,,,,,,525.6554,1,526.6564,526.6564,527.4052,right,1,0.7369,,527.4052,528.405,1,3,11,2,1,total,2,images/Ex6.jpg,right,reversed,easy,4,,,,,
,,,,,5c4f5967aac8be0001716a65,001,32,Male,Irish,Some College,2024-02-26_17h21.12.197,CRL1e,2023.2.3,Win32,59.88023952,65dbad3905fde4fe1981dc61,65dcc80546794a057b7402bb,,,,,,,,,,,528.4054,0.7,529.105,529.105,529.8056,left,1,0.6911,,529.8056,530.8063,1,4,12,7,1,total,2,images/Ex8.jpg,left,reversed,easy,4,,,,,
,,,,,5c4f5967aac8be0001716a65,001,32,Male,Irish,Some College,2024-02-26_17h21.12.197,CRL1e,2023.2.3,Win32,59.88023952,65dbad3905fde4fe1981dc61,65dcc80546794a057b7402bb,,,,,,,,,,,530.8067,1.2,532.0053,532.0053,532.8885,left,1,0.8817,,532.8885,533.8885,1,5,13,4,1,total,2,images/Ex7.jpg,left,reversed,easy,4,,,,,
,,,,,5c4f5967aac8be0001716a65,001,32,Male,Irish,Some College,2024-02-26_17h21.12.197,CRL1e,2023.2.3,Win32,59.88023952,65dbad3905fde4fe1981dc61,65dcc80546794a057b7402bb,,,,,,,,,,,533.8888,0.7,534.5885,534.5887,535.372,left,1,0.7807,,535.372,536.3718,1,6,14,6,1,total,2,images/Ex8.jpg,left,reversed,easy,4,,,,,
,,,,,5c4f5967aac8be0001716a65,001,32,Male,Irish,Some College,2024-02-26_17h21.12.197,CRL1e,2023.2.3,Win32,59.88023952,65dbad3905fde4fe1981dc61,65dcc80546794a057b7402bb,,,,,,,,,,,536.372,0.7,537.072,537.072,537.9392,right,1,0.8508,,537.9392,538.9394,1,7,15,0,1,total,2,images/Ex5.jpg,right,reversed,easy,4,,,,,
,,,,,5c4f5967aac8be0001716a65,001,32,Male,Irish,Some College,2024-02-26_17h21.12.197,CRL1e,2023.2.3,Win32,59.88023952,65dbad3905fde4fe1981dc61,65dcc80546794a057b7402bb,,,,,,,,,,,538.9396,1.1,540.0391,540.0391,541.3728,left,0,1.3292,,541.3729,542.372,2,0,16,3,1,total,2,images/Ex6.jpg,right,reversed,easy,4,,,,,
,,,,,5c4f5967aac8be0001716a65,001,32,Male,Irish,Some College,2024-02-26_17h21.12.197,CRL1e,2023.2.3,Win32,59.88023952,65dbad3905fde4fe1981dc61,65dcc80546794a057b7402bb,,,,,,,,,,,542.3782,1.3,543.6719,543.672,544.4557,left,1,0.7692,,544.4558,545.4555,2,1,17,4,1,total,2,images/Ex7.jpg,left,reversed,easy,4,,,,,
,,,,,5c4f5967aac8be0001716a65,001,32,Male,Irish,Some College,2024-02-26_17h21.12.197,CRL1e,2023.2.3,Win32,59.88023952,65dbad3905fde4fe1981dc61,65dcc80546794a057b7402bb,,,,,,,,,,,545.4559,0.7,546.1578,546.1578,547.0726,left,1,0.9105,,547.0726,548.0723,2,2,18,6,1,total,2,images/Ex8.jpg,left,reversed,easy,4,,,,,
,,,,,5c4f5967aac8be0001716a65,001,32,Male,Irish,Some College,2024-02-26_17h21.12.197,CRL1e,2023.2.3,Win32,59.88023952,65dbad3905fde4fe1981dc61,65dcc80546794a057b7402bb,,,,,,,,,,,548.0725,0.6,548.6721,548.6722,549.3891,right,1,0.7091,,549.3892,550.3889,2,3,19,1,1,total,2,images/Ex5.jpg,right,reversed,easy,4,,,,,
,,,,,5c4f5967aac8be0001716a65,001,32,Male,Irish,Some College,2024-02-26_17h21.12.197,CRL1e,2023.2.3,Win32,59.88023952,65dbad3905fde4fe1981dc61,65dcc80546794a057b7402bb,,,,,,,,,,,550.3893,1.2,551.5891,551.5891,552.4725,left,1,0.8711,,552.4726,553.4724,2,4,20,7,1,total,2,images/Ex8.jpg,left,reversed,easy,4,,,,,
,,,,,5c4f5967aac8be0001716a65,001,32,Male,Irish,Some College,2024-02-26_17h21.12.197,CRL1e,2023.2.3,Win32,59.88023952,65dbad3905fde4fe1981dc61,65dcc80546794a057b7402bb,,,,,,,,,,,553.4727,0.8,554.2725,554.2725,555.1726,right,1,0.8848,,555.1728,556.1739,2,5,21,2,1,total,2,images/Ex6.jpg,right,reversed,easy,4,,,,,
,,,,,5c4f5967aac8be0001716a65,001,32,Male,Irish,Some College,2024-02-26_17h21.12.197,CRL1e,2023.2.3,Win32,59.88023952,65dbad3905fde4fe1981dc61,65dcc80546794a057b7402bb,,,,,,,,,,,556.1743,1.2,557.3725,557.3726,558.4393,right,1,1.0651,,558.4393,559.4392,2,6,22,0,1,total,2,images/Ex5.jpg,right,reversed,easy,4,,,,,
,,,,,5c4f5967aac8be0001716a65,001,32,Male,Irish,Some College,2024-02-26_17h21.12.197,CRL1e,2023.2.3,Win32,59.88023952,65dbad3905fde4fe1981dc61,65dcc80546794a057b7402bb,,,,,,,,,,,559.4396,1.4,560.8393,560.8393,561.5894,left,1,0.7361,,561.5895,562.5893,2,7,23,5,1,total,2,images/Ex7.jpg,left,reversed,easy,4,,,,,
,,,,,5c4f5967aac8be0001716a65,001,32,Male,Irish,Some College,2024-02-26_17h21.12.197,CRL1e,2023.2.3,Win32,59.88023952,65dbad3905fde4fe1981dc61,65dcc80546794a057b7402bb,,,,,,,,,,,562.5896,1,563.5894,563.5894,565.4061,left,1,1.8151,,565.4061,566.4061,3,0,24,6,1,total,2,images/Ex8.jpg,left,reversed,easy,4,,,,,
,,,,,5c4f5967aac8be0001716a65,001,32,Male,Irish,Some College,2024-02-26_17h21.12.197,CRL1e,2023.2.3,Win32,59.88023952,65dbad3905fde4fe1981dc61,65dcc80546794a057b7402bb,,,,,,,,,,,566.4117,1.4,567.8062,567.8062,569.2396,left,0,1.4182,,569.2396,570.2396,3,1,25,2,1,total,2,images/Ex6.jpg,right,reversed,easy,4,,,,,
,,,,,5c4f5967aac8be0001716a65,001,32,Male,Irish,Some College,2024-02-26_17h21.12.197,CRL1e,2023.2.3,Win32,59.88023952,65dbad3905fde4fe1981dc61,65dcc80546794a057b7402bb,,,,,,,,,,,570.2457,1.4,571.6396,571.6396,572.4564,right,1,0.8015,,572.4564,573.4563,3,2,26,3,1,total,2,images/Ex6.jpg,right,reversed,easy,4,,,,,
,,,,,5c4f5967aac8be0001716a65,001,32,Male,Irish,Some College,2024-02-26_17h21.12.197,CRL1e,2023.2.3,Win32,59.88023952,65dbad3905fde4fe1981dc61,65dcc80546794a057b7402bb,,,,,,,,,,,573.4567,0.9,574.3564,574.3564,575.4399,left,1,1.0769,,575.4399,576.4397,3,3,27,7,1,total,2,images/Ex8.jpg,left,reversed,easy,4,,,,,
,,,,,5c4f5967aac8be0001716a65,001,32,Male,Irish,Some College,2024-02-26_17h21.12.197,CRL1e,2023.2.3,Win32,59.88023952,65dbad3905fde4fe1981dc61,65dcc80546794a057b7402bb,,,,,,,,,,,576.4399,0.7,577.1397,577.1397,578.0065,left,1,0.8516,,578.0066,579.0066,3,4,28,4,1,total,2,images/Ex7.jpg,left,reversed,easy,4,,,,,
,,,,,5c4f5967aac8be0001716a65,001,32,Male,Irish,Some College,2024-02-26_17h21.12.197,CRL1e,2023.2.3,Win32,59.88023952,65dbad3905fde4fe1981dc61,65dcc80546794a057b7402bb,,,,,,,,,,,579.0069,1,580.0065,580.0065,580.8067,right,1,0.7919,,580.8067,581.8065,3,5,29,0,1,total,2,images/Ex5.jpg,right,reversed,easy,4,,,,,
,,,,,5c4f5967aac8be0001716a65,001,32,Male,Irish,Some College,2024-02-26_17h21.12.197,CRL1e,2023.2.3,Win32,59.88023952,65dbad3905fde4fe1981dc61,65dcc80546794a057b7402bb,,,,,,,,,,,581.8069,0.6,582.4066,582.4066,583.5067,right,1,1.0887,,583.5068,584.5066,3,6,30,1,1,total,2,images/Ex5.jpg,right,reversed,easy,4,,,,,
,,,,,5c4f5967aac8be0001716a65,001,32,Male,Irish,Some College,2024-02-26_17h21.12.197,CRL1e,2023.2.3,Win32,59.88023952,65dbad3905fde4fe1981dc61,65dcc80546794a057b7402bb,,,,,,,,,,,584.5069,0.9,585.4066,585.4067,586.2069,left,1,0.7945,,586.2069,587.2068,3,7,31,5,1,total,2,images/Ex7.jpg,left,reversed,easy,4,,,,,
,,,,,5c4f5967aac8be0001716a65,001,32,Male,Irish,Some College,2024-02-26_17h21.12.197,CRL1e,2023.2.3,Win32,59.88023952,65dbad3905fde4fe1981dc61,65dcc80546794a057b7402bb,,,,,,,,,,,587.207,1.2,588.4067,588.4067,589.3733,right,1,0.9645,,589.3734,590.3733,4,0,32,3,1,total,2,images/Ex6.jpg,right,reversed,easy,4,,,,,
,,,,,5c4f5967aac8be0001716a65,001,32,Male,Irish,Some College,2024-02-26_17h21.12.197,CRL1e,2023.2.3,Win32,59.88023952,65dbad3905fde4fe1981dc61,65dcc80546794a057b7402bb,,,,,,,,,,,590.3736,0.5,590.8737,590.8737,592.0403,left,1,1.1616,,592.0404,593.0405,4,1,33,6,1,total,2,images/Ex8.jpg,left,reversed,easy,4,,,,,
,,,,,5c4f5967aac8be0001716a65,001,32,Male,Irish,Some College,2024-02-26_17h21.12.197,CRL1e,2023.2.3,Win32,59.88023952,65dbad3905fde4fe1981dc61,65dcc80546794a057b7402bb,,,,,,,,,,,593.0408,0.6,593.6403,593.6403,594.2238,left,1,0.57,,594.2238,595.2237,4,2,34,7,1,total,2,images/Ex8.jpg,left,reversed,easy,4,,,,,
,,,,,5c4f5967aac8be0001716a65,001,32,Male,Irish,Some College,2024-02-26_17h21.12.197,CRL1e,2023.2.3,Win32,59.88023952,65dbad3905fde4fe1981dc61,65dcc80546794a057b7402bb,,,,,,,,,,,595.224,1,596.2236,596.2236,596.9749,right,0,0.7467,,596.9749,597.9736,4,3,35,4,1,total,2,images/Ex7.jpg,left,reversed,easy,4,,,,,
,,,,,5c4f5967aac8be0001716a65,001,32,Male,Irish,Some College,2024-02-26_17h21.12.197,CRL1e,2023.2.3,Win32,59.88023952,65dbad3905fde4fe1981dc61,65dcc80546794a057b7402bb,,,,,,,,,,,597.9739,0.7,598.6739,598.6739,599.1236,left,1,0.4343,,599.1237,600.1239,4,4,36,5,1,total,2,images/Ex7.jpg,left,reversed,easy,4,,,,,
,,,,,5c4f5967aac8be0001716a65,001,32,Male,Irish,Some College,2024-02-26_17h21.12.197,CRL1e,2023.2.3,Win32,59.88023952,65dbad3905fde4fe1981dc61,65dcc80546794a057b7402bb,,,,,,,,,,,600.1241,0.9,601.0238,601.0238,601.9408,right,1,0.9075,,601.9408,602.9409,4,5,37,1,1,total,2,images/Ex5.jpg,right,reversed,easy,4,,,,,
,,,,,5c4f5967aac8be0001716a65,001,32,Male,Irish,Some College,2024-02-26_17h21.12.197,CRL1e,2023.2.3,Win32,59.88023952,65dbad3905fde4fe1981dc61,65dcc80546794a057b7402bb,,,,,,,,,,,602.9412,1.2,604.1421,604.1421,605.0072,right,1,0.8639,,605.0072,606.0072,4,6,38,2,1,total,2,images/Ex6.jpg,right,reversed,easy,4,,,,,
,,,,,5c4f5967aac8be0001716a65,001,32,Male,Irish,Some College,2024-02-26_17h21.12.197,CRL1e,2023.2.3,Win32,59.88023952,65dbad3905fde4fe1981dc61,65dcc80546794a057b7402bb,,,,,,,,,,,606.0075,0.9,606.9073,606.9073,607.8575,right,1,0.9429,,607.8576,608.8572,4,7,39,0,1,total,2,images/Ex5.jpg,right,reversed,easy,4,,,,,
,,,,,5c4f5967aac8be0001716a65,001,32,Male,Irish,Some College,2024-02-26_17h21.12.197,CRL1e,2023.2.3,Win32,59.88023952,65dbad3905fde4fe1981dc61,65dcc80546794a057b7402bb,,,,,,,,,,,608.8576,0.6,609.4572,609.4573,610.1912,left,1,0.7177,,610.1913,611.1907,5,0,40,4,1,total,2,images/Ex7.jpg,left,reversed,easy,4,,,,,
,,,,,5c4f5967aac8be0001716a65,001,32,Male,Irish,Some College,2024-02-26_17h21.12.197,CRL1e,2023.2.3,Win32,59.88023952,65dbad3905fde4fe1981dc61,65dcc80546794a057b7402bb,,,,,,,,,,,611.191,0.9,612.0907,612.0907,612.7742,right,1,0.6784,,612.7742,613.774,5,1,41,3,1,total,2,images/Ex6.jpg,right,reversed,easy,4,,,,,
,,,,,5c4f5967aac8be0001716a65,001,32,Male,Irish,Some College,2024-02-26_17h21.12.197,CRL1e,2023.2.3,Win32,59.88023952,65dbad3905fde4fe1981dc61,65dcc80546794a057b7402bb,,,,,,,,,,,613.7743,0.7,614.474,614.474,615.0742,right,1,0.5928,,615.0742,616.0741,5,2,42,1,1,total,2,images/Ex5.jpg,right,reversed,easy,4,,,,,
,,,,,5c4f5967aac8be0001716a65,001,32,Male,Irish,Some College,2024-02-26_17h21.12.197,CRL1e,2023.2.3,Win32,59.88023952,65dbad3905fde4fe1981dc61,65dcc80546794a057b7402bb,,,,,,,,,,,616.0744,1.2,617.2743,617.2743,618.0081,right,0,0.7269,,618.0081,619.0076,5,3,43,7,1,total,2,images/Ex8.jpg,left,reversed,easy,4,,,,,
,,,,,5c4f5967aac8be0001716a65,001,32,Male,Irish,Some College,2024-02-26_17h21.12.197,CRL1e,2023.2.3,Win32,59.88023952,65dbad3905fde4fe1981dc61,65dcc80546794a057b7402bb,,,,,,,,,,,619.0078,1.1,620.1076,620.1076,620.8756,right,1,0.7671,,620.8757,621.8743,5,4,44,2,1,total,2,images/Ex6.jpg,right,reversed,easy,4,,,,,
,,,,,5c4f5967aac8be0001716a65,001,32,Male,Irish,Some College,2024-02-26_17h21.12.197,CRL1e,2023.2.3,Win32,59.88023952,65dbad3905fde4fe1981dc61,65dcc80546794a057b7402bb,,,,,,,,,,,621.8746,1,622.8744,622.8744,623.6745,right,0,0.7906,,623.6745,624.6743,5,5,45,6,1,total,2,images/Ex8.jpg,left,reversed,easy,4,,,,,
,,,,,5c4f5967aac8be0001716a65,001,32,Male,Irish,Some College,2024-02-26_17h21.12.197,CRL1e,2023.2.3,Win32,59.88023952,65dbad3905fde4fe1981dc61,65dcc80546794a057b7402bb,,,,,,,,,,,624.6746,0.6,625.2745,625.2745,626.1746,right,1,0.885,,626.1746,627.175,5,6,46,0,1,total,2,images/Ex5.jpg,right,reversed,easy,4,,,,,
,,,,,5c4f5967aac8be0001716a65,001,32,Male,Irish,Some College,2024-02-26_17h21.12.197,CRL1e,2023.2.3,Win32,59.88023952,65dbad3905fde4fe1981dc61,65dcc80546794a057b7402bb,,,,,,,,,,,627.1753,1.2,628.3744,628.3746,629.158,left,1,0.7687,,629.158,630.1584,5,7,47,5,1,total,2,images/Ex7.jpg,left,reversed,easy,4,,,,,
,,,,,5c4f5967aac8be0001716a65,001,32,Male,Irish,Some College,2024-02-26_17h21.12.197,CRL1e,2023.2.3,Win32,59.88023952,65dbad3905fde4fe1981dc61,65dcc80546794a057b7402bb,,,,,,,,,,,,,,,,,,,,,,,,,,,,,,,,,,630.1588,684.8433,space,54.6613,