infCons.started,infCons.stopped,resp_consent.keys,resp_consent.rt,resp_consent.duration,participant,session,Age?,Gender?,Nationality?,Highest Educational Degree?,date,expName,psychopyVersion,OS,frameRate,STUDY_ID,SESSION_ID,instructions.started,instructions.stopped,resp_instructions.keys,resp_instructions.rt,resp_instructions.duration,nextTask.started,nextTask.stopped,ready_task.keys,ready_task.rt,ready_task.duration,fixation.started,ITI,fixation.stopped,stim.started,stim.stopped,response.keys,response.corr,response.rt,response.duration,feedback.started,feedback.stopped,trials.thisRepN,trials.thisTrialN,trials.thisN,trials.thisIndex,trials.ran,task,phase,Exemplars,r_correct,condition,difficulty,set,end.started,end.stopped,resp_end.keys,resp_end.rt,resp_end.duration
0.0004,7.5062,space,7.2713,,5d6ad36076cca6001a66d89e,001,48,male,British,a levels,2024-02-26_15h40.15.598,CRL1e,2023.2.3,Win32,6.650881907,65dbad3905fde4fe1981dc61,65dcb0686b4fdf8f941a345d,,,,,,,,,,,,,,,,,,,,,,,,,,,,,,,,,,,,,,
,,,,,5d6ad36076cca6001a66d89e,001,48,male,British,a levels,2024-02-26_15h40.15.598,CRL1e,2023.2.3,Win32,6.650881907,65dbad3905fde4fe1981dc61,65dcb0686b4fdf8f941a345d,7.5068,145.6095,space,137.7816,0.0009,,,,,,,,,,,,,,,,,,,,,,,,,,,,,,,,,
,,,,,5d6ad36076cca6001a66d89e,001,48,male,British,a levels,2024-02-26_15h40.15.598,CRL1e,2023.2.3,Win32,6.650881907,65dbad3905fde4fe1981dc61,65dcb0686b4fdf8f941a345d,,,,,,145.6814,195.2456,space,48.8803,0.0006,195.3019,1.4,196.7392,196.7394,204.5826,right,0,7.8233,0.0005,204.6057,205.444,0,0,0,3,1,total,1,images/Ex2.jpg,left,training,easy,2,,,,,
,,,,,5d6ad36076cca6001a66d89e,001,48,male,British,a levels,2024-02-26_15h40.15.598,CRL1e,2023.2.3,Win32,6.650881907,65dbad3905fde4fe1981dc61,65dcb0686b4fdf8f941a345d,,,,,,,,,,,205.446,1.4,206.8694,206.8696,209.8111,right,1,2.936,0.0004,209.8113,210.8342,0,1,1,6,1,total,1,images/Ex4.jpg,right,training,easy,2,,,,,
,,,,,5d6ad36076cca6001a66d89e,001,48,male,British,a levels,2024-02-26_15h40.15.598,CRL1e,2023.2.3,Win32,6.650881907,65dbad3905fde4fe1981dc61,65dcb0686b4fdf8f941a345d,,,,,,,,,,,210.8355,0.7,211.3357,211.3357,214.6391,right,1,3.3001,0.0006,214.6393,215.7463,0,2,2,7,1,total,1,images/Ex4.jpg,right,training,easy,2,,,,,
,,,,,5d6ad36076cca6001a66d89e,001,48,male,British,a levels,2024-02-26_15h40.15.598,CRL1e,2023.2.3,Win32,6.650881907,65dbad3905fde4fe1981dc61,65dcb0686b4fdf8f941a345d,,,,,,,,,,,215.7472,0.8,216.4819,216.4821,218.4549,right,1,1.97,0.0004,218.455,219.3963,0,3,3,4,1,total,1,images/Ex3.jpg,right,training,easy,2,,,,,
,,,,,5d6ad36076cca6001a66d89e,001,48,male,British,a levels,2024-02-26_15h40.15.598,CRL1e,2023.2.3,Win32,6.650881907,65dbad3905fde4fe1981dc61,65dcb0686b4fdf8f941a345d,,,,,,,,,,,219.3969,1.2,220.5022,220.5023,222.5045,right,0,1.9993,0.0003,222.5046,223.3828,0,4,4,2,1,total,1,images/Ex2.jpg,left,training,easy,2,,,,,
,,,,,5d6ad36076cca6001a66d89e,001,48,male,British,a levels,2024-02-26_15h40.15.598,CRL1e,2023.2.3,Win32,6.650881907,65dbad3905fde4fe1981dc61,65dcb0686b4fdf8f941a345d,,,,,,,,,,,223.3835,1.4,224.7649,224.7649,226.9068,right,0,2.1393,0.0004,226.9069,227.9182,0,5,5,1,1,total,1,images/Ex1.jpg,left,training,easy,2,,,,,
,,,,,5d6ad36076cca6001a66d89e,001,48,male,British,a levels,2024-02-26_15h40.15.598,CRL1e,2023.2.3,Win32,6.650881907,65dbad3905fde4fe1981dc61,65dcb0686b4fdf8f941a345d,,,,,,,,,,,227.919,1.3,228.8793,228.8794,231.1186,left,0,2.2356,0.0004,231.1187,232.12,0,6,6,5,1,total,1,images/Ex3.jpg,right,training,easy,2,,,,,
,,,,,5d6ad36076cca6001a66d89e,001,48,male,British,a levels,2024-02-26_15h40.15.598,CRL1e,2023.2.3,Win32,6.650881907,65dbad3905fde4fe1981dc61,65dcb0686b4fdf8f941a345d,,,,,,,,,,,232.1209,1,233.0725,233.0727,235.889,right,0,2.8135,0.0002,235.8891,236.7288,0,7,7,0,1,total,1,images/Ex1.jpg,left,training,easy,2,,,,,
,,,,,5d6ad36076cca6001a66d89e,001,48,male,British,a levels,2024-02-26_15h40.15.598,CRL1e,2023.2.3,Win32,6.650881907,65dbad3905fde4fe1981dc61,65dcb0686b4fdf8f941a345d,,,,,,,,,,,236.7503,1.2,237.8522,237.8523,239.4332,left,1,1.579,,239.4335,240.2908,1,0,8,0,1,total,1,images/Ex1.jpg,left,training,easy,2,,,,,
,,,,,5d6ad36076cca6001a66d89e,001,48,male,British,a levels,2024-02-26_15h40.15.598,CRL1e,2023.2.3,Win32,6.650881907,65dbad3905fde4fe1981dc61,65dcb0686b4fdf8f941a345d,,,,,,,,,,,240.2913,0.6,240.8413,240.8413,243.0983,right,1,2.2545,0.0002,243.0984,243.9663,1,1,9,4,1,total,1,images/Ex3.jpg,right,training,easy,2,,,,,
,,,,,5d6ad36076cca6001a66d89e,001,48,male,British,a levels,2024-02-26_15h40.15.598,CRL1e,2023.2.3,Win32,6.650881907,65dbad3905fde4fe1981dc61,65dcb0686b4fdf8f941a345d,,,,,,,,,,,243.9904,0.8,244.827,244.827,246.3619,right,1,1.5327,0.0003,246.362,247.4518,1,2,10,5,1,total,1,images/Ex3.jpg,right,training,easy,2,,,,,
,,,,,5d6ad36076cca6001a66d89e,001,48,male,British,a levels,2024-02-26_15h40.15.598,CRL1e,2023.2.3,Win32,6.650881907,65dbad3905fde4fe1981dc61,65dcb0686b4fdf8f941a345d,,,,,,,,,,,247.453,0.7,247.9571,247.9572,250.3388,right,0,2.3784,0.0003,250.3389,251.3513,1,3,11,3,1,total,1,images/Ex2.jpg,left,training,easy,2,,,,,
,,,,,5d6ad36076cca6001a66d89e,001,48,male,British,a levels,2024-02-26_15h40.15.598,CRL1e,2023.2.3,Win32,6.650881907,65dbad3905fde4fe1981dc61,65dcb0686b4fdf8f941a345d,,,,,,,,,,,251.3525,0.9,252.3169,252.3171,254.043,left,1,1.7233,0.0003,254.0431,255.0749,1,4,12,2,1,total,1,images/Ex2.jpg,left,training,easy,2,,,,,
,,,,,5d6ad36076cca6001a66d89e,001,48,male,British,a levels,2024-02-26_15h40.15.598,CRL1e,2023.2.3,Win32,6.650881907,65dbad3905fde4fe1981dc61,65dcb0686b4fdf8f941a345d,,,,,,,,,,,255.0756,1.1,255.9592,255.9592,257.5657,right,1,1.6044,,257.5658,258.4245,1,5,13,7,1,total,1,images/Ex4.jpg,right,training,easy,2,,,,,
,,,,,5d6ad36076cca6001a66d89e,001,48,male,British,a levels,2024-02-26_15h40.15.598,CRL1e,2023.2.3,Win32,6.650881907,65dbad3905fde4fe1981dc61,65dcb0686b4fdf8f941a345d,,,,,,,,,,,258.4253,1.5,259.8158,259.8159,261.0815,right,1,1.264,0.0002,261.0816,261.9431,1,6,14,6,1,total,1,images/Ex4.jpg,right,training,easy,2,,,,,
,,,,,5d6ad36076cca6001a66d89e,001,48,male,British,a levels,2024-02-26_15h40.15.598,CRL1e,2023.2.3,Win32,6.650881907,65dbad3905fde4fe1981dc61,65dcb0686b4fdf8f941a345d,,,,,,,,,,,261.9437,0.6,262.4952,262.4953,264.0773,left,1,1.58,,264.0774,264.9454,1,7,15,1,1,total,1,images/Ex1.jpg,left,training,easy,2,,,,,
,,,,,5d6ad36076cca6001a66d89e,001,48,male,British,a levels,2024-02-26_15h40.15.598,CRL1e,2023.2.3,Win32,6.650881907,65dbad3905fde4fe1981dc61,65dcb0686b4fdf8f941a345d,,,,,,,,,,,264.9474,0.9,265.8047,265.8047,267.3059,right,1,1.4986,,267.3061,268.3229,2,0,16,4,1,total,1,images/Ex3.jpg,right,training,easy,2,,,,,
,,,,,5d6ad36076cca6001a66d89e,001,48,male,British,a levels,2024-02-26_15h40.15.598,CRL1e,2023.2.3,Win32,6.650881907,65dbad3905fde4fe1981dc61,65dcb0686b4fdf8f941a345d,,,,,,,,,,,268.3237,0.9,269.2758,269.2758,271.4505,left,1,2.1715,0.0003,271.4506,272.4256,2,1,17,2,1,total,1,images/Ex2.jpg,left,training,easy,2,,,,,
,,,,,5d6ad36076cca6001a66d89e,001,48,male,British,a levels,2024-02-26_15h40.15.598,CRL1e,2023.2.3,Win32,6.650881907,65dbad3905fde4fe1981dc61,65dcb0686b4fdf8f941a345d,,,,,,,,,,,272.4263,1.5,273.8764,273.8764,276.0713,left,1,2.192,0.0002,276.0714,276.9478,2,2,18,1,1,total,1,images/Ex1.jpg,left,training,easy,2,,,,,
,,,,,5d6ad36076cca6001a66d89e,001,48,male,British,a levels,2024-02-26_15h40.15.598,CRL1e,2023.2.3,Win32,6.650881907,65dbad3905fde4fe1981dc61,65dcb0686b4fdf8f941a345d,,,,,,,,,,,276.9483,0.7,277.4961,277.4962,278.7594,right,1,1.2613,,278.7595,279.6251,2,3,19,6,1,total,1,images/Ex4.jpg,right,training,easy,2,,,,,
,,,,,5d6ad36076cca6001a66d89e,001,48,male,British,a levels,2024-02-26_15h40.15.598,CRL1e,2023.2.3,Win32,6.650881907,65dbad3905fde4fe1981dc61,65dcb0686b4fdf8f941a345d,,,,,,,,,,,279.6257,0.7,280.1809,280.1809,281.4499,left,0,1.2669,,281.45,282.3142,2,4,20,5,1,total,1,images/Ex3.jpg,right,training,easy,2,,,,,
,,,,,5d6ad36076cca6001a66d89e,001,48,male,British,a levels,2024-02-26_15h40.15.598,CRL1e,2023.2.3,Win32,6.650881907,65dbad3905fde4fe1981dc61,65dcb0686b4fdf8f941a345d,,,,,,,,,,,282.3148,0.7,282.8652,282.8653,284.7439,right,0,1.8762,0.0002,284.744,285.5926,2,5,21,0,1,total,1,images/Ex1.jpg,left,training,easy,2,,,,,
,,,,,5d6ad36076cca6001a66d89e,001,48,male,British,a levels,2024-02-26_15h40.15.598,CRL1e,2023.2.3,Win32,6.650881907,65dbad3905fde4fe1981dc61,65dcb0686b4fdf8f941a345d,,,,,,,,,,,285.5932,0.7,286.2173,286.2173,288.4151,left,0,2.1955,0.0003,288.4153,289.4136,2,6,22,7,1,total,1,images/Ex4.jpg,right,training,easy,2,,,,,
,,,,,5d6ad36076cca6001a66d89e,001,48,male,British,a levels,2024-02-26_15h40.15.598,CRL1e,2023.2.3,Win32,6.650881907,65dbad3905fde4fe1981dc61,65dcb0686b4fdf8f941a345d,,,,,,,,,,,289.4144,0.9,290.3834,290.3834,293.1402,right,0,2.7542,0.0004,293.1404,294.119,2,7,23,3,1,total,1,images/Ex2.jpg,left,training,easy,2,,,,,
,,,,,5d6ad36076cca6001a66d89e,001,48,male,British,a levels,2024-02-26_15h40.15.598,CRL1e,2023.2.3,Win32,6.650881907,65dbad3905fde4fe1981dc61,65dcb0686b4fdf8f941a345d,,,,,,,,,,,294.12,0.9,295.0977,295.0977,296.7925,left,0,1.6921,,296.7926,297.6375,3,0,24,5,1,total,1,images/Ex3.jpg,right,training,easy,2,,,,,
,,,,,5d6ad36076cca6001a66d89e,001,48,male,British,a levels,2024-02-26_15h40.15.598,CRL1e,2023.2.3,Win32,6.650881907,65dbad3905fde4fe1981dc61,65dcb0686b4fdf8f941a345d,,,,,,,,,,,297.6381,1,298.4675,298.4675,300.4111,right,0,1.941,0.0002,300.4112,301.2809,3,1,25,1,1,total,1,images/Ex1.jpg,left,training,easy,2,,,,,
,,,,,5d6ad36076cca6001a66d89e,001,48,male,British,a levels,2024-02-26_15h40.15.598,CRL1e,2023.2.3,Win32,6.650881907,65dbad3905fde4fe1981dc61,65dcb0686b4fdf8f941a345d,,,,,,,,,,,301.2814,0.7,301.8386,301.8386,303.1014,left,1,1.2607,,303.1014,303.975,3,2,26,2,1,total,1,images/Ex2.jpg,left,training,easy,2,,,,,
,,,,,5d6ad36076cca6001a66d89e,001,48,male,British,a levels,2024-02-26_15h40.15.598,CRL1e,2023.2.3,Win32,6.650881907,65dbad3905fde4fe1981dc61,65dcb0686b4fdf8f941a345d,,,,,,,,,,,303.9756,0.6,304.5251,304.5252,305.7936,left,1,1.2664,,305.7936,306.6215,3,3,27,0,1,total,1,images/Ex1.jpg,left,training,easy,2,,,,,
,,,,,5d6ad36076cca6001a66d89e,001,48,male,British,a levels,2024-02-26_15h40.15.598,CRL1e,2023.2.3,Win32,6.650881907,65dbad3905fde4fe1981dc61,65dcb0686b4fdf8f941a345d,,,,,,,,,,,306.6224,1.5,308.0307,308.0308,309.7228,left,0,1.6898,,309.7229,310.7261,3,4,28,6,1,total,1,images/Ex4.jpg,right,training,easy,2,,,,,
,,,,,5d6ad36076cca6001a66d89e,001,48,male,British,a levels,2024-02-26_15h40.15.598,CRL1e,2023.2.3,Win32,6.650881907,65dbad3905fde4fe1981dc61,65dcb0686b4fdf8f941a345d,,,,,,,,,,,310.7268,1.1,311.6693,311.6694,313.3553,left,0,1.6837,,313.3554,314.4367,3,5,29,4,1,total,1,images/Ex3.jpg,right,training,easy,2,,,,,
,,,,,5d6ad36076cca6001a66d89e,001,48,male,British,a levels,2024-02-26_15h40.15.598,CRL1e,2023.2.3,Win32,6.650881907,65dbad3905fde4fe1981dc61,65dcb0686b4fdf8f941a345d,,,,,,,,,,,314.4383,0.6,314.9864,314.9866,317.074,right,0,2.0847,0.0003,317.0741,317.9137,3,6,30,3,1,total,1,images/Ex2.jpg,left,training,easy,2,,,,,
,,,,,5d6ad36076cca6001a66d89e,001,48,male,British,a levels,2024-02-26_15h40.15.598,CRL1e,2023.2.3,Win32,6.650881907,65dbad3905fde4fe1981dc61,65dcb0686b4fdf8f941a345d,,,,,,,,,,,317.9143,1.3,319.0665,319.0666,320.6578,left,0,1.5894,,320.6579,321.5053,3,7,31,7,1,total,1,images/Ex4.jpg,right,training,easy,2,,,,,
,,,,,5d6ad36076cca6001a66d89e,001,48,male,British,a levels,2024-02-26_15h40.15.598,CRL1e,2023.2.3,Win32,6.650881907,65dbad3905fde4fe1981dc61,65dcb0686b4fdf8f941a345d,,,,,,,,,,,321.506,1.3,322.6123,322.6123,324.1951,left,0,1.5809,,324.1952,325.0671,4,0,32,5,1,total,1,images/Ex3.jpg,right,training,easy,2,,,,,
,,,,,5d6ad36076cca6001a66d89e,001,48,male,British,a levels,2024-02-26_15h40.15.598,CRL1e,2023.2.3,Win32,6.650881907,65dbad3905fde4fe1981dc61,65dcb0686b4fdf8f941a345d,,,,,,,,,,,325.0679,0.7,325.6243,325.6243,327.4692,right,0,1.8427,0.0003,327.4694,328.4858,4,1,33,0,1,total,1,images/Ex1.jpg,left,training,easy,2,,,,,
,,,,,5d6ad36076cca6001a66d89e,001,48,male,British,a levels,2024-02-26_15h40.15.598,CRL1e,2023.2.3,Win32,6.650881907,65dbad3905fde4fe1981dc61,65dcb0686b4fdf8f941a345d,,,,,,,,,,,328.4866,1.3,329.9062,329.9063,331.5553,right,1,1.6463,0.0003,331.5555,332.55,4,2,34,6,1,total,1,images/Ex4.jpg,right,training,easy,2,,,,,
,,,,,5d6ad36076cca6001a66d89e,001,48,male,British,a levels,2024-02-26_15h40.15.598,CRL1e,2023.2.3,Win32,6.650881907,65dbad3905fde4fe1981dc61,65dcb0686b4fdf8f941a345d,,,,,,,,,,,332.5508,1.4,333.9638,333.9639,335.6936,left,1,1.7268,,335.6937,336.562,4,3,35,2,1,total,1,images/Ex2.jpg,left,training,easy,2,,,,,
,,,,,5d6ad36076cca6001a66d89e,001,48,male,British,a levels,2024-02-26_15h40.15.598,CRL1e,2023.2.3,Win32,6.650881907,65dbad3905fde4fe1981dc61,65dcb0686b4fdf8f941a345d,,,,,,,,,,,336.5629,0.7,337.1198,337.1199,339.0209,right,0,1.8989,,339.0209,339.8927,4,4,36,1,1,total,1,images/Ex1.jpg,left,training,easy,2,,,,,
,,,,,5d6ad36076cca6001a66d89e,001,48,male,British,a levels,2024-02-26_15h40.15.598,CRL1e,2023.2.3,Win32,6.650881907,65dbad3905fde4fe1981dc61,65dcb0686b4fdf8f941a345d,,,,,,,,,,,339.8933,1.5,341.2827,341.2827,343.2443,left,1,1.9594,,343.2445,344.0969,4,5,37,3,1,total,1,images/Ex2.jpg,left,training,easy,2,,,,,
,,,,,5d6ad36076cca6001a66d89e,001,48,male,British,a levels,2024-02-26_15h40.15.598,CRL1e,2023.2.3,Win32,6.650881907,65dbad3905fde4fe1981dc61,65dcb0686b4fdf8f941a345d,,,,,,,,,,,344.0976,1.1,345.2079,345.2079,346.6929,right,1,1.483,,346.6931,347.3172,4,6,38,4,1,total,1,images/Ex3.jpg,right,training,easy,2,,,,,
,,,,,5d6ad36076cca6001a66d89e,001,48,male,British,a levels,2024-02-26_15h40.15.598,CRL1e,2023.2.3,Win32,6.650881907,65dbad3905fde4fe1981dc61,65dcb0686b4fdf8f941a345d,,,,,,,,,,,347.3189,1.1,348.4662,348.4663,350.4505,right,1,1.981,0.0004,350.4507,351.0509,4,7,39,7,1,total,1,images/Ex4.jpg,right,training,easy,2,,,,,
,,,,,5d6ad36076cca6001a66d89e,001,48,male,British,a levels,2024-02-26_15h40.15.598,CRL1e,2023.2.3,Win32,6.650881907,65dbad3905fde4fe1981dc61,65dcb0686b4fdf8f941a345d,,,,,,,,,,,351.052,0.9,351.6535,351.6537,352.943,right,1,1.287,,352.9431,353.5143,5,0,40,6,1,total,1,images/Ex4.jpg,right,training,easy,2,,,,,
,,,,,5d6ad36076cca6001a66d89e,001,48,male,British,a levels,2024-02-26_15h40.15.598,CRL1e,2023.2.3,Win32,6.650881907,65dbad3905fde4fe1981dc61,65dcb0686b4fdf8f941a345d,,,,,,,,,,,353.5164,1.1,354.7201,354.7201,356.9724,left,1,2.2495,0.0003,356.9725,357.9321,5,1,41,3,1,total,1,images/Ex2.jpg,left,training,easy,2,,,,,
,,,,,5d6ad36076cca6001a66d89e,001,48,male,British,a levels,2024-02-26_15h40.15.598,CRL1e,2023.2.3,Win32,6.650881907,65dbad3905fde4fe1981dc61,65dcb0686b4fdf8f941a345d,,,,,,,,,,,357.9327,1.5,359.446,359.4462,361.1936,left,1,1.7455,0.0002,361.1938,362.1426,5,2,42,0,1,total,1,images/Ex1.jpg,left,training,easy,2,,,,,
,,,,,5d6ad36076cca6001a66d89e,001,48,male,British,a levels,2024-02-26_15h40.15.598,CRL1e,2023.2.3,Win32,6.650881907,65dbad3905fde4fe1981dc61,65dcb0686b4fdf8f941a345d,,,,,,,,,,,362.1681,1.5,363.6727,363.6728,365.4079,right,1,1.7328,,365.408,366.3573,5,3,43,5,1,total,1,images/Ex3.jpg,right,training,easy,2,,,,,
,,,,,5d6ad36076cca6001a66d89e,001,48,male,British,a levels,2024-02-26_15h40.15.598,CRL1e,2023.2.3,Win32,6.650881907,65dbad3905fde4fe1981dc61,65dcb0686b4fdf8f941a345d,,,,,,,,,,,366.3579,1.4,367.526,367.526,369.4271,right,1,1.8986,0.0003,369.4272,370.2809,5,4,44,4,1,total,1,images/Ex3.jpg,right,training,easy,2,,,,,
,,,,,5d6ad36076cca6001a66d89e,001,48,male,British,a levels,2024-02-26_15h40.15.598,CRL1e,2023.2.3,Win32,6.650881907,65dbad3905fde4fe1981dc61,65dcb0686b4fdf8f941a345d,,,,,,,,,,,370.2818,0.6,370.7355,370.7356,372.143,right,1,1.405,0.0004,372.143,373.025,5,5,45,7,1,total,1,images/Ex4.jpg,right,training,easy,2,,,,,
,,,,,5d6ad36076cca6001a66d89e,001,48,male,British,a levels,2024-02-26_15h40.15.598,CRL1e,2023.2.3,Win32,6.650881907,65dbad3905fde4fe1981dc61,65dcb0686b4fdf8f941a345d,,,,,,,,,,,373.0257,1.4,374.2699,374.2699,375.7185,left,1,1.4458,0.0003,375.7187,376.592,5,6,46,1,1,total,1,images/Ex1.jpg,left,training,easy,2,,,,,
,,,,,5d6ad36076cca6001a66d89e,001,48,male,British,a levels,2024-02-26_15h40.15.598,CRL1e,2023.2.3,Win32,6.650881907,65dbad3905fde4fe1981dc61,65dcb0686b4fdf8f941a345d,,,,,,,,,,,376.5926,1.5,377.9459,377.946,379.8985,right,0,1.9501,0.0003,379.8985,380.9233,5,7,47,2,1,total,1,images/Ex2.jpg,left,training,easy,2,,,,,
,,,,,5d6ad36076cca6001a66d89e,001,48,male,British,a levels,2024-02-26_15h40.15.598,CRL1e,2023.2.3,Win32,6.650881907,65dbad3905fde4fe1981dc61,65dcb0686b4fdf8f941a345d,,,,,,,,,,,380.9345,0.7,381.5904,381.5905,383.4887,right,0,1.8961,0.0003,383.4887,384.2064,0,0,0,5,1,total,2,images/Ex3.jpg,left,reversed,easy,2,,,,,
,,,,,5d6ad36076cca6001a66d89e,001,48,male,British,a levels,2024-02-26_15h40.15.598,CRL1e,2023.2.3,Win32,6.650881907,65dbad3905fde4fe1981dc61,65dcb0686b4fdf8f941a345d,,,,,,,,,,,384.2071,1.2,385.2105,385.2107,386.7249,left,0,1.512,,386.7251,387.7458,0,1,1,3,1,total,2,images/Ex2.jpg,right,reversed,easy,2,,,,,
,,,,,5d6ad36076cca6001a66d89e,001,48,male,British,a levels,2024-02-26_15h40.15.598,CRL1e,2023.2.3,Win32,6.650881907,65dbad3905fde4fe1981dc61,65dcb0686b4fdf8f941a345d,,,,,,,,,,,387.7463,1.5,389.0648,389.0649,390.588,left,0,1.5211,0.0003,390.5881,391.6263,0,2,2,0,1,total,2,images/Ex1.jpg,right,reversed,easy,2,,,,,
,,,,,5d6ad36076cca6001a66d89e,001,48,male,British,a levels,2024-02-26_15h40.15.598,CRL1e,2023.2.3,Win32,6.650881907,65dbad3905fde4fe1981dc61,65dcb0686b4fdf8f941a345d,,,,,,,,,,,391.627,0.6,392.2942,392.2942,393.8109,right,1,1.5145,,393.8111,394.8354,0,3,3,2,1,total,2,images/Ex2.jpg,right,reversed,easy,2,,,,,
,,,,,5d6ad36076cca6001a66d89e,001,48,male,British,a levels,2024-02-26_15h40.15.598,CRL1e,2023.2.3,Win32,6.650881907,65dbad3905fde4fe1981dc61,65dcb0686b4fdf8f941a345d,,,,,,,,,,,394.836,1.4,396.1911,396.1912,397.3334,right,0,1.1402,,397.3335,398.3755,0,4,4,7,1,total,2,images/Ex4.jpg,left,reversed,easy,2,,,,,
,,,,,5d6ad36076cca6001a66d89e,001,48,male,British,a levels,2024-02-26_15h40.15.598,CRL1e,2023.2.3,Win32,6.650881907,65dbad3905fde4fe1981dc61,65dcb0686b4fdf8f941a345d,,,,,,,,,,,398.3761,0.8,399.0392,399.0393,400.5548,left,0,1.5135,0.0002,400.555,401.5887,0,5,5,1,1,total,2,images/Ex1.jpg,right,reversed,easy,2,,,,,
,,,,,5d6ad36076cca6001a66d89e,001,48,male,British,a levels,2024-02-26_15h40.15.598,CRL1e,2023.2.3,Win32,6.650881907,65dbad3905fde4fe1981dc61,65dcb0686b4fdf8f941a345d,,,,,,,,,,,401.5894,1,402.3467,402.3468,403.5057,left,1,1.1569,,403.5058,404.5565,0,6,6,6,1,total,2,images/Ex4.jpg,left,reversed,easy,2,,,,,
,,,,,5d6ad36076cca6001a66d89e,001,48,male,British,a levels,2024-02-26_15h40.15.598,CRL1e,2023.2.3,Win32,6.650881907,65dbad3905fde4fe1981dc61,65dcb0686b4fdf8f941a345d,,,,,,,,,,,404.5572,1.5,405.8784,405.8784,407.4337,right,0,1.553,0.0002,407.4338,408.4498,0,7,7,4,1,total,2,images/Ex3.jpg,left,reversed,easy,2,,,,,
,,,,,5d6ad36076cca6001a66d89e,001,48,male,British,a levels,2024-02-26_15h40.15.598,CRL1e,2023.2.3,Win32,6.650881907,65dbad3905fde4fe1981dc61,65dcb0686b4fdf8f941a345d,,,,,,,,,,,408.4505,1.4,409.7678,409.7679,411.296,left,1,1.5259,0.0002,411.2961,412.314,1,0,8,6,1,total,2,images/Ex4.jpg,left,reversed,easy,2,,,,,
,,,,,5d6ad36076cca6001a66d89e,001,48,male,British,a levels,2024-02-26_15h40.15.598,CRL1e,2023.2.3,Win32,6.650881907,65dbad3905fde4fe1981dc61,65dcb0686b4fdf8f941a345d,,,,,,,,,,,412.3147,1.3,413.6436,413.6436,415.2257,right,1,1.5799,0.0003,415.2259,416.2621,1,1,9,0,1,total,2,images/Ex1.jpg,right,reversed,easy,2,,,,,
,,,,,5d6ad36076cca6001a66d89e,001,48,male,British,a levels,2024-02-26_15h40.15.598,CRL1e,2023.2.3,Win32,6.650881907,65dbad3905fde4fe1981dc61,65dcb0686b4fdf8f941a345d,,,,,,,,,,,416.2627,0.8,416.9271,416.9272,418.85,left,1,1.9204,0.0003,418.85,419.719,1,2,10,5,1,total,2,images/Ex3.jpg,left,reversed,easy,2,,,,,
,,,,,5d6ad36076cca6001a66d89e,001,48,male,British,a levels,2024-02-26_15h40.15.598,CRL1e,2023.2.3,Win32,6.650881907,65dbad3905fde4fe1981dc61,65dcb0686b4fdf8f941a345d,,,,,,,,,,,419.7199,1.1,420.574,420.5741,422.0509,left,1,1.4744,0.0003,422.0509,422.9777,1,3,11,7,1,total,2,images/Ex4.jpg,left,reversed,easy,2,,,,,
,,,,,5d6ad36076cca6001a66d89e,001,48,male,British,a levels,2024-02-26_15h40.15.598,CRL1e,2023.2.3,Win32,6.650881907,65dbad3905fde4fe1981dc61,65dcb0686b4fdf8f941a345d,,,,,,,,,,,422.9788,1.5,424.3798,424.3798,426.3827,right,1,2.0004,0.0004,426.3829,427.1883,1,4,12,1,1,total,2,images/Ex1.jpg,right,reversed,easy,2,,,,,
,,,,,5d6ad36076cca6001a66d89e,001,48,male,British,a levels,2024-02-26_15h40.15.598,CRL1e,2023.2.3,Win32,6.650881907,65dbad3905fde4fe1981dc61,65dcb0686b4fdf8f941a345d,,,,,,,,,,,427.189,1,428.1911,428.1912,430.47,right,1,2.2763,0.0003,430.4701,431.4832,1,5,13,3,1,total,2,images/Ex2.jpg,right,reversed,easy,2,,,,,
,,,,,5d6ad36076cca6001a66d89e,001,48,male,British,a levels,2024-02-26_15h40.15.598,CRL1e,2023.2.3,Win32,6.650881907,65dbad3905fde4fe1981dc61,65dcb0686b4fdf8f941a345d,,,,,,,,,,,431.4838,0.6,432.1466,432.1466,434.0764,left,1,1.9272,0.0004,434.0765,435.1244,1,6,14,4,1,total,2,images/Ex3.jpg,left,reversed,easy,2,,,,,
,,,,,5d6ad36076cca6001a66d89e,001,48,male,British,a levels,2024-02-26_15h40.15.598,CRL1e,2023.2.3,Win32,6.650881907,65dbad3905fde4fe1981dc61,65dcb0686b4fdf8f941a345d,,,,,,,,,,,435.1251,0.7,435.7882,435.7883,437.9163,right,1,2.1256,0.0003,437.9164,438.7915,1,7,15,2,1,total,2,images/Ex2.jpg,right,reversed,easy,2,,,,,
,,,,,5d6ad36076cca6001a66d89e,001,48,male,British,a levels,2024-02-26_15h40.15.598,CRL1e,2023.2.3,Win32,6.650881907,65dbad3905fde4fe1981dc61,65dcb0686b4fdf8f941a345d,,,,,,,,,,,438.7924,0.7,439.217,439.2171,441.1096,left,1,1.8904,,441.1097,441.9765,2,0,16,5,1,total,2,images/Ex3.jpg,left,reversed,easy,2,,,,,
,,,,,5d6ad36076cca6001a66d89e,001,48,male,British,a levels,2024-02-26_15h40.15.598,CRL1e,2023.2.3,Win32,6.650881907,65dbad3905fde4fe1981dc61,65dcb0686b4fdf8f941a345d,,,,,,,,,,,441.9772,1,442.8047,442.8047,444.7039,right,1,1.8971,,444.704,445.5871,2,1,17,3,1,total,2,images/Ex2.jpg,right,reversed,easy,2,,,,,
,,,,,5d6ad36076cca6001a66d89e,001,48,male,British,a levels,2024-02-26_15h40.15.598,CRL1e,2023.2.3,Win32,6.650881907,65dbad3905fde4fe1981dc61,65dcb0686b4fdf8f941a345d,,,,,,,,,,,445.5878,0.6,446.0049,446.005,447.3333,left,1,1.3262,,447.3335,448.3829,2,2,18,6,1,total,2,images/Ex4.jpg,left,reversed,easy,2,,,,,
,,,,,5d6ad36076cca6001a66d89e,001,48,male,British,a levels,2024-02-26_15h40.15.598,CRL1e,2023.2.3,Win32,6.650881907,65dbad3905fde4fe1981dc61,65dcb0686b4fdf8f941a345d,,,,,,,,,,,448.3835,0.9,449.0457,449.0458,450.1937,left,1,1.1462,,450.1938,451.2348,2,3,19,7,1,total,2,images/Ex4.jpg,left,reversed,easy,2,,,,,
,,,,,5d6ad36076cca6001a66d89e,001,48,male,British,a levels,2024-02-26_15h40.15.598,CRL1e,2023.2.3,Win32,6.650881907,65dbad3905fde4fe1981dc61,65dcb0686b4fdf8f941a345d,,,,,,,,,,,451.2355,1.4,452.5608,452.5609,454.4897,right,0,1.9268,0.0003,454.4898,455.5338,2,4,20,4,1,total,2,images/Ex3.jpg,left,reversed,easy,2,,,,,
,,,,,5d6ad36076cca6001a66d89e,001,48,male,British,a levels,2024-02-26_15h40.15.598,CRL1e,2023.2.3,Win32,6.650881907,65dbad3905fde4fe1981dc61,65dcb0686b4fdf8f941a345d,,,,,,,,,,,455.5345,1.3,456.8583,456.8584,458.3845,right,1,1.524,0.0002,458.3845,459.4264,2,5,21,1,1,total,2,images/Ex1.jpg,right,reversed,easy,2,,,,,
,,,,,5d6ad36076cca6001a66d89e,001,48,male,British,a levels,2024-02-26_15h40.15.598,CRL1e,2023.2.3,Win32,6.650881907,65dbad3905fde4fe1981dc61,65dcb0686b4fdf8f941a345d,,,,,,,,,,,459.427,0.6,460.0854,460.0855,461.2208,right,1,1.1334,,461.2209,462.2481,2,6,22,0,1,total,2,images/Ex1.jpg,right,reversed,easy,2,,,,,
,,,,,5d6ad36076cca6001a66d89e,001,48,male,British,a levels,2024-02-26_15h40.15.598,CRL1e,2023.2.3,Win32,6.650881907,65dbad3905fde4fe1981dc61,65dcb0686b4fdf8f941a345d,,,,,,,,,,,462.2488,1.2,463.2435,463.2436,465.1484,right,1,1.9023,0.0005,465.1485,466.2095,2,7,23,2,1,total,2,images/Ex2.jpg,right,reversed,easy,2,,,,,
,,,,,5d6ad36076cca6001a66d89e,001,48,male,British,a levels,2024-02-26_15h40.15.598,CRL1e,2023.2.3,Win32,6.650881907,65dbad3905fde4fe1981dc61,65dcb0686b4fdf8f941a345d,,,,,,,,,,,466.2101,1,467.2083,467.2084,468.648,right,1,1.4375,,468.6481,469.5077,3,0,24,1,1,total,2,images/Ex1.jpg,right,reversed,easy,2,,,,,
,,,,,5d6ad36076cca6001a66d89e,001,48,male,British,a levels,2024-02-26_15h40.15.598,CRL1e,2023.2.3,Win32,6.650881907,65dbad3905fde4fe1981dc61,65dcb0686b4fdf8f941a345d,,,,,,,,,,,469.5083,0.7,469.9193,469.9194,471.8177,right,1,1.896,0.0003,471.8178,472.7102,3,1,25,2,1,total,2,images/Ex2.jpg,right,reversed,easy,2,,,,,
,,,,,5d6ad36076cca6001a66d89e,001,48,male,British,a levels,2024-02-26_15h40.15.598,CRL1e,2023.2.3,Win32,6.650881907,65dbad3905fde4fe1981dc61,65dcb0686b4fdf8f941a345d,,,,,,,,,,,472.711,1.2,473.9527,473.9527,475.4439,right,1,1.4886,0.0003,475.444,476.3056,3,2,26,0,1,total,2,images/Ex1.jpg,right,reversed,easy,2,,,,,
,,,,,5d6ad36076cca6001a66d89e,001,48,male,British,a levels,2024-02-26_15h40.15.598,CRL1e,2023.2.3,Win32,6.650881907,65dbad3905fde4fe1981dc61,65dcb0686b4fdf8f941a345d,,,,,,,,,,,476.3064,1.1,477.1578,477.1579,478.7356,left,1,1.5759,,478.7357,479.7654,3,3,27,4,1,total,2,images/Ex3.jpg,left,reversed,easy,2,,,,,
,,,,,5d6ad36076cca6001a66d89e,001,48,male,British,a levels,2024-02-26_15h40.15.598,CRL1e,2023.2.3,Win32,6.650881907,65dbad3905fde4fe1981dc61,65dcb0686b4fdf8f941a345d,,,,,,,,,,,479.7662,1,480.7842,480.7842,481.9301,left,1,1.1441,,481.9301,482.9632,3,4,28,7,1,total,2,images/Ex4.jpg,left,reversed,easy,2,,,,,
,,,,,5d6ad36076cca6001a66d89e,001,48,male,British,a levels,2024-02-26_15h40.15.598,CRL1e,2023.2.3,Win32,6.650881907,65dbad3905fde4fe1981dc61,65dcb0686b4fdf8f941a345d,,,,,,,,,,,482.964,1.1,483.9546,483.9547,485.4691,right,0,1.5119,,485.4692,486.4981,3,5,29,5,1,total,2,images/Ex3.jpg,left,reversed,easy,2,,,,,
,,,,,5d6ad36076cca6001a66d89e,001,48,male,British,a levels,2024-02-26_15h40.15.598,CRL1e,2023.2.3,Win32,6.650881907,65dbad3905fde4fe1981dc61,65dcb0686b4fdf8f941a345d,,,,,,,,,,,486.4987,1.3,487.8109,487.8109,489.0436,left,1,1.2308,,489.0437,489.7731,3,6,30,6,1,total,2,images/Ex4.jpg,left,reversed,easy,2,,,,,
,,,,,5d6ad36076cca6001a66d89e,001,48,male,British,a levels,2024-02-26_15h40.15.598,CRL1e,2023.2.3,Win32,6.650881907,65dbad3905fde4fe1981dc61,65dcb0686b4fdf8f941a345d,,,,,,,,,,,489.7739,1.5,491.1405,491.1405,493.0424,right,1,1.8998,0.0002,493.0425,494.0996,3,7,31,3,1,total,2,images/Ex2.jpg,right,reversed,easy,2,,,,,
,,,,,5d6ad36076cca6001a66d89e,001,48,male,British,a levels,2024-02-26_15h40.15.598,CRL1e,2023.2.3,Win32,6.650881907,65dbad3905fde4fe1981dc61,65dcb0686b4fdf8f941a345d,,,,,,,,,,,494.1005,0.6,494.4483,494.4484,495.9569,left,1,1.5066,,495.9569,496.6827,4,0,32,4,1,total,2,images/Ex3.jpg,left,reversed,easy,2,,,,,
,,,,,5d6ad36076cca6001a66d89e,001,48,male,British,a levels,2024-02-26_15h40.15.598,CRL1e,2023.2.3,Win32,6.650881907,65dbad3905fde4fe1981dc61,65dcb0686b4fdf8f941a345d,,,,,,,,,,,496.6835,1.4,498.0281,498.0281,499.2152,right,1,1.1842,0.0004,499.2152,500.0602,4,1,33,0,1,total,2,images/Ex1.jpg,right,reversed,easy,2,,,,,
,,,,,5d6ad36076cca6001a66d89e,001,48,male,British,a levels,2024-02-26_15h40.15.598,CRL1e,2023.2.3,Win32,6.650881907,65dbad3905fde4fe1981dc61,65dcb0686b4fdf8f941a345d,,,,,,,,,,,500.0608,1.3,501.2546,501.2546,502.5691,right,1,1.3128,,502.5692,503.6229,4,2,34,1,1,total,2,images/Ex1.jpg,right,reversed,easy,2,,,,,
,,,,,5d6ad36076cca6001a66d89e,001,48,male,British,a levels,2024-02-26_15h40.15.598,CRL1e,2023.2.3,Win32,6.650881907,65dbad3905fde4fe1981dc61,65dcb0686b4fdf8f941a345d,,,,,,,,,,,503.6235,0.7,504.2841,504.2843,505.4246,left,1,1.1383,,505.4247,506.4635,4,3,35,6,1,total,2,images/Ex4.jpg,left,reversed,easy,2,,,,,
,,,,,5d6ad36076cca6001a66d89e,001,48,male,British,a levels,2024-02-26_15h40.15.598,CRL1e,2023.2.3,Win32,6.650881907,65dbad3905fde4fe1981dc61,65dcb0686b4fdf8f941a345d,,,,,,,,,,,506.4643,1.5,507.7907,507.7908,509.7185,right,1,1.9255,0.0004,509.7187,510.6203,4,4,36,3,1,total,2,images/Ex2.jpg,right,reversed,easy,2,,,,,
,,,,,5d6ad36076cca6001a66d89e,001,48,male,British,a levels,2024-02-26_15h40.15.598,CRL1e,2023.2.3,Win32,6.650881907,65dbad3905fde4fe1981dc61,65dcb0686b4fdf8f941a345d,,,,,,,,,,,510.6214,1,511.5523,511.5524,513.0838,right,1,1.5289,0.0004,513.084,514.0044,4,5,37,2,1,total,2,images/Ex2.jpg,right,reversed,easy,2,,,,,
,,,,,5d6ad36076cca6001a66d89e,001,48,male,British,a levels,2024-02-26_15h40.15.598,CRL1e,2023.2.3,Win32,6.650881907,65dbad3905fde4fe1981dc61,65dcb0686b4fdf8f941a345d,,,,,,,,,,,514.0051,0.6,514.4282,514.4283,516.3627,left,1,1.9321,0.0003,516.3628,517.2403,4,6,38,5,1,total,2,images/Ex3.jpg,left,reversed,easy,2,,,,,
,,,,,5d6ad36076cca6001a66d89e,001,48,male,British,a levels,2024-02-26_15h40.15.598,CRL1e,2023.2.3,Win32,6.650881907,65dbad3905fde4fe1981dc61,65dcb0686b4fdf8f941a345d,,,,,,,,,,,517.2411,0.5,517.6562,517.6563,518.9493,left,1,1.2908,,518.9494,519.7113,4,7,39,7,1,total,2,images/Ex4.jpg,left,reversed,easy,2,,,,,
,,,,,5d6ad36076cca6001a66d89e,001,48,male,British,a levels,2024-02-26_15h40.15.598,CRL1e,2023.2.3,Win32,6.650881907,65dbad3905fde4fe1981dc61,65dcb0686b4fdf8f941a345d,,,,,,,,,,,519.712,1.1,520.8123,520.8125,522.0772,right,1,1.263,,522.0773,522.8545,5,0,40,1,1,total,2,images/Ex1.jpg,right,reversed,easy,2,,,,,
,,,,,5d6ad36076cca6001a66d89e,001,48,male,British,a levels,2024-02-26_15h40.15.598,CRL1e,2023.2.3,Win32,6.650881907,65dbad3905fde4fe1981dc61,65dcb0686b4fdf8f941a345d,,,,,,,,,,,522.8551,1.1,523.9637,523.9638,525.2267,right,1,1.2613,,525.2268,526.0172,5,1,41,0,1,total,2,images/Ex1.jpg,right,reversed,easy,2,,,,,
,,,,,5d6ad36076cca6001a66d89e,001,48,male,British,a levels,2024-02-26_15h40.15.598,CRL1e,2023.2.3,Win32,6.650881907,65dbad3905fde4fe1981dc61,65dcb0686b4fdf8f941a345d,,,,,,,,,,,526.0179,0.5,526.4048,526.4049,528.0688,left,1,1.6612,0.0003,528.0688,528.8614,5,2,42,4,1,total,2,images/Ex3.jpg,left,reversed,easy,2,,,,,
,,,,,5d6ad36076cca6001a66d89e,001,48,male,British,a levels,2024-02-26_15h40.15.598,CRL1e,2023.2.3,Win32,6.650881907,65dbad3905fde4fe1981dc61,65dcb0686b4fdf8f941a345d,,,,,,,,,,,528.8621,1.1,529.9706,529.9707,531.2264,left,1,1.2542,,531.2265,532.0088,5,3,43,5,1,total,2,images/Ex3.jpg,left,reversed,easy,2,,,,,
,,,,,5d6ad36076cca6001a66d89e,001,48,male,British,a levels,2024-02-26_15h40.15.598,CRL1e,2023.2.3,Win32,6.650881907,65dbad3905fde4fe1981dc61,65dcb0686b4fdf8f941a345d,,,,,,,,,,,532.0095,0.6,532.3789,532.3789,533.6356,left,1,1.2547,,533.6357,534.3936,5,4,44,6,1,total,2,images/Ex4.jpg,left,reversed,easy,2,,,,,
,,,,,5d6ad36076cca6001a66d89e,001,48,male,British,a levels,2024-02-26_15h40.15.598,CRL1e,2023.2.3,Win32,6.650881907,65dbad3905fde4fe1981dc61,65dcb0686b4fdf8f941a345d,,,,,,,,,,,534.3944,1.2,535.5172,535.5173,537.1976,right,1,1.6777,0.0002,537.1977,537.9643,5,5,45,3,1,total,2,images/Ex2.jpg,right,reversed,easy,2,,,,,
,,,,,5d6ad36076cca6001a66d89e,001,48,male,British,a levels,2024-02-26_15h40.15.598,CRL1e,2023.2.3,Win32,6.650881907,65dbad3905fde4fe1981dc61,65dcb0686b4fdf8f941a345d,,,,,,,,,,,537.9651,1,538.7452,538.7453,540.0314,left,1,1.2836,0.0005,540.0315,540.8191,5,6,46,7,1,total,2,images/Ex4.jpg,left,reversed,easy,2,,,,,
,,,,,5d6ad36076cca6001a66d89e,001,48,male,British,a levels,2024-02-26_15h40.15.598,CRL1e,2023.2.3,Win32,6.650881907,65dbad3905fde4fe1981dc61,65dcb0686b4fdf8f941a345d,,,,,,,,,,,540.8202,1,541.5702,541.5704,542.8524,right,1,1.2797,,542.8524,543.656,5,7,47,2,1,total,2,images/Ex2.jpg,right,reversed,easy,2,,,,,
,,,,,5d6ad36076cca6001a66d89e,001,48,male,British,a levels,2024-02-26_15h40.15.598,CRL1e,2023.2.3,Win32,6.650881907,65dbad3905fde4fe1981dc61,65dcb0686b4fdf8f941a345d,,,,,,543.6576,557.8288,space,13.8168,,557.8658,1.2,558.9784,558.9785,560.6682,left,1,1.6875,0.0003,560.6683,561.4192,0,0,0,3,1,partial,1,images/Ex6.jpg,left,training,easy,2,,,,,
,,,,,5d6ad36076cca6001a66d89e,001,48,male,British,a levels,2024-02-26_15h40.15.598,CRL1e,2023.2.3,Win32,6.650881907,65dbad3905fde4fe1981dc61,65dcb0686b4fdf8f941a345d,,,,,,,,,,,561.42,1.3,562.5519,562.552,564.2728,right,0,1.7184,0.0004,564.2729,565.0538,0,1,1,1,1,partial,1,images/Ex5.jpg,left,training,easy,2,,,,,
,,,,,5d6ad36076cca6001a66d89e,001,48,male,British,a levels,2024-02-26_15h40.15.598,CRL1e,2023.2.3,Win32,6.650881907,65dbad3905fde4fe1981dc61,65dcb0686b4fdf8f941a345d,,,,,,,,,,,565.0545,0.9,565.8125,565.8126,567.5225,left,1,1.7077,,567.5226,568.3076,0,2,2,2,1,partial,1,images/Ex6.jpg,left,training,easy,2,,,,,
,,,,,5d6ad36076cca6001a66d89e,001,48,male,British,a levels,2024-02-26_15h40.15.598,CRL1e,2023.2.3,Win32,6.650881907,65dbad3905fde4fe1981dc61,65dcb0686b4fdf8f941a345d,,,,,,,,,,,568.3084,0.8,569.0545,569.0546,570.3388,left,1,1.2816,,570.3389,571.1266,0,3,3,0,1,partial,1,images/Ex5.jpg,left,training,easy,2,,,,,
,,,,,5d6ad36076cca6001a66d89e,001,48,male,British,a levels,2024-02-26_15h40.15.598,CRL1e,2023.2.3,Win32,6.650881907,65dbad3905fde4fe1981dc61,65dcb0686b4fdf8f941a345d,,,,,,,,,,,571.1274,1.1,572.2596,572.2596,573.5454,right,1,1.2835,,573.5455,574.3322,0,4,4,7,1,partial,1,images/Ex8.jpg,right,training,easy,2,,,,,
,,,,,5d6ad36076cca6001a66d89e,001,48,male,British,a levels,2024-02-26_15h40.15.598,CRL1e,2023.2.3,Win32,6.650881907,65dbad3905fde4fe1981dc61,65dcb0686b4fdf8f941a345d,,,,,,,,,,,574.333,1.5,575.8305,575.8306,577.1957,left,0,1.3631,,577.1958,578.0841,0,5,5,5,1,partial,1,images/Ex7.jpg,right,training,easy,2,,,,,
,,,,,5d6ad36076cca6001a66d89e,001,48,male,British,a levels,2024-02-26_15h40.15.598,CRL1e,2023.2.3,Win32,6.650881907,65dbad3905fde4fe1981dc61,65dcb0686b4fdf8f941a345d,,,,,,,,,,,578.0847,0.9,578.8462,578.8463,580.1072,right,1,1.2591,,580.1073,580.9011,0,6,6,4,1,partial,1,images/Ex7.jpg,right,training,easy,2,,,,,
,,,,,5d6ad36076cca6001a66d89e,001,48,male,British,a levels,2024-02-26_15h40.15.598,CRL1e,2023.2.3,Win32,6.650881907,65dbad3905fde4fe1981dc61,65dcb0686b4fdf8f941a345d,,,,,,,,,,,580.9019,1,581.6787,581.6787,583.4059,right,1,1.725,,583.406,584.1954,0,7,7,6,1,partial,1,images/Ex8.jpg,right,training,easy,2,,,,,
,,,,,5d6ad36076cca6001a66d89e,001,48,male,British,a levels,2024-02-26_15h40.15.598,CRL1e,2023.2.3,Win32,6.650881907,65dbad3905fde4fe1981dc61,65dcb0686b4fdf8f941a345d,,,,,,,,,,,584.1963,1.5,585.6904,585.6905,586.9579,left,1,1.2652,,586.958,587.7347,1,0,8,2,1,partial,1,images/Ex6.jpg,left,training,easy,2,,,,,
,,,,,5d6ad36076cca6001a66d89e,001,48,male,British,a levels,2024-02-26_15h40.15.598,CRL1e,2023.2.3,Win32,6.650881907,65dbad3905fde4fe1981dc61,65dcb0686b4fdf8f941a345d,,,,,,,,,,,587.7354,1.1,588.8648,588.8649,590.1827,right,0,1.316,,590.1827,590.966,1,1,9,1,1,partial,1,images/Ex5.jpg,left,training,easy,2,,,,,
,,,,,5d6ad36076cca6001a66d89e,001,48,male,British,a levels,2024-02-26_15h40.15.598,CRL1e,2023.2.3,Win32,6.650881907,65dbad3905fde4fe1981dc61,65dcb0686b4fdf8f941a345d,,,,,,,,,,,590.9666,0.8,591.7026,591.7027,592.9865,left,1,1.2818,0.0003,592.9866,593.7837,1,2,10,0,1,partial,1,images/Ex5.jpg,left,training,easy,2,,,,,
,,,,,5d6ad36076cca6001a66d89e,001,48,male,British,a levels,2024-02-26_15h40.15.598,CRL1e,2023.2.3,Win32,6.650881907,65dbad3905fde4fe1981dc61,65dcb0686b4fdf8f941a345d,,,,,,,,,,,593.7844,0.7,594.5187,594.5188,596.2659,left,1,1.7442,0.0004,596.2661,597.0319,1,3,11,3,1,partial,1,images/Ex6.jpg,left,training,easy,2,,,,,
,,,,,5d6ad36076cca6001a66d89e,001,48,male,British,a levels,2024-02-26_15h40.15.598,CRL1e,2023.2.3,Win32,6.650881907,65dbad3905fde4fe1981dc61,65dcb0686b4fdf8f941a345d,,,,,,,,,,,597.0329,1.1,598.2311,598.2312,600.0916,right,1,1.8578,0.0003,600.0918,600.8899,1,4,12,6,1,partial,1,images/Ex8.jpg,right,training,easy,2,,,,,
,,,,,5d6ad36076cca6001a66d89e,001,48,male,British,a levels,2024-02-26_15h40.15.598,CRL1e,2023.2.3,Win32,6.650881907,65dbad3905fde4fe1981dc61,65dcb0686b4fdf8f941a345d,,,,,,,,,,,600.8905,0.8,601.6302,601.6303,603.342,left,0,1.7092,0.0005,603.3421,604.1163,1,5,13,5,1,partial,1,images/Ex7.jpg,right,training,easy,2,,,,,
,,,,,5d6ad36076cca6001a66d89e,001,48,male,British,a levels,2024-02-26_15h40.15.598,CRL1e,2023.2.3,Win32,6.650881907,65dbad3905fde4fe1981dc61,65dcb0686b4fdf8f941a345d,,,,,,,,,,,604.1169,1,604.8646,604.8646,606.13,right,1,1.2636,,606.1302,606.9211,1,6,14,4,1,partial,1,images/Ex7.jpg,right,training,easy,2,,,,,
,,,,,5d6ad36076cca6001a66d89e,001,48,male,British,a levels,2024-02-26_15h40.15.598,CRL1e,2023.2.3,Win32,6.650881907,65dbad3905fde4fe1981dc61,65dcb0686b4fdf8f941a345d,,,,,,,,,,,606.9217,1.3,608.0383,608.0384,609.7503,left,0,1.7097,0.0004,609.7504,610.538,1,7,15,7,1,partial,1,images/Ex8.jpg,right,training,easy,2,,,,,
,,,,,5d6ad36076cca6001a66d89e,001,48,male,British,a levels,2024-02-26_15h40.15.598,CRL1e,2023.2.3,Win32,6.650881907,65dbad3905fde4fe1981dc61,65dcb0686b4fdf8f941a345d,,,,,,,,,,,610.5386,0.7,611.2797,611.2797,612.9804,right,1,1.699,,612.9806,613.7546,2,0,16,7,1,partial,1,images/Ex8.jpg,right,training,easy,2,,,,,
,,,,,5d6ad36076cca6001a66d89e,001,48,male,British,a levels,2024-02-26_15h40.15.598,CRL1e,2023.2.3,Win32,6.650881907,65dbad3905fde4fe1981dc61,65dcb0686b4fdf8f941a345d,,,,,,,,,,,613.7552,1,614.4894,614.4894,616.6163,left,1,2.1243,0.0003,616.6164,617.4163,2,1,17,1,1,partial,1,images/Ex5.jpg,left,training,easy,2,,,,,
,,,,,5d6ad36076cca6001a66d89e,001,48,male,British,a levels,2024-02-26_15h40.15.598,CRL1e,2023.2.3,Win32,6.650881907,65dbad3905fde4fe1981dc61,65dcb0686b4fdf8f941a345d,,,,,,,,,,,617.4171,0.8,618.1546,618.1546,619.4293,left,1,1.2732,,619.4295,620.2106,2,2,18,0,1,partial,1,images/Ex5.jpg,left,training,easy,2,,,,,
,,,,,5d6ad36076cca6001a66d89e,001,48,male,British,a levels,2024-02-26_15h40.15.598,CRL1e,2023.2.3,Win32,6.650881907,65dbad3905fde4fe1981dc61,65dcb0686b4fdf8f941a345d,,,,,,,,,,,620.2112,0.6,620.5807,620.5808,622.6886,left,1,2.1055,0.0003,622.6888,623.4736,2,3,19,3,1,partial,1,images/Ex6.jpg,left,training,easy,2,,,,,
,,,,,5d6ad36076cca6001a66d89e,001,48,male,British,a levels,2024-02-26_15h40.15.598,CRL1e,2023.2.3,Win32,6.650881907,65dbad3905fde4fe1981dc61,65dcb0686b4fdf8f941a345d,,,,,,,,,,,623.4743,1.2,624.5766,624.5767,625.8407,left,1,1.2624,,625.8408,626.6252,2,4,20,2,1,partial,1,images/Ex6.jpg,left,training,easy,2,,,,,
,,,,,5d6ad36076cca6001a66d89e,001,48,male,British,a levels,2024-02-26_15h40.15.598,CRL1e,2023.2.3,Win32,6.650881907,65dbad3905fde4fe1981dc61,65dcb0686b4fdf8f941a345d,,,,,,,,,,,626.6258,0.8,627.3626,627.3626,629.0626,right,1,1.6974,,629.0628,629.8549,2,5,21,5,1,partial,1,images/Ex7.jpg,right,training,easy,2,,,,,
,,,,,5d6ad36076cca6001a66d89e,001,48,male,British,a levels,2024-02-26_15h40.15.598,CRL1e,2023.2.3,Win32,6.650881907,65dbad3905fde4fe1981dc61,65dcb0686b4fdf8f941a345d,,,,,,,,,,,629.8556,1.5,631.3437,631.3439,632.6162,right,1,1.2705,,632.6163,633.4131,2,6,22,4,1,partial,1,images/Ex7.jpg,right,training,easy,2,,,,,
,,,,,5d6ad36076cca6001a66d89e,001,48,male,British,a levels,2024-02-26_15h40.15.598,CRL1e,2023.2.3,Win32,6.650881907,65dbad3905fde4fe1981dc61,65dcb0686b4fdf8f941a345d,,,,,,,,,,,633.4138,0.7,634.1622,634.1623,635.8548,left,0,1.6902,0.0003,635.8549,636.663,2,7,23,6,1,partial,1,images/Ex8.jpg,right,training,easy,2,,,,,
,,,,,5d6ad36076cca6001a66d89e,001,48,male,British,a levels,2024-02-26_15h40.15.598,CRL1e,2023.2.3,Win32,6.650881907,65dbad3905fde4fe1981dc61,65dcb0686b4fdf8f941a345d,,,,,,,,,,,636.6637,0.9,637.4149,637.415,639.1019,left,1,1.6847,0.0003,639.102,639.8904,3,0,24,0,1,partial,1,images/Ex5.jpg,left,training,easy,2,,,,,
,,,,,5d6ad36076cca6001a66d89e,001,48,male,British,a levels,2024-02-26_15h40.15.598,CRL1e,2023.2.3,Win32,6.650881907,65dbad3905fde4fe1981dc61,65dcb0686b4fdf8f941a345d,,,,,,,,,,,639.891,1.3,641.0006,641.0006,642.284,right,1,1.2811,,642.2841,643.0532,3,1,25,5,1,partial,1,images/Ex7.jpg,right,training,easy,2,,,,,
,,,,,5d6ad36076cca6001a66d89e,001,48,male,British,a levels,2024-02-26_15h40.15.598,CRL1e,2023.2.3,Win32,6.650881907,65dbad3905fde4fe1981dc61,65dcb0686b4fdf8f941a345d,,,,,,,,,,,643.0539,0.6,643.4261,643.4262,645.5717,right,1,2.143,0.0003,645.5718,646.3582,3,2,26,7,1,partial,1,images/Ex8.jpg,right,training,easy,2,,,,,
,,,,,5d6ad36076cca6001a66d89e,001,48,male,British,a levels,2024-02-26_15h40.15.598,CRL1e,2023.2.3,Win32,6.650881907,65dbad3905fde4fe1981dc61,65dcb0686b4fdf8f941a345d,,,,,,,,,,,646.3591,1.2,647.5253,647.5253,649.2174,left,1,1.6898,0.0004,649.2175,649.994,3,3,27,3,1,partial,1,images/Ex6.jpg,left,training,easy,2,,,,,
,,,,,5d6ad36076cca6001a66d89e,001,48,male,British,a levels,2024-02-26_15h40.15.598,CRL1e,2023.2.3,Win32,6.650881907,65dbad3905fde4fe1981dc61,65dcb0686b4fdf8f941a345d,,,,,,,,,,,649.9946,1.4,651.1621,651.1622,652.4452,left,1,1.2813,,652.4453,653.233,3,4,28,2,1,partial,1,images/Ex6.jpg,left,training,easy,2,,,,,
,,,,,5d6ad36076cca6001a66d89e,001,48,male,British,a levels,2024-02-26_15h40.15.598,CRL1e,2023.2.3,Win32,6.650881907,65dbad3905fde4fe1981dc61,65dcb0686b4fdf8f941a345d,,,,,,,,,,,653.2336,1.4,654.7064,654.7065,656.4198,right,1,1.711,,656.4199,657.186,3,5,29,6,1,partial,1,images/Ex8.jpg,right,training,easy,2,,,,,
,,,,,5d6ad36076cca6001a66d89e,001,48,male,British,a levels,2024-02-26_15h40.15.598,CRL1e,2023.2.3,Win32,6.650881907,65dbad3905fde4fe1981dc61,65dcb0686b4fdf8f941a345d,,,,,,,,,,,657.1867,0.6,657.5532,657.5533,659.2252,left,0,1.67,,659.2253,659.9952,3,6,30,4,1,partial,1,images/Ex7.jpg,right,training,easy,2,,,,,
,,,,,5d6ad36076cca6001a66d89e,001,48,male,British,a levels,2024-02-26_15h40.15.598,CRL1e,2023.2.3,Win32,6.650881907,65dbad3905fde4fe1981dc61,65dcb0686b4fdf8f941a345d,,,,,,,,,,,659.9958,0.8,660.7282,660.7282,661.9887,left,1,1.2587,,661.9889,662.7723,3,7,31,1,1,partial,1,images/Ex5.jpg,left,training,easy,2,,,,,
,,,,,5d6ad36076cca6001a66d89e,001,48,male,British,a levels,2024-02-26_15h40.15.598,CRL1e,2023.2.3,Win32,6.650881907,65dbad3905fde4fe1981dc61,65dcb0686b4fdf8f941a345d,,,,,,,,,,,662.7729,1,663.5075,663.5076,665.3315,right,1,1.8216,0.0004,665.3316,666.1355,4,0,32,6,1,partial,1,images/Ex8.jpg,right,training,easy,2,,,,,
,,,,,5d6ad36076cca6001a66d89e,001,48,male,British,a levels,2024-02-26_15h40.15.598,CRL1e,2023.2.3,Win32,6.650881907,65dbad3905fde4fe1981dc61,65dcb0686b4fdf8f941a345d,,,,,,,,,,,666.1361,1.1,667.2335,667.2335,668.498,left,1,1.2626,,668.4982,669.3155,4,1,33,3,1,partial,1,images/Ex6.jpg,left,training,easy,2,,,,,
,,,,,5d6ad36076cca6001a66d89e,001,48,male,British,a levels,2024-02-26_15h40.15.598,CRL1e,2023.2.3,Win32,6.650881907,65dbad3905fde4fe1981dc61,65dcb0686b4fdf8f941a345d,,,,,,,,,,,669.3161,1.3,670.4373,670.4374,671.6991,left,1,1.2603,,671.6993,672.486,4,2,34,2,1,partial,1,images/Ex6.jpg,left,training,easy,2,,,,,
,,,,,5d6ad36076cca6001a66d89e,001,48,male,British,a levels,2024-02-26_15h40.15.598,CRL1e,2023.2.3,Win32,6.650881907,65dbad3905fde4fe1981dc61,65dcb0686b4fdf8f941a345d,,,,,,,,,,,672.4866,1.5,673.9716,673.9716,675.7063,left,1,1.7329,,675.7064,676.473,4,3,35,0,1,partial,1,images/Ex5.jpg,left,training,easy,2,,,,,
,,,,,5d6ad36076cca6001a66d89e,001,48,male,British,a levels,2024-02-26_15h40.15.598,CRL1e,2023.2.3,Win32,6.650881907,65dbad3905fde4fe1981dc61,65dcb0686b4fdf8f941a345d,,,,,,,,,,,676.4737,1,677.2356,677.2357,678.9161,right,1,1.678,0.0005,678.9163,679.6933,4,4,36,7,1,partial,1,images/Ex8.jpg,right,training,easy,2,,,,,
,,,,,5d6ad36076cca6001a66d89e,001,48,male,British,a levels,2024-02-26_15h40.15.598,CRL1e,2023.2.3,Win32,6.650881907,65dbad3905fde4fe1981dc61,65dcb0686b4fdf8f941a345d,,,,,,,,,,,679.6942,0.7,680.4347,680.4347,681.692,right,1,1.2551,,681.6921,682.4692,4,5,37,5,1,partial,1,images/Ex7.jpg,right,training,easy,2,,,,,
,,,,,5d6ad36076cca6001a66d89e,001,48,male,British,a levels,2024-02-26_15h40.15.598,CRL1e,2023.2.3,Win32,6.650881907,65dbad3905fde4fe1981dc61,65dcb0686b4fdf8f941a345d,,,,,,,,,,,682.4699,0.7,683.203,683.203,684.4532,right,1,1.2485,0.0003,684.4533,685.2545,4,6,38,4,1,partial,1,images/Ex7.jpg,right,training,easy,2,,,,,
,,,,,5d6ad36076cca6001a66d89e,001,48,male,British,a levels,2024-02-26_15h40.15.598,CRL1e,2023.2.3,Win32,6.650881907,65dbad3905fde4fe1981dc61,65dcb0686b4fdf8f941a345d,,,,,,,,,,,685.2553,0.7,686.0252,686.0253,687.4091,left,1,1.381,0.0002,687.4092,688.215,4,7,39,1,1,partial,1,images/Ex5.jpg,left,training,easy,2,,,,,
,,,,,5d6ad36076cca6001a66d89e,001,48,male,British,a levels,2024-02-26_15h40.15.598,CRL1e,2023.2.3,Win32,6.650881907,65dbad3905fde4fe1981dc61,65dcb0686b4fdf8f941a345d,,,,,,,,,,,688.2156,1.4,689.6875,689.6876,691.3892,right,1,1.6995,0.0003,691.3893,692.1633,5,0,40,6,1,partial,1,images/Ex8.jpg,right,training,easy,2,,,,,
,,,,,5d6ad36076cca6001a66d89e,001,48,male,British,a levels,2024-02-26_15h40.15.598,CRL1e,2023.2.3,Win32,6.650881907,65dbad3905fde4fe1981dc61,65dcb0686b4fdf8f941a345d,,,,,,,,,,,692.1641,1.5,693.6618,693.6618,694.9433,right,1,1.2799,,694.9433,695.7199,5,1,41,4,1,partial,1,images/Ex7.jpg,right,training,easy,2,,,,,
,,,,,5d6ad36076cca6001a66d89e,001,48,male,British,a levels,2024-02-26_15h40.15.598,CRL1e,2023.2.3,Win32,6.650881907,65dbad3905fde4fe1981dc61,65dcb0686b4fdf8f941a345d,,,,,,,,,,,695.7205,1.2,696.8574,696.8574,698.1655,right,1,1.3063,0.0003,698.1657,698.9445,5,2,42,5,1,partial,1,images/Ex7.jpg,right,training,easy,2,,,,,
,,,,,5d6ad36076cca6001a66d89e,001,48,male,British,a levels,2024-02-26_15h40.15.598,CRL1e,2023.2.3,Win32,6.650881907,65dbad3905fde4fe1981dc61,65dcb0686b4fdf8f941a345d,,,,,,,,,,,698.9452,1.3,700.0562,700.0562,701.3548,left,1,1.2965,,701.3549,702.2037,5,3,43,2,1,partial,1,images/Ex6.jpg,left,training,easy,2,,,,,
,,,,,5d6ad36076cca6001a66d89e,001,48,male,British,a levels,2024-02-26_15h40.15.598,CRL1e,2023.2.3,Win32,6.650881907,65dbad3905fde4fe1981dc61,65dcb0686b4fdf8f941a345d,,,,,,,,,,,702.2046,0.6,702.5678,702.5679,704.2379,left,1,1.6673,0.0003,704.2379,705.0142,5,4,44,0,1,partial,1,images/Ex5.jpg,left,training,easy,2,,,,,
,,,,,5d6ad36076cca6001a66d89e,001,48,male,British,a levels,2024-02-26_15h40.15.598,CRL1e,2023.2.3,Win32,6.650881907,65dbad3905fde4fe1981dc61,65dcb0686b4fdf8f941a345d,,,,,,,,,,,705.0149,0.8,705.7867,705.7867,707.0681,left,1,1.279,0.0003,707.0682,707.859,5,5,45,3,1,partial,1,images/Ex6.jpg,left,training,easy,2,,,,,
,,,,,5d6ad36076cca6001a66d89e,001,48,male,British,a levels,2024-02-26_15h40.15.598,CRL1e,2023.2.3,Win32,6.650881907,65dbad3905fde4fe1981dc61,65dcb0686b4fdf8f941a345d,,,,,,,,,,,707.8596,1.2,708.9621,708.9621,710.6529,left,1,1.6885,0.0002,710.653,711.4255,5,6,46,1,1,partial,1,images/Ex5.jpg,left,training,easy,2,,,,,
,,,,,5d6ad36076cca6001a66d89e,001,48,male,British,a levels,2024-02-26_15h40.15.598,CRL1e,2023.2.3,Win32,6.650881907,65dbad3905fde4fe1981dc61,65dcb0686b4fdf8f941a345d,,,,,,,,,,,711.4262,1.1,712.5652,712.5653,713.8549,right,1,1.2874,,713.855,714.6519,5,7,47,7,1,partial,1,images/Ex8.jpg,right,training,easy,2,,,,,
,,,,,5d6ad36076cca6001a66d89e,001,48,male,British,a levels,2024-02-26_15h40.15.598,CRL1e,2023.2.3,Win32,6.650881907,65dbad3905fde4fe1981dc61,65dcb0686b4fdf8f941a345d,,,,,,,,,,,714.6609,1,715.4246,715.4246,716.6806,left,0,1.2537,,716.6808,717.4694,0,0,0,1,1,partial,2,images/Ex5.jpg,right,reversed,easy,2,,,,,
,,,,,5d6ad36076cca6001a66d89e,001,48,male,British,a levels,2024-02-26_15h40.15.598,CRL1e,2023.2.3,Win32,6.650881907,65dbad3905fde4fe1981dc61,65dcb0686b4fdf8f941a345d,,,,,,,,,,,717.4703,0.5,717.8536,717.8537,719.6298,left,1,1.7733,0.0002,719.6298,720.3936,0,1,1,5,1,partial,2,images/Ex7.jpg,left,reversed,easy,2,,,,,
,,,,,5d6ad36076cca6001a66d89e,001,48,male,British,a levels,2024-02-26_15h40.15.598,CRL1e,2023.2.3,Win32,6.650881907,65dbad3905fde4fe1981dc61,65dcb0686b4fdf8f941a345d,,,,,,,,,,,720.3944,1.2,721.5028,721.5029,722.7648,right,0,1.2599,,722.765,723.6398,0,2,2,2,1,partial,2,images/Ex6.jpg,left,nonreversed,easy,2,,,,,
,,,,,5d6ad36076cca6001a66d89e,001,48,male,British,a levels,2024-02-26_15h40.15.598,CRL1e,2023.2.3,Win32,6.650881907,65dbad3905fde4fe1981dc61,65dcb0686b4fdf8f941a345d,,,,,,,,,,,723.6405,0.8,724.3769,724.3769,726.1031,left,1,1.724,,726.1032,726.8825,0,3,3,4,1,partial,2,images/Ex7.jpg,left,reversed,easy,2,,,,,
,,,,,5d6ad36076cca6001a66d89e,001,48,male,British,a levels,2024-02-26_15h40.15.598,CRL1e,2023.2.3,Win32,6.650881907,65dbad3905fde4fe1981dc61,65dcb0686b4fdf8f941a345d,,,,,,,,,,,726.8831,0.9,727.6083,727.6083,729.2943,left,0,1.6833,0.0004,729.2944,730.06,0,4,4,6,1,partial,2,images/Ex8.jpg,right,nonreversed,easy,2,,,,,
,,,,,5d6ad36076cca6001a66d89e,001,48,male,British,a levels,2024-02-26_15h40.15.598,CRL1e,2023.2.3,Win32,6.650881907,65dbad3905fde4fe1981dc61,65dcb0686b4fdf8f941a345d,,,,,,,,,,,730.0607,1.3,731.1714,731.1715,732.8742,right,1,1.7006,,732.8744,733.6671,0,5,5,0,1,partial,2,images/Ex5.jpg,right,reversed,easy,2,,,,,
,,,,,5d6ad36076cca6001a66d89e,001,48,male,British,a levels,2024-02-26_15h40.15.598,CRL1e,2023.2.3,Win32,6.650881907,65dbad3905fde4fe1981dc61,65dcb0686b4fdf8f941a345d,,,,,,,,,,,733.6678,0.6,734.0325,734.0326,735.2992,left,1,1.2647,,735.2994,736.0739,0,6,6,3,1,partial,2,images/Ex6.jpg,left,nonreversed,easy,2,,,,,
,,,,,5d6ad36076cca6001a66d89e,001,48,male,British,a levels,2024-02-26_15h40.15.598,CRL1e,2023.2.3,Win32,6.650881907,65dbad3905fde4fe1981dc61,65dcb0686b4fdf8f941a345d,,,,,,,,,,,736.0746,1.3,737.1967,737.1967,738.9078,right,1,1.709,,738.9079,739.6883,0,7,7,7,1,partial,2,images/Ex8.jpg,right,nonreversed,easy,2,,,,,
,,,,,5d6ad36076cca6001a66d89e,001,48,male,British,a levels,2024-02-26_15h40.15.598,CRL1e,2023.2.3,Win32,6.650881907,65dbad3905fde4fe1981dc61,65dcb0686b4fdf8f941a345d,,,,,,,,,,,739.6889,0.6,740.0628,740.0629,741.7279,right,1,1.6631,,741.728,742.5361,1,0,8,1,1,partial,2,images/Ex5.jpg,right,reversed,easy,2,,,,,
,,,,,5d6ad36076cca6001a66d89e,001,48,male,British,a levels,2024-02-26_15h40.15.598,CRL1e,2023.2.3,Win32,6.650881907,65dbad3905fde4fe1981dc61,65dcb0686b4fdf8f941a345d,,,,,,,,,,,742.5368,1.1,743.6719,743.672,745.3593,right,1,1.6848,,745.3594,746.1335,1,1,9,6,1,partial,2,images/Ex8.jpg,right,nonreversed,easy,2,,,,,
,,,,,5d6ad36076cca6001a66d89e,001,48,male,British,a levels,2024-02-26_15h40.15.598,CRL1e,2023.2.3,Win32,6.650881907,65dbad3905fde4fe1981dc61,65dcb0686b4fdf8f941a345d,,,,,,,,,,,746.1343,0.7,746.91,746.91,748.5891,right,1,1.6769,0.0003,748.5892,749.3496,1,2,10,0,1,partial,2,images/Ex5.jpg,right,reversed,easy,2,,,,,
,,,,,5d6ad36076cca6001a66d89e,001,48,male,British,a levels,2024-02-26_15h40.15.598,CRL1e,2023.2.3,Win32,6.650881907,65dbad3905fde4fe1981dc61,65dcb0686b4fdf8f941a345d,,,,,,,,,,,749.3505,0.7,750.0929,750.0929,751.7744,left,1,1.6791,0.0002,751.7746,752.575,1,3,11,3,1,partial,2,images/Ex6.jpg,left,nonreversed,easy,2,,,,,
,,,,,5d6ad36076cca6001a66d89e,001,48,male,British,a levels,2024-02-26_15h40.15.598,CRL1e,2023.2.3,Win32,6.650881907,65dbad3905fde4fe1981dc61,65dcb0686b4fdf8f941a345d,,,,,,,,,,,752.5759,0.9,753.3948,753.3948,755.1691,left,1,1.7715,0.0004,755.1692,755.9513,1,4,12,5,1,partial,2,images/Ex7.jpg,left,reversed,easy,2,,,,,
,,,,,5d6ad36076cca6001a66d89e,001,48,male,British,a levels,2024-02-26_15h40.15.598,CRL1e,2023.2.3,Win32,6.650881907,65dbad3905fde4fe1981dc61,65dcb0686b4fdf8f941a345d,,,,,,,,,,,755.952,1.1,757.0675,757.0676,758.7491,right,1,1.6795,0.0002,758.7492,759.5172,1,5,13,7,1,partial,2,images/Ex8.jpg,right,nonreversed,easy,2,,,,,
,,,,,5d6ad36076cca6001a66d89e,001,48,male,British,a levels,2024-02-26_15h40.15.598,CRL1e,2023.2.3,Win32,6.650881907,65dbad3905fde4fe1981dc61,65dcb0686b4fdf8f941a345d,,,,,,,,,,,759.5181,0.6,759.9015,759.9015,761.6041,left,1,1.7,0.0003,761.6042,762.3756,1,6,14,4,1,partial,2,images/Ex7.jpg,left,reversed,easy,2,,,,,
,,,,,5d6ad36076cca6001a66d89e,001,48,male,British,a levels,2024-02-26_15h40.15.598,CRL1e,2023.2.3,Win32,6.650881907,65dbad3905fde4fe1981dc61,65dcb0686b4fdf8f941a345d,,,,,,,,,,,762.3764,0.6,762.7466,762.7467,764.0858,left,1,1.3369,,764.0859,764.8825,1,7,15,2,1,partial,2,images/Ex6.jpg,left,nonreversed,easy,2,,,,,
,,,,,5d6ad36076cca6001a66d89e,001,48,male,British,a levels,2024-02-26_15h40.15.598,CRL1e,2023.2.3,Win32,6.650881907,65dbad3905fde4fe1981dc61,65dcb0686b4fdf8f941a345d,,,,,,,,,,,764.8832,0.6,765.2644,765.2645,766.9651,right,1,1.6985,0.0003,766.9652,767.7316,2,0,16,7,1,partial,2,images/Ex8.jpg,right,nonreversed,easy,2,,,,,
,,,,,5d6ad36076cca6001a66d89e,001,48,male,British,a levels,2024-02-26_15h40.15.598,CRL1e,2023.2.3,Win32,6.650881907,65dbad3905fde4fe1981dc61,65dcb0686b4fdf8f941a345d,,,,,,,,,,,767.7323,0.6,768.1132,768.1133,769.8393,left,1,1.7236,,769.8394,770.627,2,1,17,5,1,partial,2,images/Ex7.jpg,left,reversed,easy,2,,,,,
,,,,,5d6ad36076cca6001a66d89e,001,48,male,British,a levels,2024-02-26_15h40.15.598,CRL1e,2023.2.3,Win32,6.650881907,65dbad3905fde4fe1981dc61,65dcb0686b4fdf8f941a345d,,,,,,,,,,,770.6276,1.4,772.1046,772.1046,773.3748,left,1,1.2679,,773.375,774.1406,2,2,18,2,1,partial,2,images/Ex6.jpg,left,nonreversed,easy,2,,,,,
,,,,,5d6ad36076cca6001a66d89e,001,48,male,British,a levels,2024-02-26_15h40.15.598,CRL1e,2023.2.3,Win32,6.650881907,65dbad3905fde4fe1981dc61,65dcb0686b4fdf8f941a345d,,,,,,,,,,,774.1413,1.4,775.3366,775.3366,776.7386,left,1,1.399,0.0003,776.7387,777.5278,2,3,19,3,1,partial,2,images/Ex6.jpg,left,nonreversed,easy,2,,,,,
,,,,,5d6ad36076cca6001a66d89e,001,48,male,British,a levels,2024-02-26_15h40.15.598,CRL1e,2023.2.3,Win32,6.650881907,65dbad3905fde4fe1981dc61,65dcb0686b4fdf8f941a345d,,,,,,,,,,,777.5285,1.4,778.6992,778.6992,780.4577,right,1,1.7562,0.0003,780.4578,781.3175,2,4,20,0,1,partial,2,images/Ex5.jpg,right,reversed,easy,2,,,,,
,,,,,5d6ad36076cca6001a66d89e,001,48,male,British,a levels,2024-02-26_15h40.15.598,CRL1e,2023.2.3,Win32,6.650881907,65dbad3905fde4fe1981dc61,65dcb0686b4fdf8f941a345d,,,,,,,,,,,781.3184,1.3,782.5747,782.5747,783.8745,left,1,1.2976,,783.8746,784.6432,2,5,21,4,1,partial,2,images/Ex7.jpg,left,reversed,easy,2,,,,,
,,,,,5d6ad36076cca6001a66d89e,001,48,male,British,a levels,2024-02-26_15h40.15.598,CRL1e,2023.2.3,Win32,6.650881907,65dbad3905fde4fe1981dc61,65dcb0686b4fdf8f941a345d,,,,,,,,,,,784.6438,1.1,785.792,785.792,787.4799,right,1,1.6859,0.0003,787.4801,788.2518,2,6,22,1,1,partial,2,images/Ex5.jpg,right,reversed,easy,2,,,,,
,,,,,5d6ad36076cca6001a66d89e,001,48,male,British,a levels,2024-02-26_15h40.15.598,CRL1e,2023.2.3,Win32,6.650881907,65dbad3905fde4fe1981dc61,65dcb0686b4fdf8f941a345d,,,,,,,,,,,788.2524,1,788.9928,788.9928,790.6732,right,1,1.6785,0.0002,790.6733,791.4738,2,7,23,6,1,partial,2,images/Ex8.jpg,right,nonreversed,easy,2,,,,,
,,,,,5d6ad36076cca6001a66d89e,001,48,male,British,a levels,2024-02-26_15h40.15.598,CRL1e,2023.2.3,Win32,6.650881907,65dbad3905fde4fe1981dc61,65dcb0686b4fdf8f941a345d,,,,,,,,,,,791.4745,0.6,791.8471,791.8473,793.0946,left,1,1.2453,,793.0947,793.8668,3,0,24,2,1,partial,2,images/Ex6.jpg,left,nonreversed,easy,2,,,,,
,,,,,5d6ad36076cca6001a66d89e,001,48,male,British,a levels,2024-02-26_15h40.15.598,CRL1e,2023.2.3,Win32,6.650881907,65dbad3905fde4fe1981dc61,65dcb0686b4fdf8f941a345d,,,,,,,,,,,793.8676,1.1,794.9692,794.9693,796.285,right,1,1.3138,,796.2852,797.0619,3,1,25,7,1,partial,2,images/Ex8.jpg,right,nonreversed,easy,2,,,,,
,,,,,5d6ad36076cca6001a66d89e,001,48,male,British,a levels,2024-02-26_15h40.15.598,CRL1e,2023.2.3,Win32,6.650881907,65dbad3905fde4fe1981dc61,65dcb0686b4fdf8f941a345d,,,,,,,,,,,797.0626,1.1,798.1604,798.1605,799.8557,right,1,1.6932,0.0002,799.8558,800.6515,3,2,26,6,1,partial,2,images/Ex8.jpg,right,nonreversed,easy,2,,,,,
,,,,,5d6ad36076cca6001a66d89e,001,48,male,British,a levels,2024-02-26_15h40.15.598,CRL1e,2023.2.3,Win32,6.650881907,65dbad3905fde4fe1981dc61,65dcb0686b4fdf8f941a345d,,,,,,,,,,,800.6522,1.3,801.753,801.7531,803.4379,right,1,1.6824,0.0004,803.4379,804.2292,3,3,27,1,1,partial,2,images/Ex5.jpg,right,reversed,easy,2,,,,,
,,,,,5d6ad36076cca6001a66d89e,001,48,male,British,a levels,2024-02-26_15h40.15.598,CRL1e,2023.2.3,Win32,6.650881907,65dbad3905fde4fe1981dc61,65dcb0686b4fdf8f941a345d,,,,,,,,,,,804.2299,1.5,805.7496,805.7496,807.0134,right,1,1.262,,807.0135,807.7938,3,4,28,0,1,partial,2,images/Ex5.jpg,right,reversed,easy,2,,,,,
,,,,,5d6ad36076cca6001a66d89e,001,48,male,British,a levels,2024-02-26_15h40.15.598,CRL1e,2023.2.3,Win32,6.650881907,65dbad3905fde4fe1981dc61,65dcb0686b4fdf8f941a345d,,,,,,,,,,,807.7944,1,808.5216,808.5217,809.826,left,1,1.3024,,809.8262,810.6636,3,5,29,3,1,partial,2,images/Ex6.jpg,left,nonreversed,easy,2,,,,,
,,,,,5d6ad36076cca6001a66d89e,001,48,male,British,a levels,2024-02-26_15h40.15.598,CRL1e,2023.2.3,Win32,6.650881907,65dbad3905fde4fe1981dc61,65dcb0686b4fdf8f941a345d,,,,,,,,,,,810.6645,1,811.3915,811.3916,813.1158,right,0,1.7216,0.0003,813.1159,813.8904,3,6,30,4,1,partial,2,images/Ex7.jpg,left,reversed,easy,2,,,,,
,,,,,5d6ad36076cca6001a66d89e,001,48,male,British,a levels,2024-02-26_15h40.15.598,CRL1e,2023.2.3,Win32,6.650881907,65dbad3905fde4fe1981dc61,65dcb0686b4fdf8f941a345d,,,,,,,,,,,813.8911,1,814.6657,814.6658,815.9227,left,1,1.2554,,815.9228,816.6965,3,7,31,5,1,partial,2,images/Ex7.jpg,left,reversed,easy,2,,,,,
,,,,,5d6ad36076cca6001a66d89e,001,48,male,British,a levels,2024-02-26_15h40.15.598,CRL1e,2023.2.3,Win32,6.650881907,65dbad3905fde4fe1981dc61,65dcb0686b4fdf8f941a345d,,,,,,,,,,,816.6974,0.8,817.4326,817.4327,818.6751,left,1,1.2408,,818.6753,819.4426,4,0,32,5,1,partial,2,images/Ex7.jpg,left,reversed,easy,2,,,,,
,,,,,5d6ad36076cca6001a66d89e,001,48,male,British,a levels,2024-02-26_15h40.15.598,CRL1e,2023.2.3,Win32,6.650881907,65dbad3905fde4fe1981dc61,65dcb0686b4fdf8f941a345d,,,,,,,,,,,819.4432,0.8,820.1904,820.1904,821.4447,left,1,1.2521,,821.4448,822.2589,4,1,33,2,1,partial,2,images/Ex6.jpg,left,nonreversed,easy,2,,,,,
,,,,,5d6ad36076cca6001a66d89e,001,48,male,British,a levels,2024-02-26_15h40.15.598,CRL1e,2023.2.3,Win32,6.650881907,65dbad3905fde4fe1981dc61,65dcb0686b4fdf8f941a345d,,,,,,,,,,,822.2595,1,822.9948,822.9948,824.2538,right,1,1.2567,,824.2539,825.0356,4,2,34,1,1,partial,2,images/Ex5.jpg,right,reversed,easy,2,,,,,
,,,,,5d6ad36076cca6001a66d89e,001,48,male,British,a levels,2024-02-26_15h40.15.598,CRL1e,2023.2.3,Win32,6.650881907,65dbad3905fde4fe1981dc61,65dcb0686b4fdf8f941a345d,,,,,,,,,,,825.0365,1.3,826.1907,826.1908,827.8713,right,1,1.6786,0.0004,827.8715,828.6327,4,3,35,0,1,partial,2,images/Ex5.jpg,right,reversed,easy,2,,,,,
,,,,,5d6ad36076cca6001a66d89e,001,48,male,British,a levels,2024-02-26_15h40.15.598,CRL1e,2023.2.3,Win32,6.650881907,65dbad3905fde4fe1981dc61,65dcb0686b4fdf8f941a345d,,,,,,,,,,,828.6333,1,829.3926,829.3927,830.6998,right,1,1.3049,,830.6999,831.5932,4,4,36,6,1,partial,2,images/Ex8.jpg,right,nonreversed,easy,2,,,,,
,,,,,5d6ad36076cca6001a66d89e,001,48,male,British,a levels,2024-02-26_15h40.15.598,CRL1e,2023.2.3,Win32,6.650881907,65dbad3905fde4fe1981dc61,65dcb0686b4fdf8f941a345d,,,,,,,,,,,831.5941,1.3,832.8725,832.8726,834.2869,right,1,1.4127,,834.2871,835.1633,4,5,37,7,1,partial,2,images/Ex8.jpg,right,nonreversed,easy,2,,,,,
,,,,,5d6ad36076cca6001a66d89e,001,48,male,British,a levels,2024-02-26_15h40.15.598,CRL1e,2023.2.3,Win32,6.650881907,65dbad3905fde4fe1981dc61,65dcb0686b4fdf8f941a345d,,,,,,,,,,,835.164,0.8,836.001,836.0011,837.898,left,1,1.8945,0.0003,837.8982,838.7538,4,6,38,4,1,partial,2,images/Ex7.jpg,left,reversed,easy,2,,,,,
,,,,,5d6ad36076cca6001a66d89e,001,48,male,British,a levels,2024-02-26_15h40.15.598,CRL1e,2023.2.3,Win32,6.650881907,65dbad3905fde4fe1981dc61,65dcb0686b4fdf8f941a345d,,,,,,,,,,,838.7546,0.6,839.1771,839.1772,840.6188,left,1,1.4393,0.0003,840.619,841.5998,4,7,39,3,1,partial,2,images/Ex6.jpg,left,nonreversed,easy,2,,,,,
,,,,,5d6ad36076cca6001a66d89e,001,48,male,British,a levels,2024-02-26_15h40.15.598,CRL1e,2023.2.3,Win32,6.650881907,65dbad3905fde4fe1981dc61,65dcb0686b4fdf8f941a345d,,,,,,,,,,,841.6007,0.8,842.487,842.4871,843.9105,right,1,1.4207,0.0004,843.9106,844.7961,5,0,40,7,1,partial,2,images/Ex8.jpg,right,nonreversed,easy,2,,,,,
,,,,,5d6ad36076cca6001a66d89e,001,48,male,British,a levels,2024-02-26_15h40.15.598,CRL1e,2023.2.3,Win32,6.650881907,65dbad3905fde4fe1981dc61,65dcb0686b4fdf8f941a345d,,,,,,,,,,,844.7969,0.8,845.6506,845.6506,847.1009,left,1,1.448,0.0003,847.1011,847.9932,5,1,41,2,1,partial,2,images/Ex6.jpg,left,nonreversed,easy,2,,,,,
,,,,,5d6ad36076cca6001a66d89e,001,48,male,British,a levels,2024-02-26_15h40.15.598,CRL1e,2023.2.3,Win32,6.650881907,65dbad3905fde4fe1981dc61,65dcb0686b4fdf8f941a345d,,,,,,,,,,,847.9939,1,848.8175,848.8176,850.2323,right,1,1.4127,,850.2324,850.9871,5,2,42,0,1,partial,2,images/Ex5.jpg,right,reversed,easy,2,,,,,
,,,,,5d6ad36076cca6001a66d89e,001,48,male,British,a levels,2024-02-26_15h40.15.598,CRL1e,2023.2.3,Win32,6.650881907,65dbad3905fde4fe1981dc61,65dcb0686b4fdf8f941a345d,,,,,,,,,,,850.9878,0.5,851.3434,851.3435,852.4881,left,1,1.1423,,852.4883,853.5013,5,3,43,3,1,partial,2,images/Ex6.jpg,left,nonreversed,easy,2,,,,,
,,,,,5d6ad36076cca6001a66d89e,001,48,male,British,a levels,2024-02-26_15h40.15.598,CRL1e,2023.2.3,Win32,6.650881907,65dbad3905fde4fe1981dc61,65dcb0686b4fdf8f941a345d,,,,,,,,,,,853.5019,0.8,854.1624,854.1625,855.6865,right,1,1.5221,,855.6865,856.7379,5,4,44,1,1,partial,2,images/Ex5.jpg,right,reversed,easy,2,,,,,
,,,,,5d6ad36076cca6001a66d89e,001,48,male,British,a levels,2024-02-26_15h40.15.598,CRL1e,2023.2.3,Win32,6.650881907,65dbad3905fde4fe1981dc61,65dcb0686b4fdf8f941a345d,,,,,,,,,,,856.7388,1,857.7333,857.7335,858.8676,right,1,1.132,,858.8677,859.8985,5,5,45,6,1,partial,2,images/Ex8.jpg,right,nonreversed,easy,2,,,,,
,,,,,5d6ad36076cca6001a66d89e,001,48,male,British,a levels,2024-02-26_15h40.15.598,CRL1e,2023.2.3,Win32,6.650881907,65dbad3905fde4fe1981dc61,65dcb0686b4fdf8f941a345d,,,,,,,,,,,859.8993,0.7,860.5602,860.5602,861.9669,left,1,1.4044,0.0004,861.967,862.8526,5,6,46,4,1,partial,2,images/Ex7.jpg,left,reversed,easy,2,,,,,
,,,,,5d6ad36076cca6001a66d89e,001,48,male,British,a levels,2024-02-26_15h40.15.598,CRL1e,2023.2.3,Win32,6.650881907,65dbad3905fde4fe1981dc61,65dcb0686b4fdf8f941a345d,,,,,,,,,,,862.8534,0.6,863.2775,863.2776,864.6838,left,1,1.4042,0.0003,864.6839,865.5818,5,7,47,5,1,partial,2,images/Ex7.jpg,left,reversed,easy,2,,,,,
,,,,,5d6ad36076cca6001a66d89e,001,48,male,British,a levels,2024-02-26_15h40.15.598,CRL1e,2023.2.3,Win32,6.650881907,65dbad3905fde4fe1981dc61,65dcb0686b4fdf8f941a345d,,,,,,,,,,,,,,,,,,,,,,,,,,,,,,,,,,865.5838,908.0504,space,41.9012,