infCons.started,infCons.stopped,resp_consent.keys,resp_consent.rt,resp_consent.duration,participant,session,Age?,Gender?,Nationality?,Highest Educational Degree?,date,expName,psychopyVersion,OS,frameRate,STUDY_ID,SESSION_ID,instructions.started,instructions.stopped,resp_instructions.keys,resp_instructions.rt,resp_instructions.duration,nextTask.started,nextTask.stopped,ready_task.keys,ready_task.rt,ready_task.duration,fixation.started,ITI,fixation.stopped,stim.started,stim.stopped,response.keys,response.corr,response.rt,response.duration,feedback.started,feedback.stopped,trials.thisRepN,trials.thisTrialN,trials.thisN,trials.thisIndex,trials.ran,task,phase,Exemplars,r_correct,condition,difficulty,set,end.started,end.stopped,resp_end.keys,resp_end.rt,resp_end.duration
1E-04,9.0517,space,9.0414,,5e63e24eaf3bd51660031dbe,001,38,Male,US,Associates,2024-02-26_11h52.41.614,CRL1e,2023.2.3,Win32,119.047619,65dbad3905fde4fe1981dc61,65dccf745f40f0724e7a610a,,,,,,,,,,,,,,,,,,,,,,,,,,,,,,,,,,,,,,
,,,,,5e63e24eaf3bd51660031dbe,001,38,Male,US,Associates,2024-02-26_11h52.41.614,CRL1e,2023.2.3,Win32,119.047619,65dbad3905fde4fe1981dc61,65dccf745f40f0724e7a610a,9.0519,39.8902,space,30.8275,,,,,,,,,,,,,,,,,,,,,,,,,,,,,,,,,,
,,,,,5e63e24eaf3bd51660031dbe,001,38,Male,US,Associates,2024-02-26_11h52.41.614,CRL1e,2023.2.3,Win32,119.047619,65dbad3905fde4fe1981dc61,65dccf745f40f0724e7a610a,,,,,,39.8986,41.9986,space,2.0894,,42.0021,0.6,42.6024,42.6024,46.0412,left,0,3.4337,,46.047,47.0403,0,0,0,7,1,total,1,images/Ex12.jpg,right,training,easy,5,,,,,
,,,,,5e63e24eaf3bd51660031dbe,001,38,Male,US,Associates,2024-02-26_11h52.41.614,CRL1e,2023.2.3,Win32,119.047619,65dbad3905fde4fe1981dc61,65dccf745f40f0724e7a610a,,,,,,,,,,,47.0408,1.2,48.236,48.2361,49.2739,right,1,1.0351,,49.274,50.2735,0,1,1,6,1,total,1,images/Ex12.jpg,right,training,easy,5,,,,,
,,,,,5e63e24eaf3bd51660031dbe,001,38,Male,US,Associates,2024-02-26_11h52.41.614,CRL1e,2023.2.3,Win32,119.047619,65dbad3905fde4fe1981dc61,65dccf745f40f0724e7a610a,,,,,,,,,,,50.2738,1.1,51.3731,51.3731,52.5896,right,0,1.2103,,52.5896,53.5901,0,2,2,0,1,total,1,images/Ex9.jpg,left,training,easy,5,,,,,
,,,,,5e63e24eaf3bd51660031dbe,001,38,Male,US,Associates,2024-02-26_11h52.41.614,CRL1e,2023.2.3,Win32,119.047619,65dbad3905fde4fe1981dc61,65dccf745f40f0724e7a610a,,,,,,,,,,,53.5903,1,54.59,54.59,56.1174,right,0,1.5266,,56.1175,57.1186,0,3,3,3,1,total,1,images/Ex10.jpg,left,training,easy,5,,,,,
,,,,,5e63e24eaf3bd51660031dbe,001,38,Male,US,Associates,2024-02-26_11h52.41.614,CRL1e,2023.2.3,Win32,119.047619,65dbad3905fde4fe1981dc61,65dccf745f40f0724e7a610a,,,,,,,,,,,57.119,0.7,57.818,57.818,58.4317,left,1,0.6129,,58.4317,59.4317,0,4,4,1,1,total,1,images/Ex9.jpg,left,training,easy,5,,,,,
,,,,,5e63e24eaf3bd51660031dbe,001,38,Male,US,Associates,2024-02-26_11h52.41.614,CRL1e,2023.2.3,Win32,119.047619,65dbad3905fde4fe1981dc61,65dccf745f40f0724e7a610a,,,,,,,,,,,59.4322,1.1,60.5314,60.5314,61.2181,left,1,0.6855,,61.2182,62.2153,0,5,5,2,1,total,1,images/Ex10.jpg,left,training,easy,5,,,,,
,,,,,5e63e24eaf3bd51660031dbe,001,38,Male,US,Associates,2024-02-26_11h52.41.614,CRL1e,2023.2.3,Win32,119.047619,65dbad3905fde4fe1981dc61,65dccf745f40f0724e7a610a,,,,,,,,,,,62.2157,0.9,63.1153,63.1153,64.0084,right,1,0.8924,,64.0085,65.0071,0,6,6,5,1,total,1,images/Ex11.jpg,right,training,easy,5,,,,,
,,,,,5e63e24eaf3bd51660031dbe,001,38,Male,US,Associates,2024-02-26_11h52.41.614,CRL1e,2023.2.3,Win32,119.047619,65dbad3905fde4fe1981dc61,65dccf745f40f0724e7a610a,,,,,,,,,,,65.0076,1.2,66.211,66.211,66.7316,right,1,0.5155,,66.7316,67.7318,0,7,7,4,1,total,1,images/Ex11.jpg,right,training,easy,5,,,,,
,,,,,5e63e24eaf3bd51660031dbe,001,38,Male,US,Associates,2024-02-26_11h52.41.614,CRL1e,2023.2.3,Win32,119.047619,65dbad3905fde4fe1981dc61,65dccf745f40f0724e7a610a,,,,,,,,,,,67.7322,0.8,68.5367,68.5368,68.9818,right,1,0.4397,,68.9819,69.9819,1,0,8,4,1,total,1,images/Ex11.jpg,right,training,easy,5,,,,,
,,,,,5e63e24eaf3bd51660031dbe,001,38,Male,US,Associates,2024-02-26_11h52.41.614,CRL1e,2023.2.3,Win32,119.047619,65dbad3905fde4fe1981dc61,65dccf745f40f0724e7a610a,,,,,,,,,,,69.9824,0.8,70.7817,70.7817,71.6648,right,1,0.8811,,71.6649,72.6653,1,1,9,6,1,total,1,images/Ex12.jpg,right,training,easy,5,,,,,
,,,,,5e63e24eaf3bd51660031dbe,001,38,Male,US,Associates,2024-02-26_11h52.41.614,CRL1e,2023.2.3,Win32,119.047619,65dbad3905fde4fe1981dc61,65dccf745f40f0724e7a610a,,,,,,,,,,,72.6656,0.9,73.5655,73.5656,74.0401,right,1,0.4733,,74.0401,75.0404,1,2,10,7,1,total,1,images/Ex12.jpg,right,training,easy,5,,,,,
,,,,,5e63e24eaf3bd51660031dbe,001,38,Male,US,Associates,2024-02-26_11h52.41.614,CRL1e,2023.2.3,Win32,119.047619,65dbad3905fde4fe1981dc61,65dccf745f40f0724e7a610a,,,,,,,,,,,75.0406,1.2,76.2362,76.2362,77.3654,left,1,1.1238,,77.3654,78.3613,1,3,11,1,1,total,1,images/Ex9.jpg,left,training,easy,5,,,,,
,,,,,5e63e24eaf3bd51660031dbe,001,38,Male,US,Associates,2024-02-26_11h52.41.614,CRL1e,2023.2.3,Win32,119.047619,65dbad3905fde4fe1981dc61,65dccf745f40f0724e7a610a,,,,,,,,,,,78.3616,0.7,79.0574,79.0574,79.8674,right,0,0.8092,,79.8674,80.8654,1,4,12,3,1,total,1,images/Ex10.jpg,left,training,easy,5,,,,,
,,,,,5e63e24eaf3bd51660031dbe,001,38,Male,US,Associates,2024-02-26_11h52.41.614,CRL1e,2023.2.3,Win32,119.047619,65dbad3905fde4fe1981dc61,65dccf745f40f0724e7a610a,,,,,,,,,,,80.8658,1,81.8698,81.8698,82.2314,left,1,0.3608,,82.2314,83.2254,1,5,13,2,1,total,1,images/Ex10.jpg,left,training,easy,5,,,,,
,,,,,5e63e24eaf3bd51660031dbe,001,38,Male,US,Associates,2024-02-26_11h52.41.614,CRL1e,2023.2.3,Win32,119.047619,65dbad3905fde4fe1981dc61,65dccf745f40f0724e7a610a,,,,,,,,,,,83.2256,0.6,83.8255,83.8255,84.6169,left,1,0.791,,84.617,85.6153,1,6,14,0,1,total,1,images/Ex9.jpg,left,training,easy,5,,,,,
,,,,,5e63e24eaf3bd51660031dbe,001,38,Male,US,Associates,2024-02-26_11h52.41.614,CRL1e,2023.2.3,Win32,119.047619,65dbad3905fde4fe1981dc61,65dccf745f40f0724e7a610a,,,,,,,,,,,85.6157,1.1,86.7153,86.7153,87.3149,right,1,0.5947,,87.3149,88.315,1,7,15,5,1,total,1,images/Ex11.jpg,right,training,easy,5,,,,,
,,,,,5e63e24eaf3bd51660031dbe,001,38,Male,US,Associates,2024-02-26_11h52.41.614,CRL1e,2023.2.3,Win32,119.047619,65dbad3905fde4fe1981dc61,65dccf745f40f0724e7a610a,,,,,,,,,,,88.3153,0.7,89.0153,89.0153,89.5653,left,1,0.5438,,89.5653,90.5652,2,0,16,1,1,total,1,images/Ex9.jpg,left,training,easy,5,,,,,
,,,,,5e63e24eaf3bd51660031dbe,001,38,Male,US,Associates,2024-02-26_11h52.41.614,CRL1e,2023.2.3,Win32,119.047619,65dbad3905fde4fe1981dc61,65dccf745f40f0724e7a610a,,,,,,,,,,,90.5655,1.5,92.0611,92.0612,92.7901,left,1,0.7235,,92.7901,93.7898,2,1,17,0,1,total,1,images/Ex9.jpg,left,training,easy,5,,,,,
,,,,,5e63e24eaf3bd51660031dbe,001,38,Male,US,Associates,2024-02-26_11h52.41.614,CRL1e,2023.2.3,Win32,119.047619,65dbad3905fde4fe1981dc61,65dccf745f40f0724e7a610a,,,,,,,,,,,93.7901,0.5,94.2943,94.2943,94.9319,right,1,0.6326,,94.9319,95.9319,2,2,18,6,1,total,1,images/Ex12.jpg,right,training,easy,5,,,,,
,,,,,5e63e24eaf3bd51660031dbe,001,38,Male,US,Associates,2024-02-26_11h52.41.614,CRL1e,2023.2.3,Win32,119.047619,65dbad3905fde4fe1981dc61,65dccf745f40f0724e7a610a,,,,,,,,,,,95.9321,0.8,96.7361,96.7361,97.3156,left,1,0.5743,,97.3156,98.3149,2,3,19,2,1,total,1,images/Ex10.jpg,left,training,easy,5,,,,,
,,,,,5e63e24eaf3bd51660031dbe,001,38,Male,US,Associates,2024-02-26_11h52.41.614,CRL1e,2023.2.3,Win32,119.047619,65dbad3905fde4fe1981dc61,65dccf745f40f0724e7a610a,,,,,,,,,,,98.3151,1.1,99.4196,99.4197,99.8403,right,1,0.4191,,99.8404,100.8407,2,4,20,4,1,total,1,images/Ex11.jpg,right,training,easy,5,,,,,
,,,,,5e63e24eaf3bd51660031dbe,001,38,Male,US,Associates,2024-02-26_11h52.41.614,CRL1e,2023.2.3,Win32,119.047619,65dbad3905fde4fe1981dc61,65dccf745f40f0724e7a610a,,,,,,,,,,,100.841,1.4,102.2403,102.2403,102.7573,right,1,0.5133,,102.7573,103.7575,2,5,21,5,1,total,1,images/Ex11.jpg,right,training,easy,5,,,,,
,,,,,5e63e24eaf3bd51660031dbe,001,38,Male,US,Associates,2024-02-26_11h52.41.614,CRL1e,2023.2.3,Win32,119.047619,65dbad3905fde4fe1981dc61,65dccf745f40f0724e7a610a,,,,,,,,,,,103.7579,0.5,104.2572,104.2573,104.7908,left,1,0.5293,,104.7908,105.7907,2,6,22,3,1,total,1,images/Ex10.jpg,left,training,easy,5,,,,,
,,,,,5e63e24eaf3bd51660031dbe,001,38,Male,US,Associates,2024-02-26_11h52.41.614,CRL1e,2023.2.3,Win32,119.047619,65dbad3905fde4fe1981dc61,65dccf745f40f0724e7a610a,,,,,,,,,,,105.7912,1.3,107.0904,107.0905,107.588,right,1,0.4964,,107.588,108.5821,2,7,23,7,1,total,1,images/Ex12.jpg,right,training,easy,5,,,,,
,,,,,5e63e24eaf3bd51660031dbe,001,38,Male,US,Associates,2024-02-26_11h52.41.614,CRL1e,2023.2.3,Win32,119.047619,65dbad3905fde4fe1981dc61,65dccf745f40f0724e7a610a,,,,,,,,,,,108.5825,1,109.5785,109.5785,110.132,right,1,0.5508,,110.132,111.1321,3,0,24,6,1,total,1,images/Ex12.jpg,right,training,easy,5,,,,,
,,,,,5e63e24eaf3bd51660031dbe,001,38,Male,US,Associates,2024-02-26_11h52.41.614,CRL1e,2023.2.3,Win32,119.047619,65dbad3905fde4fe1981dc61,65dccf745f40f0724e7a610a,,,,,,,,,,,111.1322,1.5,112.632,112.6321,113.2318,right,1,0.5982,,113.2318,114.2261,3,1,25,5,1,total,1,images/Ex11.jpg,right,training,easy,5,,,,,
,,,,,5e63e24eaf3bd51660031dbe,001,38,Male,US,Associates,2024-02-26_11h52.41.614,CRL1e,2023.2.3,Win32,119.047619,65dbad3905fde4fe1981dc61,65dccf745f40f0724e7a610a,,,,,,,,,,,114.2263,0.9,115.1244,115.1244,115.5909,left,1,0.4602,,115.591,116.5927,3,2,26,0,1,total,1,images/Ex9.jpg,left,training,easy,5,,,,,
,,,,,5e63e24eaf3bd51660031dbe,001,38,Male,US,Associates,2024-02-26_11h52.41.614,CRL1e,2023.2.3,Win32,119.047619,65dbad3905fde4fe1981dc61,65dccf745f40f0724e7a610a,,,,,,,,,,,116.593,0.9,117.4907,117.4908,117.9654,right,0,0.4712,,117.9655,118.9658,3,3,27,3,1,total,1,images/Ex10.jpg,left,training,easy,5,,,,,
,,,,,5e63e24eaf3bd51660031dbe,001,38,Male,US,Associates,2024-02-26_11h52.41.614,CRL1e,2023.2.3,Win32,119.047619,65dbad3905fde4fe1981dc61,65dccf745f40f0724e7a610a,,,,,,,,,,,118.9665,1,119.9656,119.9656,120.4318,right,1,0.4614,,120.4318,121.4321,3,4,28,4,1,total,1,images/Ex11.jpg,right,training,easy,5,,,,,
,,,,,5e63e24eaf3bd51660031dbe,001,38,Male,US,Associates,2024-02-26_11h52.41.614,CRL1e,2023.2.3,Win32,119.047619,65dbad3905fde4fe1981dc61,65dccf745f40f0724e7a610a,,,,,,,,,,,121.4324,0.7,122.1269,122.1269,122.4926,left,1,0.3653,,122.4926,123.4908,3,5,29,2,1,total,1,images/Ex10.jpg,left,training,easy,5,,,,,
,,,,,5e63e24eaf3bd51660031dbe,001,38,Male,US,Associates,2024-02-26_11h52.41.614,CRL1e,2023.2.3,Win32,119.047619,65dbad3905fde4fe1981dc61,65dccf745f40f0724e7a610a,,,,,,,,,,,123.491,1,124.4904,124.4904,124.8596,left,1,0.3682,,124.8596,125.8575,3,6,30,1,1,total,1,images/Ex9.jpg,left,training,easy,5,,,,,
,,,,,5e63e24eaf3bd51660031dbe,001,38,Male,US,Associates,2024-02-26_11h52.41.614,CRL1e,2023.2.3,Win32,119.047619,65dbad3905fde4fe1981dc61,65dccf745f40f0724e7a610a,,,,,,,,,,,125.8578,1.2,127.0574,127.0575,127.5321,right,1,0.4696,,127.5321,128.5321,3,7,31,7,1,total,1,images/Ex12.jpg,right,training,easy,5,,,,,
,,,,,5e63e24eaf3bd51660031dbe,001,38,Male,US,Associates,2024-02-26_11h52.41.614,CRL1e,2023.2.3,Win32,119.047619,65dbad3905fde4fe1981dc61,65dccf745f40f0724e7a610a,,,,,,,,,,,128.5326,0.9,129.4364,129.4364,129.8243,right,1,0.387,,129.8243,130.8243,4,0,32,7,1,total,1,images/Ex12.jpg,right,training,easy,5,,,,,
,,,,,5e63e24eaf3bd51660031dbe,001,38,Male,US,Associates,2024-02-26_11h52.41.614,CRL1e,2023.2.3,Win32,119.047619,65dbad3905fde4fe1981dc61,65dccf745f40f0724e7a610a,,,,,,,,,,,130.8247,0.5,131.324,131.324,131.9405,left,1,0.6131,,131.9405,132.9407,4,1,33,1,1,total,1,images/Ex9.jpg,left,training,easy,5,,,,,
,,,,,5e63e24eaf3bd51660031dbe,001,38,Male,US,Associates,2024-02-26_11h52.41.614,CRL1e,2023.2.3,Win32,119.047619,65dbad3905fde4fe1981dc61,65dccf745f40f0724e7a610a,,,,,,,,,,,132.9411,1,133.9352,133.9352,134.3488,right,1,0.4082,,134.3488,135.343,4,2,34,4,1,total,1,images/Ex11.jpg,right,training,easy,5,,,,,
,,,,,5e63e24eaf3bd51660031dbe,001,38,Male,US,Associates,2024-02-26_11h52.41.614,CRL1e,2023.2.3,Win32,119.047619,65dbad3905fde4fe1981dc61,65dccf745f40f0724e7a610a,,,,,,,,,,,135.3433,1.4,136.7402,136.7402,137.2233,right,1,0.4813,,137.2234,138.2242,4,3,35,6,1,total,1,images/Ex12.jpg,right,training,easy,5,,,,,
,,,,,5e63e24eaf3bd51660031dbe,001,38,Male,US,Associates,2024-02-26_11h52.41.614,CRL1e,2023.2.3,Win32,119.047619,65dbad3905fde4fe1981dc61,65dccf745f40f0724e7a610a,,,,,,,,,,,138.2247,1.3,139.5203,139.5203,140.0076,left,1,0.4801,,140.0076,141.0074,4,4,36,2,1,total,1,images/Ex10.jpg,left,training,easy,5,,,,,
,,,,,5e63e24eaf3bd51660031dbe,001,38,Male,US,Associates,2024-02-26_11h52.41.614,CRL1e,2023.2.3,Win32,119.047619,65dbad3905fde4fe1981dc61,65dccf745f40f0724e7a610a,,,,,,,,,,,141.0078,1.1,142.1029,142.1029,142.5991,right,1,0.4905,,142.5991,143.5993,4,5,37,5,1,total,1,images/Ex11.jpg,right,training,easy,5,,,,,
,,,,,5e63e24eaf3bd51660031dbe,001,38,Male,US,Associates,2024-02-26_11h52.41.614,CRL1e,2023.2.3,Win32,119.047619,65dbad3905fde4fe1981dc61,65dccf745f40f0724e7a610a,,,,,,,,,,,143.5998,1,144.5949,144.5949,145.0156,left,1,0.42,,145.0156,146.016,4,6,38,3,1,total,1,images/Ex10.jpg,left,training,easy,5,,,,,
,,,,,5e63e24eaf3bd51660031dbe,001,38,Male,US,Associates,2024-02-26_11h52.41.614,CRL1e,2023.2.3,Win32,119.047619,65dbad3905fde4fe1981dc61,65dccf745f40f0724e7a610a,,,,,,,,,,,146.0162,1.1,147.1158,147.1159,147.4769,left,1,0.3602,,147.4769,148.4763,4,7,39,0,1,total,1,images/Ex9.jpg,left,training,easy,5,,,,,
,,,,,5e63e24eaf3bd51660031dbe,001,38,Male,US,Associates,2024-02-26_11h52.41.614,CRL1e,2023.2.3,Win32,119.047619,65dbad3905fde4fe1981dc61,65dccf745f40f0724e7a610a,,,,,,,,,,,148.4764,0.9,149.3743,149.3743,149.8569,right,1,0.4799,,149.857,150.8577,5,0,40,6,1,total,1,images/Ex12.jpg,right,training,easy,5,,,,,
,,,,,5e63e24eaf3bd51660031dbe,001,38,Male,US,Associates,2024-02-26_11h52.41.614,CRL1e,2023.2.3,Win32,119.047619,65dbad3905fde4fe1981dc61,65dccf745f40f0724e7a610a,,,,,,,,,,,150.8581,1.3,152.1575,152.1575,152.5434,right,1,0.3852,,152.5434,153.541,5,1,41,5,1,total,1,images/Ex11.jpg,right,training,easy,5,,,,,
,,,,,5e63e24eaf3bd51660031dbe,001,38,Male,US,Associates,2024-02-26_11h52.41.614,CRL1e,2023.2.3,Win32,119.047619,65dbad3905fde4fe1981dc61,65dccf745f40f0724e7a610a,,,,,,,,,,,153.5413,1.4,154.9408,154.9409,155.4736,right,1,0.5289,,155.4736,156.468,5,2,42,7,1,total,1,images/Ex12.jpg,right,training,easy,5,,,,,
,,,,,5e63e24eaf3bd51660031dbe,001,38,Male,US,Associates,2024-02-26_11h52.41.614,CRL1e,2023.2.3,Win32,119.047619,65dbad3905fde4fe1981dc61,65dccf745f40f0724e7a610a,,,,,,,,,,,156.4683,0.7,157.1661,157.1661,157.6431,left,1,0.4765,,157.6432,158.6408,5,3,43,0,1,total,1,images/Ex9.jpg,left,training,easy,5,,,,,
,,,,,5e63e24eaf3bd51660031dbe,001,38,Male,US,Associates,2024-02-26_11h52.41.614,CRL1e,2023.2.3,Win32,119.047619,65dbad3905fde4fe1981dc61,65dccf745f40f0724e7a610a,,,,,,,,,,,158.6413,1.5,160.1405,160.1406,160.6572,left,1,0.5128,,160.6573,161.6598,5,4,44,2,1,total,1,images/Ex10.jpg,left,training,easy,5,,,,,
,,,,,5e63e24eaf3bd51660031dbe,001,38,Male,US,Associates,2024-02-26_11h52.41.614,CRL1e,2023.2.3,Win32,119.047619,65dbad3905fde4fe1981dc61,65dccf745f40f0724e7a610a,,,,,,,,,,,161.66,1.1,162.7576,162.7576,163.1662,right,1,0.4028,,163.1662,164.1653,5,5,45,4,1,total,1,images/Ex11.jpg,right,training,easy,5,,,,,
,,,,,5e63e24eaf3bd51660031dbe,001,38,Male,US,Associates,2024-02-26_11h52.41.614,CRL1e,2023.2.3,Win32,119.047619,65dbad3905fde4fe1981dc61,65dccf745f40f0724e7a610a,,,,,,,,,,,164.1655,1,165.1617,165.1617,165.7496,left,1,0.5823,,165.7497,166.7495,5,6,46,1,1,total,1,images/Ex9.jpg,left,training,easy,5,,,,,
,,,,,5e63e24eaf3bd51660031dbe,001,38,Male,US,Associates,2024-02-26_11h52.41.614,CRL1e,2023.2.3,Win32,119.047619,65dbad3905fde4fe1981dc61,65dccf745f40f0724e7a610a,,,,,,,,,,,166.7499,0.7,167.4539,167.4539,167.802,left,1,0.3476,,167.802,168.7995,5,7,47,3,1,total,1,images/Ex10.jpg,left,training,easy,5,,,,,
,,,,,5e63e24eaf3bd51660031dbe,001,38,Male,US,Associates,2024-02-26_11h52.41.614,CRL1e,2023.2.3,Win32,119.047619,65dbad3905fde4fe1981dc61,65dccf745f40f0724e7a610a,,,,,,,,,,,168.8021,0.5,169.2996,169.2996,169.7162,right,0,0.4115,,169.7162,170.7159,0,0,0,5,1,total,2,images/Ex11.jpg,left,reversed,easy,5,,,,,
,,,,,5e63e24eaf3bd51660031dbe,001,38,Male,US,Associates,2024-02-26_11h52.41.614,CRL1e,2023.2.3,Win32,119.047619,65dbad3905fde4fe1981dc61,65dccf745f40f0724e7a610a,,,,,,,,,,,170.7162,1.5,172.2163,172.2163,172.7164,left,0,0.4939,,172.7164,173.7161,0,1,1,3,1,total,2,images/Ex10.jpg,right,reversed,easy,5,,,,,
,,,,,5e63e24eaf3bd51660031dbe,001,38,Male,US,Associates,2024-02-26_11h52.41.614,CRL1e,2023.2.3,Win32,119.047619,65dbad3905fde4fe1981dc61,65dccf745f40f0724e7a610a,,,,,,,,,,,173.7165,0.9,174.6162,174.6163,175.3684,right,0,0.7515,,175.3684,176.367,0,2,2,6,1,total,2,images/Ex12.jpg,left,reversed,easy,5,,,,,
,,,,,5e63e24eaf3bd51660031dbe,001,38,Male,US,Associates,2024-02-26_11h52.41.614,CRL1e,2023.2.3,Win32,119.047619,65dbad3905fde4fe1981dc61,65dccf745f40f0724e7a610a,,,,,,,,,,,176.3672,1.1,177.4655,177.4656,179.3605,right,1,1.8942,,179.3606,180.3609,0,3,3,0,1,total,2,images/Ex9.jpg,right,reversed,easy,5,,,,,
,,,,,5e63e24eaf3bd51660031dbe,001,38,Male,US,Associates,2024-02-26_11h52.41.614,CRL1e,2023.2.3,Win32,119.047619,65dbad3905fde4fe1981dc61,65dccf745f40f0724e7a610a,,,,,,,,,,,180.3678,0.8,181.1664,181.1664,181.8487,left,1,0.6764,,181.8487,182.8494,0,4,4,7,1,total,2,images/Ex12.jpg,left,reversed,easy,5,,,,,
,,,,,5e63e24eaf3bd51660031dbe,001,38,Male,US,Associates,2024-02-26_11h52.41.614,CRL1e,2023.2.3,Win32,119.047619,65dbad3905fde4fe1981dc61,65dccf745f40f0724e7a610a,,,,,,,,,,,182.8496,0.5,183.3493,183.3494,184.0243,right,1,0.6726,,184.0244,185.0264,0,5,5,2,1,total,2,images/Ex10.jpg,right,reversed,easy,5,,,,,
,,,,,5e63e24eaf3bd51660031dbe,001,38,Male,US,Associates,2024-02-26_11h52.41.614,CRL1e,2023.2.3,Win32,119.047619,65dbad3905fde4fe1981dc61,65dccf745f40f0724e7a610a,,,,,,,,,,,185.0265,1.5,186.5204,186.5205,187.1103,left,1,0.5887,,187.1104,188.1093,0,6,6,4,1,total,2,images/Ex11.jpg,left,reversed,easy,5,,,,,
,,,,,5e63e24eaf3bd51660031dbe,001,38,Male,US,Associates,2024-02-26_11h52.41.614,CRL1e,2023.2.3,Win32,119.047619,65dbad3905fde4fe1981dc61,65dccf745f40f0724e7a610a,,,,,,,,,,,188.1095,0.9,189.0035,189.0035,189.6243,right,1,0.6189,,189.6244,190.6261,0,7,7,1,1,total,2,images/Ex9.jpg,right,reversed,easy,5,,,,,
,,,,,5e63e24eaf3bd51660031dbe,001,38,Male,US,Associates,2024-02-26_11h52.41.614,CRL1e,2023.2.3,Win32,119.047619,65dbad3905fde4fe1981dc61,65dccf745f40f0724e7a610a,,,,,,,,,,,190.6262,1.3,191.9243,191.9244,192.6766,left,1,0.7514,,192.6766,193.6746,1,0,8,6,1,total,2,images/Ex12.jpg,left,reversed,easy,5,,,,,
,,,,,5e63e24eaf3bd51660031dbe,001,38,Male,US,Associates,2024-02-26_11h52.41.614,CRL1e,2023.2.3,Win32,119.047619,65dbad3905fde4fe1981dc61,65dccf745f40f0724e7a610a,,,,,,,,,,,193.6749,0.8,194.4705,194.4705,195.1186,right,1,0.6472,,195.1186,196.1162,1,1,9,3,1,total,2,images/Ex10.jpg,right,reversed,easy,5,,,,,
,,,,,5e63e24eaf3bd51660031dbe,001,38,Male,US,Associates,2024-02-26_11h52.41.614,CRL1e,2023.2.3,Win32,119.047619,65dbad3905fde4fe1981dc61,65dccf745f40f0724e7a610a,,,,,,,,,,,196.1165,0.7,196.8128,196.8128,197.4746,left,1,0.6587,,197.4747,198.4748,1,2,10,5,1,total,2,images/Ex11.jpg,left,reversed,easy,5,,,,,
,,,,,5e63e24eaf3bd51660031dbe,001,38,Male,US,Associates,2024-02-26_11h52.41.614,CRL1e,2023.2.3,Win32,119.047619,65dbad3905fde4fe1981dc61,65dccf745f40f0724e7a610a,,,,,,,,,,,198.4752,0.7,199.1794,199.1794,199.6936,left,1,0.5136,,199.6937,200.693,1,3,11,4,1,total,2,images/Ex11.jpg,left,reversed,easy,5,,,,,
,,,,,5e63e24eaf3bd51660031dbe,001,38,Male,US,Associates,2024-02-26_11h52.41.614,CRL1e,2023.2.3,Win32,119.047619,65dbad3905fde4fe1981dc61,65dccf745f40f0724e7a610a,,,,,,,,,,,200.6933,0.6,201.2928,201.2928,201.9267,right,1,0.6331,,201.9268,202.9246,1,4,12,0,1,total,2,images/Ex9.jpg,right,reversed,easy,5,,,,,
,,,,,5e63e24eaf3bd51660031dbe,001,38,Male,US,Associates,2024-02-26_11h52.41.614,CRL1e,2023.2.3,Win32,119.047619,65dbad3905fde4fe1981dc61,65dccf745f40f0724e7a610a,,,,,,,,,,,202.9248,1.1,204.0241,204.0242,204.5607,right,1,0.536,,204.5607,205.5582,1,5,13,1,1,total,2,images/Ex9.jpg,right,reversed,easy,5,,,,,
,,,,,5e63e24eaf3bd51660031dbe,001,38,Male,US,Associates,2024-02-26_11h52.41.614,CRL1e,2023.2.3,Win32,119.047619,65dbad3905fde4fe1981dc61,65dccf745f40f0724e7a610a,,,,,,,,,,,205.5588,1.5,207.0537,207.0537,207.8081,left,1,0.7485,,207.8081,208.8074,1,6,14,7,1,total,2,images/Ex12.jpg,left,reversed,easy,5,,,,,
,,,,,5e63e24eaf3bd51660031dbe,001,38,Male,US,Associates,2024-02-26_11h52.41.614,CRL1e,2023.2.3,Win32,119.047619,65dbad3905fde4fe1981dc61,65dccf745f40f0724e7a610a,,,,,,,,,,,208.8076,1.2,210.003,210.003,210.6163,right,1,0.6122,,210.6163,211.6165,1,7,15,2,1,total,2,images/Ex10.jpg,right,reversed,easy,5,,,,,
,,,,,5e63e24eaf3bd51660031dbe,001,38,Male,US,Associates,2024-02-26_11h52.41.614,CRL1e,2023.2.3,Win32,119.047619,65dbad3905fde4fe1981dc61,65dccf745f40f0724e7a610a,,,,,,,,,,,211.6169,1,212.62,212.62,213.1665,left,1,0.541,,213.1665,214.1664,2,0,16,4,1,total,2,images/Ex11.jpg,left,reversed,easy,5,,,,,
,,,,,5e63e24eaf3bd51660031dbe,001,38,Male,US,Associates,2024-02-26_11h52.41.614,CRL1e,2023.2.3,Win32,119.047619,65dbad3905fde4fe1981dc61,65dccf745f40f0724e7a610a,,,,,,,,,,,214.1668,1.3,215.4664,215.4664,215.9994,left,1,0.5324,,215.9994,216.9999,2,1,17,7,1,total,2,images/Ex12.jpg,left,reversed,easy,5,,,,,
,,,,,5e63e24eaf3bd51660031dbe,001,38,Male,US,Associates,2024-02-26_11h52.41.614,CRL1e,2023.2.3,Win32,119.047619,65dbad3905fde4fe1981dc61,65dccf745f40f0724e7a610a,,,,,,,,,,,217.0003,0.6,217.5997,217.5997,218.1742,right,1,0.5689,,218.1742,219.175,2,2,18,0,1,total,2,images/Ex9.jpg,right,reversed,easy,5,,,,,
,,,,,5e63e24eaf3bd51660031dbe,001,38,Male,US,Associates,2024-02-26_11h52.41.614,CRL1e,2023.2.3,Win32,119.047619,65dbad3905fde4fe1981dc61,65dccf745f40f0724e7a610a,,,,,,,,,,,219.1754,1.3,220.4741,220.4741,220.952,left,1,0.4774,,220.952,221.95,2,3,19,5,1,total,2,images/Ex11.jpg,left,reversed,easy,5,,,,,
,,,,,5e63e24eaf3bd51660031dbe,001,38,Male,US,Associates,2024-02-26_11h52.41.614,CRL1e,2023.2.3,Win32,119.047619,65dbad3905fde4fe1981dc61,65dccf745f40f0724e7a610a,,,,,,,,,,,221.9502,0.9,222.8458,222.8458,223.4333,right,1,0.5843,,223.4333,224.4331,2,4,20,3,1,total,2,images/Ex10.jpg,right,reversed,easy,5,,,,,
,,,,,5e63e24eaf3bd51660031dbe,001,38,Male,US,Associates,2024-02-26_11h52.41.614,CRL1e,2023.2.3,Win32,119.047619,65dbad3905fde4fe1981dc61,65dccf745f40f0724e7a610a,,,,,,,,,,,224.4336,0.7,225.1373,225.1373,225.6409,right,1,0.5017,,225.6409,226.6413,2,5,21,2,1,total,2,images/Ex10.jpg,right,reversed,easy,5,,,,,
,,,,,5e63e24eaf3bd51660031dbe,001,38,Male,US,Associates,2024-02-26_11h52.41.614,CRL1e,2023.2.3,Win32,119.047619,65dbad3905fde4fe1981dc61,65dccf745f40f0724e7a610a,,,,,,,,,,,226.6415,1.5,228.137,228.137,228.5835,right,1,0.4397,,228.5836,229.5849,2,6,22,1,1,total,2,images/Ex9.jpg,right,reversed,easy,5,,,,,
,,,,,5e63e24eaf3bd51660031dbe,001,38,Male,US,Associates,2024-02-26_11h52.41.614,CRL1e,2023.2.3,Win32,119.047619,65dbad3905fde4fe1981dc61,65dccf745f40f0724e7a610a,,,,,,,,,,,229.5852,0.8,230.3874,230.3874,230.8528,left,1,0.4648,,230.8528,231.8498,2,7,23,6,1,total,2,images/Ex12.jpg,left,reversed,easy,5,,,,,
,,,,,5e63e24eaf3bd51660031dbe,001,38,Male,US,Associates,2024-02-26_11h52.41.614,CRL1e,2023.2.3,Win32,119.047619,65dbad3905fde4fe1981dc61,65dccf745f40f0724e7a610a,,,,,,,,,,,231.8501,0.6,232.45,232.4501,233.2328,left,1,0.78,,233.2329,234.233,3,0,24,5,1,total,2,images/Ex11.jpg,left,reversed,easy,5,,,,,
,,,,,5e63e24eaf3bd51660031dbe,001,38,Male,US,Associates,2024-02-26_11h52.41.614,CRL1e,2023.2.3,Win32,119.047619,65dbad3905fde4fe1981dc61,65dccf745f40f0724e7a610a,,,,,,,,,,,234.2333,0.8,235.0334,235.0334,235.5002,left,1,0.4618,,235.5002,236.4999,3,1,25,4,1,total,2,images/Ex11.jpg,left,reversed,easy,5,,,,,
,,,,,5e63e24eaf3bd51660031dbe,001,38,Male,US,Associates,2024-02-26_11h52.41.614,CRL1e,2023.2.3,Win32,119.047619,65dbad3905fde4fe1981dc61,65dccf745f40f0724e7a610a,,,,,,,,,,,236.5002,1.1,237.5957,237.5957,238.225,right,1,0.627,,238.225,239.2248,3,2,26,2,1,total,2,images/Ex10.jpg,right,reversed,easy,5,,,,,
,,,,,5e63e24eaf3bd51660031dbe,001,38,Male,US,Associates,2024-02-26_11h52.41.614,CRL1e,2023.2.3,Win32,119.047619,65dbad3905fde4fe1981dc61,65dccf745f40f0724e7a610a,,,,,,,,,,,239.2249,0.5,239.7251,239.7251,240.3103,right,1,0.5844,,240.3103,241.3101,3,3,27,0,1,total,2,images/Ex9.jpg,right,reversed,easy,5,,,,,
,,,,,5e63e24eaf3bd51660031dbe,001,38,Male,US,Associates,2024-02-26_11h52.41.614,CRL1e,2023.2.3,Win32,119.047619,65dbad3905fde4fe1981dc61,65dccf745f40f0724e7a610a,,,,,,,,,,,241.3103,1.1,242.4083,242.4083,242.816,left,1,0.4059,,242.8161,243.8184,3,4,28,7,1,total,2,images/Ex12.jpg,left,reversed,easy,5,,,,,
,,,,,5e63e24eaf3bd51660031dbe,001,38,Male,US,Associates,2024-02-26_11h52.41.614,CRL1e,2023.2.3,Win32,119.047619,65dbad3905fde4fe1981dc61,65dccf745f40f0724e7a610a,,,,,,,,,,,243.819,1,244.8164,244.8165,245.2831,left,0,0.4613,,245.2832,246.2833,3,5,29,3,1,total,2,images/Ex10.jpg,right,reversed,easy,5,,,,,
,,,,,5e63e24eaf3bd51660031dbe,001,38,Male,US,Associates,2024-02-26_11h52.41.614,CRL1e,2023.2.3,Win32,119.047619,65dbad3905fde4fe1981dc61,65dccf745f40f0724e7a610a,,,,,,,,,,,246.2836,0.9,247.1788,247.1789,247.6272,right,1,0.4474,,247.6272,248.625,3,6,30,1,1,total,2,images/Ex9.jpg,right,reversed,easy,5,,,,,
,,,,,5e63e24eaf3bd51660031dbe,001,38,Male,US,Associates,2024-02-26_11h52.41.614,CRL1e,2023.2.3,Win32,119.047619,65dbad3905fde4fe1981dc61,65dccf745f40f0724e7a610a,,,,,,,,,,,248.6254,1,249.6208,249.6209,250.1084,left,1,0.4822,,250.1085,251.1085,3,7,31,6,1,total,2,images/Ex12.jpg,left,reversed,easy,5,,,,,
,,,,,5e63e24eaf3bd51660031dbe,001,38,Male,US,Associates,2024-02-26_11h52.41.614,CRL1e,2023.2.3,Win32,119.047619,65dbad3905fde4fe1981dc61,65dccf745f40f0724e7a610a,,,,,,,,,,,251.1088,0.8,251.9041,251.9041,252.2775,left,1,0.373,,252.2776,253.2769,4,0,32,7,1,total,2,images/Ex12.jpg,left,reversed,easy,5,,,,,
,,,,,5e63e24eaf3bd51660031dbe,001,38,Male,US,Associates,2024-02-26_11h52.41.614,CRL1e,2023.2.3,Win32,119.047619,65dbad3905fde4fe1981dc61,65dccf745f40f0724e7a610a,,,,,,,,,,,253.2773,1.2,254.4749,254.4749,254.8662,left,1,0.3871,,254.8662,255.8664,4,1,33,5,1,total,2,images/Ex11.jpg,left,reversed,easy,5,,,,,
,,,,,5e63e24eaf3bd51660031dbe,001,38,Male,US,Associates,2024-02-26_11h52.41.614,CRL1e,2023.2.3,Win32,119.047619,65dbad3905fde4fe1981dc61,65dccf745f40f0724e7a610a,,,,,,,,,,,255.8668,1.1,256.9669,256.9669,257.3022,left,1,0.3348,,257.3022,258.3004,4,2,34,4,1,total,2,images/Ex11.jpg,left,reversed,easy,5,,,,,
,,,,,5e63e24eaf3bd51660031dbe,001,38,Male,US,Associates,2024-02-26_11h52.41.614,CRL1e,2023.2.3,Win32,119.047619,65dbad3905fde4fe1981dc61,65dccf745f40f0724e7a610a,,,,,,,,,,,258.3008,1.3,259.6046,259.6046,259.9689,left,1,0.3638,,259.9689,260.9667,4,3,35,6,1,total,2,images/Ex12.jpg,left,reversed,easy,5,,,,,
,,,,,5e63e24eaf3bd51660031dbe,001,38,Male,US,Associates,2024-02-26_11h52.41.614,CRL1e,2023.2.3,Win32,119.047619,65dbad3905fde4fe1981dc61,65dccf745f40f0724e7a610a,,,,,,,,,,,260.9668,0.7,261.669,261.6691,262.1666,right,1,0.4931,,262.1667,263.1669,4,4,36,0,1,total,2,images/Ex9.jpg,right,reversed,easy,5,,,,,
,,,,,5e63e24eaf3bd51660031dbe,001,38,Male,US,Associates,2024-02-26_11h52.41.614,CRL1e,2023.2.3,Win32,119.047619,65dbad3905fde4fe1981dc61,65dccf745f40f0724e7a610a,,,,,,,,,,,263.1672,0.8,263.9667,263.9667,264.3771,right,1,0.4098,,264.3771,265.3753,4,5,37,1,1,total,2,images/Ex9.jpg,right,reversed,easy,5,,,,,
,,,,,5e63e24eaf3bd51660031dbe,001,38,Male,US,Associates,2024-02-26_11h52.41.614,CRL1e,2023.2.3,Win32,119.047619,65dbad3905fde4fe1981dc61,65dccf745f40f0724e7a610a,,,,,,,,,,,265.3756,0.6,265.9751,265.9751,266.4247,left,0,0.4476,,266.4247,267.4251,4,6,38,2,1,total,2,images/Ex10.jpg,right,reversed,easy,5,,,,,
,,,,,5e63e24eaf3bd51660031dbe,001,38,Male,US,Associates,2024-02-26_11h52.41.614,CRL1e,2023.2.3,Win32,119.047619,65dbad3905fde4fe1981dc61,65dccf745f40f0724e7a610a,,,,,,,,,,,267.4252,1.1,268.5249,268.525,269.1918,right,1,0.6662,,269.1918,270.1917,4,7,39,3,1,total,2,images/Ex10.jpg,right,reversed,easy,5,,,,,
,,,,,5e63e24eaf3bd51660031dbe,001,38,Male,US,Associates,2024-02-26_11h52.41.614,CRL1e,2023.2.3,Win32,119.047619,65dbad3905fde4fe1981dc61,65dccf745f40f0724e7a610a,,,,,,,,,,,270.1921,0.8,270.9965,270.9965,271.4418,left,1,0.4422,,271.4418,272.4419,5,0,40,4,1,total,2,images/Ex11.jpg,left,reversed,easy,5,,,,,
,,,,,5e63e24eaf3bd51660031dbe,001,38,Male,US,Associates,2024-02-26_11h52.41.614,CRL1e,2023.2.3,Win32,119.047619,65dbad3905fde4fe1981dc61,65dccf745f40f0724e7a610a,,,,,,,,,,,272.4423,1.1,273.5416,273.5416,273.8587,left,1,0.3139,,273.8588,274.8584,5,1,41,5,1,total,2,images/Ex11.jpg,left,reversed,easy,5,,,,,
,,,,,5e63e24eaf3bd51660031dbe,001,38,Male,US,Associates,2024-02-26_11h52.41.614,CRL1e,2023.2.3,Win32,119.047619,65dbad3905fde4fe1981dc61,65dccf745f40f0724e7a610a,,,,,,,,,,,274.8588,0.9,275.7588,275.7588,276.2337,left,1,0.472,,276.2337,277.2337,5,2,42,6,1,total,2,images/Ex12.jpg,left,reversed,easy,5,,,,,
,,,,,5e63e24eaf3bd51660031dbe,001,38,Male,US,Associates,2024-02-26_11h52.41.614,CRL1e,2023.2.3,Win32,119.047619,65dbad3905fde4fe1981dc61,65dccf745f40f0724e7a610a,,,,,,,,,,,277.2341,0.8,278.0337,278.0337,278.4501,right,1,0.4127,,278.4501,279.4505,5,3,43,1,1,total,2,images/Ex9.jpg,right,reversed,easy,5,,,,,
,,,,,5e63e24eaf3bd51660031dbe,001,38,Male,US,Associates,2024-02-26_11h52.41.614,CRL1e,2023.2.3,Win32,119.047619,65dbad3905fde4fe1981dc61,65dccf745f40f0724e7a610a,,,,,,,,,,,279.4508,0.7,280.1502,280.1503,280.5336,left,1,0.3793,,280.5336,281.5338,5,4,44,7,1,total,2,images/Ex12.jpg,left,reversed,easy,5,,,,,
,,,,,5e63e24eaf3bd51660031dbe,001,38,Male,US,Associates,2024-02-26_11h52.41.614,CRL1e,2023.2.3,Win32,119.047619,65dbad3905fde4fe1981dc61,65dccf745f40f0724e7a610a,,,,,,,,,,,281.5344,0.6,282.1338,282.1339,282.6249,right,1,0.4887,,282.6249,283.6252,5,5,45,3,1,total,2,images/Ex10.jpg,right,reversed,easy,5,,,,,
,,,,,5e63e24eaf3bd51660031dbe,001,38,Male,US,Associates,2024-02-26_11h52.41.614,CRL1e,2023.2.3,Win32,119.047619,65dbad3905fde4fe1981dc61,65dccf745f40f0724e7a610a,,,,,,,,,,,283.6256,0.7,284.3258,284.3259,284.7503,right,1,0.4211,,284.7504,285.7504,5,6,46,2,1,total,2,images/Ex10.jpg,right,reversed,easy,5,,,,,
,,,,,5e63e24eaf3bd51660031dbe,001,38,Male,US,Associates,2024-02-26_11h52.41.614,CRL1e,2023.2.3,Win32,119.047619,65dbad3905fde4fe1981dc61,65dccf745f40f0724e7a610a,,,,,,,,,,,285.7509,1.1,286.8505,286.8505,287.3756,right,1,0.524,,287.3756,288.3754,5,7,47,0,1,total,2,images/Ex9.jpg,right,reversed,easy,5,,,,,
,,,,,5e63e24eaf3bd51660031dbe,001,38,Male,US,Associates,2024-02-26_11h52.41.614,CRL1e,2023.2.3,Win32,119.047619,65dbad3905fde4fe1981dc61,65dccf745f40f0724e7a610a,,,,,,288.3759,290.6424,space,2.2593,,290.6512,1,291.6501,291.6502,292.4693,left,1,0.8183,,292.4693,293.4691,0,0,0,0,1,partial,1,images/Ex13.jpg,left,training,easy,5,,,,,
,,,,,5e63e24eaf3bd51660031dbe,001,38,Male,US,Associates,2024-02-26_11h52.41.614,CRL1e,2023.2.3,Win32,119.047619,65dbad3905fde4fe1981dc61,65dccf745f40f0724e7a610a,,,,,,,,,,,293.4693,0.8,294.2703,294.2703,295.3027,left,0,1.0317,,295.3027,296.3002,0,1,1,4,1,partial,1,images/Ex15.jpg,right,training,easy,5,,,,,
,,,,,5e63e24eaf3bd51660031dbe,001,38,Male,US,Associates,2024-02-26_11h52.41.614,CRL1e,2023.2.3,Win32,119.047619,65dbad3905fde4fe1981dc61,65dccf745f40f0724e7a610a,,,,,,,,,,,296.3005,1.2,297.5005,297.5005,298.1496,left,1,0.6426,,298.1497,299.1442,0,2,2,1,1,partial,1,images/Ex13.jpg,left,training,easy,5,,,,,
,,,,,5e63e24eaf3bd51660031dbe,001,38,Male,US,Associates,2024-02-26_11h52.41.614,CRL1e,2023.2.3,Win32,119.047619,65dbad3905fde4fe1981dc61,65dccf745f40f0724e7a610a,,,,,,,,,,,299.1443,1,300.1416,300.1417,300.5024,right,1,0.3602,,300.5024,301.5043,0,3,3,5,1,partial,1,images/Ex15.jpg,right,training,easy,5,,,,,
,,,,,5e63e24eaf3bd51660031dbe,001,38,Male,US,Associates,2024-02-26_11h52.41.614,CRL1e,2023.2.3,Win32,119.047619,65dbad3905fde4fe1981dc61,65dccf745f40f0724e7a610a,,,,,,,,,,,301.5043,0.8,302.3047,302.3047,302.9917,left,1,0.6857,,302.9917,303.9858,0,4,4,2,1,partial,1,images/Ex14.jpg,left,training,easy,5,,,,,
,,,,,5e63e24eaf3bd51660031dbe,001,38,Male,US,Associates,2024-02-26_11h52.41.614,CRL1e,2023.2.3,Win32,119.047619,65dbad3905fde4fe1981dc61,65dccf745f40f0724e7a610a,,,,,,,,,,,303.9861,0.8,304.7836,304.7837,305.194,left,1,0.4098,,305.194,306.1922,0,5,5,3,1,partial,1,images/Ex14.jpg,left,training,easy,5,,,,,
,,,,,5e63e24eaf3bd51660031dbe,001,38,Male,US,Associates,2024-02-26_11h52.41.614,CRL1e,2023.2.3,Win32,119.047619,65dbad3905fde4fe1981dc61,65dccf745f40f0724e7a610a,,,,,,,,,,,306.1924,1,307.1923,307.1923,308.1756,right,1,0.9778,,308.1756,309.1753,0,6,6,6,1,partial,1,images/Ex16.jpg,right,training,easy,5,,,,,
,,,,,5e63e24eaf3bd51660031dbe,001,38,Male,US,Associates,2024-02-26_11h52.41.614,CRL1e,2023.2.3,Win32,119.047619,65dbad3905fde4fe1981dc61,65dccf745f40f0724e7a610a,,,,,,,,,,,309.1754,0.9,310.0756,310.0756,310.4248,right,1,0.3478,,310.4249,311.4274,0,7,7,7,1,partial,1,images/Ex16.jpg,right,training,easy,5,,,,,
,,,,,5e63e24eaf3bd51660031dbe,001,38,Male,US,Associates,2024-02-26_11h52.41.614,CRL1e,2023.2.3,Win32,119.047619,65dbad3905fde4fe1981dc61,65dccf745f40f0724e7a610a,,,,,,,,,,,311.4276,1,312.4251,312.4252,312.9421,left,1,0.5112,,312.9422,313.9421,1,0,8,0,1,partial,1,images/Ex13.jpg,left,training,easy,5,,,,,
,,,,,5e63e24eaf3bd51660031dbe,001,38,Male,US,Associates,2024-02-26_11h52.41.614,CRL1e,2023.2.3,Win32,119.047619,65dbad3905fde4fe1981dc61,65dccf745f40f0724e7a610a,,,,,,,,,,,313.9428,1.4,315.3375,315.3375,315.7506,left,1,0.4059,,315.7506,316.7505,1,1,9,1,1,partial,1,images/Ex13.jpg,left,training,easy,5,,,,,
,,,,,5e63e24eaf3bd51660031dbe,001,38,Male,US,Associates,2024-02-26_11h52.41.614,CRL1e,2023.2.3,Win32,119.047619,65dbad3905fde4fe1981dc61,65dccf745f40f0724e7a610a,,,,,,,,,,,316.7508,0.6,317.3505,317.3505,318.2168,right,1,0.8644,,318.2168,319.2107,1,2,10,6,1,partial,1,images/Ex16.jpg,right,training,easy,5,,,,,
,,,,,5e63e24eaf3bd51660031dbe,001,38,Male,US,Associates,2024-02-26_11h52.41.614,CRL1e,2023.2.3,Win32,119.047619,65dbad3905fde4fe1981dc61,65dccf745f40f0724e7a610a,,,,,,,,,,,319.211,0.5,319.7129,319.7129,320.2361,right,1,0.5226,,320.2361,321.2336,1,3,11,4,1,partial,1,images/Ex15.jpg,right,training,easy,5,,,,,
,,,,,5e63e24eaf3bd51660031dbe,001,38,Male,US,Associates,2024-02-26_11h52.41.614,CRL1e,2023.2.3,Win32,119.047619,65dbad3905fde4fe1981dc61,65dccf745f40f0724e7a610a,,,,,,,,,,,321.2338,0.9,322.1338,322.1338,322.5952,left,0,0.4604,,322.5952,323.592,1,4,12,7,1,partial,1,images/Ex16.jpg,right,training,easy,5,,,,,
,,,,,5e63e24eaf3bd51660031dbe,001,38,Male,US,Associates,2024-02-26_11h52.41.614,CRL1e,2023.2.3,Win32,119.047619,65dbad3905fde4fe1981dc61,65dccf745f40f0724e7a610a,,,,,,,,,,,323.5922,0.9,324.4922,324.4922,324.9669,left,1,0.4689,,324.9669,325.9674,1,5,13,3,1,partial,1,images/Ex14.jpg,left,training,easy,5,,,,,
,,,,,5e63e24eaf3bd51660031dbe,001,38,Male,US,Associates,2024-02-26_11h52.41.614,CRL1e,2023.2.3,Win32,119.047619,65dbad3905fde4fe1981dc61,65dccf745f40f0724e7a610a,,,,,,,,,,,325.9676,1,326.9628,326.9628,327.3775,left,1,0.4144,,327.3776,328.3756,1,6,14,2,1,partial,1,images/Ex14.jpg,left,training,easy,5,,,,,
,,,,,5e63e24eaf3bd51660031dbe,001,38,Male,US,Associates,2024-02-26_11h52.41.614,CRL1e,2023.2.3,Win32,119.047619,65dbad3905fde4fe1981dc61,65dccf745f40f0724e7a610a,,,,,,,,,,,328.3758,1.4,329.7755,329.7756,330.3508,right,1,0.5688,,330.3508,331.3506,1,7,15,5,1,partial,1,images/Ex15.jpg,right,training,easy,5,,,,,
,,,,,5e63e24eaf3bd51660031dbe,001,38,Male,US,Associates,2024-02-26_11h52.41.614,CRL1e,2023.2.3,Win32,119.047619,65dbad3905fde4fe1981dc61,65dccf745f40f0724e7a610a,,,,,,,,,,,331.3509,1.1,332.4508,332.4509,332.7592,right,1,0.3032,,332.7592,333.7591,2,0,16,6,1,partial,1,images/Ex16.jpg,right,training,easy,5,,,,,
,,,,,5e63e24eaf3bd51660031dbe,001,38,Male,US,Associates,2024-02-26_11h52.41.614,CRL1e,2023.2.3,Win32,119.047619,65dbad3905fde4fe1981dc61,65dccf745f40f0724e7a610a,,,,,,,,,,,333.7597,1.1,334.855,334.855,335.3339,left,1,0.4737,,335.3339,336.3359,2,1,17,1,1,partial,1,images/Ex13.jpg,left,training,easy,5,,,,,
,,,,,5e63e24eaf3bd51660031dbe,001,38,Male,US,Associates,2024-02-26_11h52.41.614,CRL1e,2023.2.3,Win32,119.047619,65dbad3905fde4fe1981dc61,65dccf745f40f0724e7a610a,,,,,,,,,,,336.3362,1.4,337.7336,337.7337,338.2361,left,1,0.5019,,338.2362,339.2339,2,2,18,3,1,partial,1,images/Ex14.jpg,left,training,easy,5,,,,,
,,,,,5e63e24eaf3bd51660031dbe,001,38,Male,US,Associates,2024-02-26_11h52.41.614,CRL1e,2023.2.3,Win32,119.047619,65dbad3905fde4fe1981dc61,65dccf745f40f0724e7a610a,,,,,,,,,,,339.2343,1.2,340.4341,340.4342,340.7781,right,1,0.3433,,340.7781,341.7758,2,3,19,7,1,partial,1,images/Ex16.jpg,right,training,easy,5,,,,,
,,,,,5e63e24eaf3bd51660031dbe,001,38,Male,US,Associates,2024-02-26_11h52.41.614,CRL1e,2023.2.3,Win32,119.047619,65dbad3905fde4fe1981dc61,65dccf745f40f0724e7a610a,,,,,,,,,,,341.7762,0.8,342.572,342.572,343.1193,left,1,0.5467,,343.1194,344.1197,2,4,20,2,1,partial,1,images/Ex14.jpg,left,training,easy,5,,,,,
,,,,,5e63e24eaf3bd51660031dbe,001,38,Male,US,Associates,2024-02-26_11h52.41.614,CRL1e,2023.2.3,Win32,119.047619,65dbad3905fde4fe1981dc61,65dccf745f40f0724e7a610a,,,,,,,,,,,344.1198,0.7,344.8216,344.8216,345.3177,right,1,0.4911,,345.3177,346.3181,2,5,21,5,1,partial,1,images/Ex15.jpg,right,training,easy,5,,,,,
,,,,,5e63e24eaf3bd51660031dbe,001,38,Male,US,Associates,2024-02-26_11h52.41.614,CRL1e,2023.2.3,Win32,119.047619,65dbad3905fde4fe1981dc61,65dccf745f40f0724e7a610a,,,,,,,,,,,346.3184,0.7,347.0173,347.0173,347.5277,left,1,0.5098,,347.5277,348.5259,2,6,22,0,1,partial,1,images/Ex13.jpg,left,training,easy,5,,,,,
,,,,,5e63e24eaf3bd51660031dbe,001,38,Male,US,Associates,2024-02-26_11h52.41.614,CRL1e,2023.2.3,Win32,119.047619,65dbad3905fde4fe1981dc61,65dccf745f40f0724e7a610a,,,,,,,,,,,348.5263,0.5,349.0258,349.0258,349.5095,right,1,0.478,,349.5096,350.5095,2,7,23,4,1,partial,1,images/Ex15.jpg,right,training,easy,5,,,,,
,,,,,5e63e24eaf3bd51660031dbe,001,38,Male,US,Associates,2024-02-26_11h52.41.614,CRL1e,2023.2.3,Win32,119.047619,65dbad3905fde4fe1981dc61,65dccf745f40f0724e7a610a,,,,,,,,,,,350.5099,1.3,351.8092,351.8093,352.2087,left,1,0.3977,,352.2088,353.2115,3,0,24,3,1,partial,1,images/Ex14.jpg,left,training,easy,5,,,,,
,,,,,5e63e24eaf3bd51660031dbe,001,38,Male,US,Associates,2024-02-26_11h52.41.614,CRL1e,2023.2.3,Win32,119.047619,65dbad3905fde4fe1981dc61,65dccf745f40f0724e7a610a,,,,,,,,,,,353.2117,1,354.2087,354.2087,354.6006,left,1,0.3916,,354.6006,355.6009,3,1,25,2,1,partial,1,images/Ex14.jpg,left,training,easy,5,,,,,
,,,,,5e63e24eaf3bd51660031dbe,001,38,Male,US,Associates,2024-02-26_11h52.41.614,CRL1e,2023.2.3,Win32,119.047619,65dbad3905fde4fe1981dc61,65dccf745f40f0724e7a610a,,,,,,,,,,,355.6014,1.1,356.7051,356.7051,357.1116,left,0,0.4061,,357.1116,358.1093,3,2,26,4,1,partial,1,images/Ex15.jpg,right,training,easy,5,,,,,
,,,,,5e63e24eaf3bd51660031dbe,001,38,Male,US,Associates,2024-02-26_11h52.41.614,CRL1e,2023.2.3,Win32,119.047619,65dbad3905fde4fe1981dc61,65dccf745f40f0724e7a610a,,,,,,,,,,,358.11,1.3,359.4051,359.4052,359.8092,right,0,0.4021,,359.8092,360.8093,3,3,27,0,1,partial,1,images/Ex13.jpg,left,training,easy,5,,,,,
,,,,,5e63e24eaf3bd51660031dbe,001,38,Male,US,Associates,2024-02-26_11h52.41.614,CRL1e,2023.2.3,Win32,119.047619,65dbad3905fde4fe1981dc61,65dccf745f40f0724e7a610a,,,,,,,,,,,360.8096,0.7,361.5086,361.5086,362.0839,right,1,0.5704,,362.0839,363.0843,3,4,28,5,1,partial,1,images/Ex15.jpg,right,training,easy,5,,,,,
,,,,,5e63e24eaf3bd51660031dbe,001,38,Male,US,Associates,2024-02-26_11h52.41.614,CRL1e,2023.2.3,Win32,119.047619,65dbad3905fde4fe1981dc61,65dccf745f40f0724e7a610a,,,,,,,,,,,363.0847,1.1,364.1804,364.1804,364.6925,right,1,0.5067,,364.6925,365.6928,3,5,29,7,1,partial,1,images/Ex16.jpg,right,training,easy,5,,,,,
,,,,,5e63e24eaf3bd51660031dbe,001,38,Male,US,Associates,2024-02-26_11h52.41.614,CRL1e,2023.2.3,Win32,119.047619,65dbad3905fde4fe1981dc61,65dccf745f40f0724e7a610a,,,,,,,,,,,365.6931,0.6,366.2926,366.2926,366.8092,right,1,0.5141,,366.8093,367.8093,3,6,30,6,1,partial,1,images/Ex16.jpg,right,training,easy,5,,,,,
,,,,,5e63e24eaf3bd51660031dbe,001,38,Male,US,Associates,2024-02-26_11h52.41.614,CRL1e,2023.2.3,Win32,119.047619,65dbad3905fde4fe1981dc61,65dccf745f40f0724e7a610a,,,,,,,,,,,367.8097,0.9,368.7094,368.7094,369.0842,left,1,0.3688,,369.0842,370.0843,3,7,31,1,1,partial,1,images/Ex13.jpg,left,training,easy,5,,,,,
,,,,,5e63e24eaf3bd51660031dbe,001,38,Male,US,Associates,2024-02-26_11h52.41.614,CRL1e,2023.2.3,Win32,119.047619,65dbad3905fde4fe1981dc61,65dccf745f40f0724e7a610a,,,,,,,,,,,370.0847,1.1,371.1842,371.1842,371.5366,right,1,0.3514,,371.5366,372.5342,4,0,32,4,1,partial,1,images/Ex15.jpg,right,training,easy,5,,,,,
,,,,,5e63e24eaf3bd51660031dbe,001,38,Male,US,Associates,2024-02-26_11h52.41.614,CRL1e,2023.2.3,Win32,119.047619,65dbad3905fde4fe1981dc61,65dccf745f40f0724e7a610a,,,,,,,,,,,372.5347,0.9,373.4341,373.4342,373.8343,left,1,0.397,,373.8344,374.8364,4,1,33,1,1,partial,1,images/Ex13.jpg,left,training,easy,5,,,,,
,,,,,5e63e24eaf3bd51660031dbe,001,38,Male,US,Associates,2024-02-26_11h52.41.614,CRL1e,2023.2.3,Win32,119.047619,65dbad3905fde4fe1981dc61,65dccf745f40f0724e7a610a,,,,,,,,,,,374.8367,0.7,375.5387,375.5387,375.9094,left,0,0.3672,,375.9095,376.9094,4,2,34,5,1,partial,1,images/Ex15.jpg,right,training,easy,5,,,,,
,,,,,5e63e24eaf3bd51660031dbe,001,38,Male,US,Associates,2024-02-26_11h52.41.614,CRL1e,2023.2.3,Win32,119.047619,65dbad3905fde4fe1981dc61,65dccf745f40f0724e7a610a,,,,,,,,,,,376.91,1.5,378.4092,378.4092,378.9264,left,1,0.5115,,378.9264,379.9262,4,3,35,0,1,partial,1,images/Ex13.jpg,left,training,easy,5,,,,,
,,,,,5e63e24eaf3bd51660031dbe,001,38,Male,US,Associates,2024-02-26_11h52.41.614,CRL1e,2023.2.3,Win32,119.047619,65dbad3905fde4fe1981dc61,65dccf745f40f0724e7a610a,,,,,,,,,,,379.9265,1,380.9262,380.9263,381.376,left,0,0.4486,,381.376,382.3764,4,4,36,7,1,partial,1,images/Ex16.jpg,right,training,easy,5,,,,,
,,,,,5e63e24eaf3bd51660031dbe,001,38,Male,US,Associates,2024-02-26_11h52.41.614,CRL1e,2023.2.3,Win32,119.047619,65dbad3905fde4fe1981dc61,65dccf745f40f0724e7a610a,,,,,,,,,,,382.3766,0.8,383.176,383.176,383.6594,left,1,0.4797,,383.6594,384.6592,4,5,37,3,1,partial,1,images/Ex14.jpg,left,training,easy,5,,,,,
,,,,,5e63e24eaf3bd51660031dbe,001,38,Male,US,Associates,2024-02-26_11h52.41.614,CRL1e,2023.2.3,Win32,119.047619,65dbad3905fde4fe1981dc61,65dccf745f40f0724e7a610a,,,,,,,,,,,384.6594,1.2,385.8594,385.8594,386.3176,left,1,0.4534,,386.3177,387.3194,4,6,38,2,1,partial,1,images/Ex14.jpg,left,training,easy,5,,,,,
,,,,,5e63e24eaf3bd51660031dbe,001,38,Male,US,Associates,2024-02-26_11h52.41.614,CRL1e,2023.2.3,Win32,119.047619,65dbad3905fde4fe1981dc61,65dccf745f40f0724e7a610a,,,,,,,,,,,387.3196,0.5,387.8179,387.8179,388.2339,right,1,0.4128,,388.2339,389.228,4,7,39,6,1,partial,1,images/Ex16.jpg,right,training,easy,5,,,,,
,,,,,5e63e24eaf3bd51660031dbe,001,38,Male,US,Associates,2024-02-26_11h52.41.614,CRL1e,2023.2.3,Win32,119.047619,65dbad3905fde4fe1981dc61,65dccf745f40f0724e7a610a,,,,,,,,,,,389.2285,1.2,390.4305,390.4305,390.9342,left,1,0.4976,,390.9342,391.9347,5,0,40,0,1,partial,1,images/Ex13.jpg,left,training,easy,5,,,,,
,,,,,5e63e24eaf3bd51660031dbe,001,38,Male,US,Associates,2024-02-26_11h52.41.614,CRL1e,2023.2.3,Win32,119.047619,65dbad3905fde4fe1981dc61,65dccf745f40f0724e7a610a,,,,,,,,,,,391.9351,0.6,392.5349,392.535,392.9263,right,1,0.3858,,392.9264,393.9283,5,1,41,7,1,partial,1,images/Ex16.jpg,right,training,easy,5,,,,,
,,,,,5e63e24eaf3bd51660031dbe,001,38,Male,US,Associates,2024-02-26_11h52.41.614,CRL1e,2023.2.3,Win32,119.047619,65dbad3905fde4fe1981dc61,65dccf745f40f0724e7a610a,,,,,,,,,,,393.9287,1.2,395.1258,395.1259,395.5842,left,0,0.4575,,395.5842,396.5844,5,2,42,6,1,partial,1,images/Ex16.jpg,right,training,easy,5,,,,,
,,,,,5e63e24eaf3bd51660031dbe,001,38,Male,US,Associates,2024-02-26_11h52.41.614,CRL1e,2023.2.3,Win32,119.047619,65dbad3905fde4fe1981dc61,65dccf745f40f0724e7a610a,,,,,,,,,,,396.585,1.2,397.7795,397.7795,398.154,right,1,0.374,,398.154,399.151,5,3,43,5,1,partial,1,images/Ex15.jpg,right,training,easy,5,,,,,
,,,,,5e63e24eaf3bd51660031dbe,001,38,Male,US,Associates,2024-02-26_11h52.41.614,CRL1e,2023.2.3,Win32,119.047619,65dbad3905fde4fe1981dc61,65dccf745f40f0724e7a610a,,,,,,,,,,,399.1512,1.3,400.451,400.4511,400.9035,left,1,0.4516,,400.9035,401.903,5,4,44,2,1,partial,1,images/Ex14.jpg,left,training,easy,5,,,,,
,,,,,5e63e24eaf3bd51660031dbe,001,38,Male,US,Associates,2024-02-26_11h52.41.614,CRL1e,2023.2.3,Win32,119.047619,65dbad3905fde4fe1981dc61,65dccf745f40f0724e7a610a,,,,,,,,,,,401.9034,1,402.9012,402.9012,403.4348,left,1,0.5295,,403.4349,404.4366,5,5,45,1,1,partial,1,images/Ex13.jpg,left,training,easy,5,,,,,
,,,,,5e63e24eaf3bd51660031dbe,001,38,Male,US,Associates,2024-02-26_11h52.41.614,CRL1e,2023.2.3,Win32,119.047619,65dbad3905fde4fe1981dc61,65dccf745f40f0724e7a610a,,,,,,,,,,,404.4368,0.7,405.1343,405.1344,405.5701,right,1,0.4349,,405.5701,406.5676,5,6,46,4,1,partial,1,images/Ex15.jpg,right,training,easy,5,,,,,
,,,,,5e63e24eaf3bd51660031dbe,001,38,Male,US,Associates,2024-02-26_11h52.41.614,CRL1e,2023.2.3,Win32,119.047619,65dbad3905fde4fe1981dc61,65dccf745f40f0724e7a610a,,,,,,,,,,,406.5681,0.8,407.3681,407.3681,407.7673,left,1,0.3985,,407.7673,408.7698,5,7,47,3,1,partial,1,images/Ex14.jpg,left,training,easy,5,,,,,
,,,,,5e63e24eaf3bd51660031dbe,001,38,Male,US,Associates,2024-02-26_11h52.41.614,CRL1e,2023.2.3,Win32,119.047619,65dbad3905fde4fe1981dc61,65dccf745f40f0724e7a610a,,,,,,,,,,,408.7717,1.4,410.1676,410.1676,410.6201,left,1,0.4521,,410.6202,411.6174,0,0,0,1,1,partial,2,images/Ex13.jpg,left,nonreversed,easy,5,,,,,
,,,,,5e63e24eaf3bd51660031dbe,001,38,Male,US,Associates,2024-02-26_11h52.41.614,CRL1e,2023.2.3,Win32,119.047619,65dbad3905fde4fe1981dc61,65dccf745f40f0724e7a610a,,,,,,,,,,,411.6176,0.8,412.4181,412.4181,412.8289,right,0,0.4102,,412.829,413.8265,0,1,1,7,1,partial,2,images/Ex16.jpg,left,reversed,easy,5,,,,,
,,,,,5e63e24eaf3bd51660031dbe,001,38,Male,US,Associates,2024-02-26_11h52.41.614,CRL1e,2023.2.3,Win32,119.047619,65dbad3905fde4fe1981dc61,65dccf745f40f0724e7a610a,,,,,,,,,,,413.8268,1,414.8263,414.8264,415.401,left,0,0.5728,,415.401,416.4007,0,2,2,3,1,partial,2,images/Ex14.jpg,right,reversed,easy,5,,,,,
,,,,,5e63e24eaf3bd51660031dbe,001,38,Male,US,Associates,2024-02-26_11h52.41.614,CRL1e,2023.2.3,Win32,119.047619,65dbad3905fde4fe1981dc61,65dccf745f40f0724e7a610a,,,,,,,,,,,416.4009,1.2,417.6004,417.6005,418.0955,right,0,0.4946,,418.0955,419.0932,0,3,3,0,1,partial,2,images/Ex13.jpg,left,nonreversed,easy,5,,,,,
,,,,,5e63e24eaf3bd51660031dbe,001,38,Male,US,Associates,2024-02-26_11h52.41.614,CRL1e,2023.2.3,Win32,119.047619,65dbad3905fde4fe1981dc61,65dccf745f40f0724e7a610a,,,,,,,,,,,419.0934,1.3,420.3931,420.3931,421.1601,right,1,0.761,,421.1601,422.16,0,4,4,4,1,partial,2,images/Ex15.jpg,right,nonreversed,easy,5,,,,,
,,,,,5e63e24eaf3bd51660031dbe,001,38,Male,US,Associates,2024-02-26_11h52.41.614,CRL1e,2023.2.3,Win32,119.047619,65dbad3905fde4fe1981dc61,65dccf745f40f0724e7a610a,,,,,,,,,,,422.1606,0.6,422.7557,422.7558,423.5348,left,1,0.7734,,423.5349,424.5361,0,5,5,6,1,partial,2,images/Ex16.jpg,left,reversed,easy,5,,,,,
,,,,,5e63e24eaf3bd51660031dbe,001,38,Male,US,Associates,2024-02-26_11h52.41.614,CRL1e,2023.2.3,Win32,119.047619,65dbad3905fde4fe1981dc61,65dccf745f40f0724e7a610a,,,,,,,,,,,424.5362,0.7,425.2343,425.2343,426.045,right,1,0.81,,426.045,427.0428,0,6,6,2,1,partial,2,images/Ex14.jpg,right,reversed,easy,5,,,,,
,,,,,5e63e24eaf3bd51660031dbe,001,38,Male,US,Associates,2024-02-26_11h52.41.614,CRL1e,2023.2.3,Win32,119.047619,65dbad3905fde4fe1981dc61,65dccf745f40f0724e7a610a,,,,,,,,,,,427.0431,0.6,427.6391,427.6391,428.4036,left,0,0.7639,,428.4037,429.4015,0,7,7,5,1,partial,2,images/Ex15.jpg,right,nonreversed,easy,5,,,,,
,,,,,5e63e24eaf3bd51660031dbe,001,38,Male,US,Associates,2024-02-26_11h52.41.614,CRL1e,2023.2.3,Win32,119.047619,65dbad3905fde4fe1981dc61,65dccf745f40f0724e7a610a,,,,,,,,,,,429.4019,0.8,430.1977,430.1978,431.0685,right,0,0.8651,,431.0685,432.069,1,0,8,1,1,partial,2,images/Ex13.jpg,left,nonreversed,easy,5,,,,,
,,,,,5e63e24eaf3bd51660031dbe,001,38,Male,US,Associates,2024-02-26_11h52.41.614,CRL1e,2023.2.3,Win32,119.047619,65dbad3905fde4fe1981dc61,65dccf745f40f0724e7a610a,,,,,,,,,,,432.0693,0.9,432.9637,432.9637,433.8266,right,1,0.859,,433.8266,434.8282,1,1,9,3,1,partial,2,images/Ex14.jpg,right,reversed,easy,5,,,,,
,,,,,5e63e24eaf3bd51660031dbe,001,38,Male,US,Associates,2024-02-26_11h52.41.614,CRL1e,2023.2.3,Win32,119.047619,65dbad3905fde4fe1981dc61,65dccf745f40f0724e7a610a,,,,,,,,,,,434.8283,0.5,435.3262,435.3262,435.9016,left,1,0.5697,,435.9016,436.9012,1,2,10,0,1,partial,2,images/Ex13.jpg,left,nonreversed,easy,5,,,,,
,,,,,5e63e24eaf3bd51660031dbe,001,38,Male,US,Associates,2024-02-26_11h52.41.614,CRL1e,2023.2.3,Win32,119.047619,65dbad3905fde4fe1981dc61,65dccf745f40f0724e7a610a,,,,,,,,,,,436.9013,0.9,437.8009,437.8009,438.4592,left,1,0.6538,,438.4593,439.4533,1,3,11,6,1,partial,2,images/Ex16.jpg,left,reversed,easy,5,,,,,
,,,,,5e63e24eaf3bd51660031dbe,001,38,Male,US,Associates,2024-02-26_11h52.41.614,CRL1e,2023.2.3,Win32,119.047619,65dbad3905fde4fe1981dc61,65dccf745f40f0724e7a610a,,,,,,,,,,,439.4535,0.6,440.0516,440.0516,440.46,right,1,0.4032,,440.46,441.4602,1,4,12,4,1,partial,2,images/Ex15.jpg,right,nonreversed,easy,5,,,,,
,,,,,5e63e24eaf3bd51660031dbe,001,38,Male,US,Associates,2024-02-26_11h52.41.614,CRL1e,2023.2.3,Win32,119.047619,65dbad3905fde4fe1981dc61,65dccf745f40f0724e7a610a,,,,,,,,,,,441.4606,1.1,442.5559,442.5559,443.2349,left,1,0.675,,443.235,444.2347,1,5,13,7,1,partial,2,images/Ex16.jpg,left,reversed,easy,5,,,,,
,,,,,5e63e24eaf3bd51660031dbe,001,38,Male,US,Associates,2024-02-26_11h52.41.614,CRL1e,2023.2.3,Win32,119.047619,65dbad3905fde4fe1981dc61,65dccf745f40f0724e7a610a,,,,,,,,,,,444.235,1.2,445.4351,445.4352,445.9515,right,1,0.51,,445.9515,446.9516,1,6,14,5,1,partial,2,images/Ex15.jpg,right,nonreversed,easy,5,,,,,
,,,,,5e63e24eaf3bd51660031dbe,001,38,Male,US,Associates,2024-02-26_11h52.41.614,CRL1e,2023.2.3,Win32,119.047619,65dbad3905fde4fe1981dc61,65dccf745f40f0724e7a610a,,,,,,,,,,,446.9519,1.3,448.2476,448.2476,448.9846,right,1,0.7357,,448.9847,449.979,1,7,15,2,1,partial,2,images/Ex14.jpg,right,reversed,easy,5,,,,,
,,,,,5e63e24eaf3bd51660031dbe,001,38,Male,US,Associates,2024-02-26_11h52.41.614,CRL1e,2023.2.3,Win32,119.047619,65dbad3905fde4fe1981dc61,65dccf745f40f0724e7a610a,,,,,,,,,,,449.9792,0.8,450.7766,450.7766,451.2432,left,0,0.4619,,451.2432,452.2434,2,0,16,5,1,partial,2,images/Ex15.jpg,right,nonreversed,easy,5,,,,,
,,,,,5e63e24eaf3bd51660031dbe,001,38,Male,US,Associates,2024-02-26_11h52.41.614,CRL1e,2023.2.3,Win32,119.047619,65dbad3905fde4fe1981dc61,65dccf745f40f0724e7a610a,,,,,,,,,,,452.2436,1.3,453.5392,453.5393,454.3437,left,0,0.7982,,454.3437,455.3434,2,1,17,2,1,partial,2,images/Ex14.jpg,right,reversed,easy,5,,,,,
,,,,,5e63e24eaf3bd51660031dbe,001,38,Male,US,Associates,2024-02-26_11h52.41.614,CRL1e,2023.2.3,Win32,119.047619,65dbad3905fde4fe1981dc61,65dccf745f40f0724e7a610a,,,,,,,,,,,455.3437,1.2,456.5431,456.5432,457.251,left,1,0.7063,,457.251,458.2517,2,2,18,7,1,partial,2,images/Ex16.jpg,left,reversed,easy,5,,,,,
,,,,,5e63e24eaf3bd51660031dbe,001,38,Male,US,Associates,2024-02-26_11h52.41.614,CRL1e,2023.2.3,Win32,119.047619,65dbad3905fde4fe1981dc61,65dccf745f40f0724e7a610a,,,,,,,,,,,458.252,1.4,459.653,459.653,460.2183,left,1,0.562,,460.2183,461.2186,2,3,19,0,1,partial,2,images/Ex13.jpg,left,nonreversed,easy,5,,,,,
,,,,,5e63e24eaf3bd51660031dbe,001,38,Male,US,Associates,2024-02-26_11h52.41.614,CRL1e,2023.2.3,Win32,119.047619,65dbad3905fde4fe1981dc61,65dccf745f40f0724e7a610a,,,,,,,,,,,461.219,0.6,461.8222,461.8222,462.3013,right,1,0.473,,462.3013,463.3016,2,4,20,4,1,partial,2,images/Ex15.jpg,right,nonreversed,easy,5,,,,,
,,,,,5e63e24eaf3bd51660031dbe,001,38,Male,US,Associates,2024-02-26_11h52.41.614,CRL1e,2023.2.3,Win32,119.047619,65dbad3905fde4fe1981dc61,65dccf745f40f0724e7a610a,,,,,,,,,,,463.3017,1.3,464.6018,464.6018,465.0036,right,1,0.4012,,465.0036,466.0017,2,5,21,3,1,partial,2,images/Ex14.jpg,right,reversed,easy,5,,,,,
,,,,,5e63e24eaf3bd51660031dbe,001,38,Male,US,Associates,2024-02-26_11h52.41.614,CRL1e,2023.2.3,Win32,119.047619,65dbad3905fde4fe1981dc61,65dccf745f40f0724e7a610a,,,,,,,,,,,466.0019,0.7,466.7059,466.7059,467.1928,left,1,0.4843,,467.1928,468.1935,2,6,22,1,1,partial,2,images/Ex13.jpg,left,nonreversed,easy,5,,,,,
,,,,,5e63e24eaf3bd51660031dbe,001,38,Male,US,Associates,2024-02-26_11h52.41.614,CRL1e,2023.2.3,Win32,119.047619,65dbad3905fde4fe1981dc61,65dccf745f40f0724e7a610a,,,,,,,,,,,468.1938,0.6,468.7935,468.7935,469.3098,left,1,0.5103,,469.31,470.3104,2,7,23,6,1,partial,2,images/Ex16.jpg,left,reversed,easy,5,,,,,
,,,,,5e63e24eaf3bd51660031dbe,001,38,Male,US,Associates,2024-02-26_11h52.41.614,CRL1e,2023.2.3,Win32,119.047619,65dbad3905fde4fe1981dc61,65dccf745f40f0724e7a610a,,,,,,,,,,,470.3106,0.9,471.21,471.21,471.6686,left,1,0.4533,,471.6686,472.6624,3,0,24,0,1,partial,2,images/Ex13.jpg,left,nonreversed,easy,5,,,,,
,,,,,5e63e24eaf3bd51660031dbe,001,38,Male,US,Associates,2024-02-26_11h52.41.614,CRL1e,2023.2.3,Win32,119.047619,65dbad3905fde4fe1981dc61,65dccf745f40f0724e7a610a,,,,,,,,,,,472.6629,0.9,473.5601,473.5601,474.0952,left,0,0.5345,,474.0952,475.0956,3,1,25,2,1,partial,2,images/Ex14.jpg,right,reversed,easy,5,,,,,
,,,,,5e63e24eaf3bd51660031dbe,001,38,Male,US,Associates,2024-02-26_11h52.41.614,CRL1e,2023.2.3,Win32,119.047619,65dbad3905fde4fe1981dc61,65dccf745f40f0724e7a610a,,,,,,,,,,,475.0959,1.4,476.4927,476.4927,477.0186,right,0,0.522,,477.0187,478.0188,3,2,26,6,1,partial,2,images/Ex16.jpg,left,reversed,easy,5,,,,,
,,,,,5e63e24eaf3bd51660031dbe,001,38,Male,US,Associates,2024-02-26_11h52.41.614,CRL1e,2023.2.3,Win32,119.047619,65dbad3905fde4fe1981dc61,65dccf745f40f0724e7a610a,,,,,,,,,,,478.0192,0.5,478.5144,478.5144,479.3017,left,0,0.7806,,479.3018,480.3016,3,3,27,3,1,partial,2,images/Ex14.jpg,right,reversed,easy,5,,,,,
,,,,,5e63e24eaf3bd51660031dbe,001,38,Male,US,Associates,2024-02-26_11h52.41.614,CRL1e,2023.2.3,Win32,119.047619,65dbad3905fde4fe1981dc61,65dccf745f40f0724e7a610a,,,,,,,,,,,480.3018,1.2,481.4973,481.4973,482.1186,right,1,0.6147,,482.1186,483.1187,3,4,28,4,1,partial,2,images/Ex15.jpg,right,nonreversed,easy,5,,,,,
,,,,,5e63e24eaf3bd51660031dbe,001,38,Male,US,Associates,2024-02-26_11h52.41.614,CRL1e,2023.2.3,Win32,119.047619,65dbad3905fde4fe1981dc61,65dccf745f40f0724e7a610a,,,,,,,,,,,483.119,1.3,484.4136,484.4136,484.8855,right,1,0.4644,,484.8855,485.8872,3,5,29,5,1,partial,2,images/Ex15.jpg,right,nonreversed,easy,5,,,,,
,,,,,5e63e24eaf3bd51660031dbe,001,38,Male,US,Associates,2024-02-26_11h52.41.614,CRL1e,2023.2.3,Win32,119.047619,65dbad3905fde4fe1981dc61,65dccf745f40f0724e7a610a,,,,,,,,,,,485.8874,0.8,486.6896,486.6896,487.2205,right,0,0.5304,,487.2206,488.219,3,6,30,7,1,partial,2,images/Ex16.jpg,left,reversed,easy,5,,,,,
,,,,,5e63e24eaf3bd51660031dbe,001,38,Male,US,Associates,2024-02-26_11h52.41.614,CRL1e,2023.2.3,Win32,119.047619,65dbad3905fde4fe1981dc61,65dccf745f40f0724e7a610a,,,,,,,,,,,488.2194,1.4,489.6189,489.6189,490.1181,left,1,0.4936,,490.1181,491.12,3,7,31,1,1,partial,2,images/Ex13.jpg,left,nonreversed,easy,5,,,,,
,,,,,5e63e24eaf3bd51660031dbe,001,38,Male,US,Associates,2024-02-26_11h52.41.614,CRL1e,2023.2.3,Win32,119.047619,65dbad3905fde4fe1981dc61,65dccf745f40f0724e7a610a,,,,,,,,,,,491.1202,0.5,491.6182,491.6182,492.244,right,1,0.6215,,492.244,493.2432,4,0,32,3,1,partial,2,images/Ex14.jpg,right,reversed,easy,5,,,,,
,,,,,5e63e24eaf3bd51660031dbe,001,38,Male,US,Associates,2024-02-26_11h52.41.614,CRL1e,2023.2.3,Win32,119.047619,65dbad3905fde4fe1981dc61,65dccf745f40f0724e7a610a,,,,,,,,,,,493.2434,0.8,494.0466,494.0466,494.5123,right,1,0.4652,,494.5123,495.5095,4,1,33,2,1,partial,2,images/Ex14.jpg,right,reversed,easy,5,,,,,
,,,,,5e63e24eaf3bd51660031dbe,001,38,Male,US,Associates,2024-02-26_11h52.41.614,CRL1e,2023.2.3,Win32,119.047619,65dbad3905fde4fe1981dc61,65dccf745f40f0724e7a610a,,,,,,,,,,,495.5097,1.4,496.9106,496.9106,497.354,right,0,0.4427,,497.354,498.3513,4,2,34,6,1,partial,2,images/Ex16.jpg,left,reversed,easy,5,,,,,
,,,,,5e63e24eaf3bd51660031dbe,001,38,Male,US,Associates,2024-02-26_11h52.41.614,CRL1e,2023.2.3,Win32,119.047619,65dbad3905fde4fe1981dc61,65dccf745f40f0724e7a610a,,,,,,,,,,,498.3518,0.9,499.2554,499.2554,499.7046,right,0,0.4484,,499.7046,500.7039,4,3,35,7,1,partial,2,images/Ex16.jpg,left,reversed,easy,5,,,,,
,,,,,5e63e24eaf3bd51660031dbe,001,38,Male,US,Associates,2024-02-26_11h52.41.614,CRL1e,2023.2.3,Win32,119.047619,65dbad3905fde4fe1981dc61,65dccf745f40f0724e7a610a,,,,,,,,,,,500.7042,0.7,501.4049,501.4049,502.1213,right,1,0.7157,,502.1213,503.1207,4,4,36,5,1,partial,2,images/Ex15.jpg,right,nonreversed,easy,5,,,,,
,,,,,5e63e24eaf3bd51660031dbe,001,38,Male,US,Associates,2024-02-26_11h52.41.614,CRL1e,2023.2.3,Win32,119.047619,65dbad3905fde4fe1981dc61,65dccf745f40f0724e7a610a,,,,,,,,,,,503.1211,1.3,504.419,504.4191,504.9373,left,1,0.5173,,504.9373,505.9376,4,5,37,1,1,partial,2,images/Ex13.jpg,left,nonreversed,easy,5,,,,,
,,,,,5e63e24eaf3bd51660031dbe,001,38,Male,US,Associates,2024-02-26_11h52.41.614,CRL1e,2023.2.3,Win32,119.047619,65dbad3905fde4fe1981dc61,65dccf745f40f0724e7a610a,,,,,,,,,,,505.9379,1.4,507.3353,507.3354,507.8772,right,1,0.5356,,507.8773,508.877,4,6,38,4,1,partial,2,images/Ex15.jpg,right,nonreversed,easy,5,,,,,
,,,,,5e63e24eaf3bd51660031dbe,001,38,Male,US,Associates,2024-02-26_11h52.41.614,CRL1e,2023.2.3,Win32,119.047619,65dbad3905fde4fe1981dc61,65dccf745f40f0724e7a610a,,,,,,,,,,,508.8772,0.7,509.5771,509.5771,510.0957,left,1,0.5179,,510.0958,511.0954,4,7,39,0,1,partial,2,images/Ex13.jpg,left,nonreversed,easy,5,,,,,
,,,,,5e63e24eaf3bd51660031dbe,001,38,Male,US,Associates,2024-02-26_11h52.41.614,CRL1e,2023.2.3,Win32,119.047619,65dbad3905fde4fe1981dc61,65dccf745f40f0724e7a610a,,,,,,,,,,,511.0958,1.1,512.1896,512.1896,512.8354,left,1,0.6408,,512.8354,513.8359,5,0,40,7,1,partial,2,images/Ex16.jpg,left,reversed,easy,5,,,,,
,,,,,5e63e24eaf3bd51660031dbe,001,38,Male,US,Associates,2024-02-26_11h52.41.614,CRL1e,2023.2.3,Win32,119.047619,65dbad3905fde4fe1981dc61,65dccf745f40f0724e7a610a,,,,,,,,,,,513.8362,0.8,514.6358,514.6358,515.1356,right,1,0.4924,,515.1356,516.1358,5,1,41,3,1,partial,2,images/Ex14.jpg,right,reversed,easy,5,,,,,
,,,,,5e63e24eaf3bd51660031dbe,001,38,Male,US,Associates,2024-02-26_11h52.41.614,CRL1e,2023.2.3,Win32,119.047619,65dbad3905fde4fe1981dc61,65dccf745f40f0724e7a610a,,,,,,,,,,,516.1361,0.7,516.8361,516.8361,517.3629,right,0,0.5263,,517.3629,518.3604,5,2,42,6,1,partial,2,images/Ex16.jpg,left,reversed,easy,5,,,,,
,,,,,5e63e24eaf3bd51660031dbe,001,38,Male,US,Associates,2024-02-26_11h52.41.614,CRL1e,2023.2.3,Win32,119.047619,65dbad3905fde4fe1981dc61,65dccf745f40f0724e7a610a,,,,,,,,,,,518.3606,1.4,519.7634,519.7635,520.3372,left,1,0.5731,,520.3372,521.3356,5,3,43,0,1,partial,2,images/Ex13.jpg,left,nonreversed,easy,5,,,,,
,,,,,5e63e24eaf3bd51660031dbe,001,38,Male,US,Associates,2024-02-26_11h52.41.614,CRL1e,2023.2.3,Win32,119.047619,65dbad3905fde4fe1981dc61,65dccf745f40f0724e7a610a,,,,,,,,,,,521.336,0.6,521.94,521.94,522.4607,right,1,0.5151,,522.4607,523.4607,5,4,44,2,1,partial,2,images/Ex14.jpg,right,reversed,easy,5,,,,,
,,,,,5e63e24eaf3bd51660031dbe,001,38,Male,US,Associates,2024-02-26_11h52.41.614,CRL1e,2023.2.3,Win32,119.047619,65dbad3905fde4fe1981dc61,65dccf745f40f0724e7a610a,,,,,,,,,,,523.4613,0.9,524.3606,524.3606,524.8374,right,1,0.4758,,524.8374,525.8355,5,5,45,5,1,partial,2,images/Ex15.jpg,right,nonreversed,easy,5,,,,,
,,,,,5e63e24eaf3bd51660031dbe,001,38,Male,US,Associates,2024-02-26_11h52.41.614,CRL1e,2023.2.3,Win32,119.047619,65dbad3905fde4fe1981dc61,65dccf745f40f0724e7a610a,,,,,,,,,,,525.8356,1.2,527.0309,527.0309,527.5293,right,1,0.4979,,527.5293,528.5274,5,6,46,4,1,partial,2,images/Ex15.jpg,right,nonreversed,easy,5,,,,,
,,,,,5e63e24eaf3bd51660031dbe,001,38,Male,US,Associates,2024-02-26_11h52.41.614,CRL1e,2023.2.3,Win32,119.047619,65dbad3905fde4fe1981dc61,65dccf745f40f0724e7a610a,,,,,,,,,,,528.5278,1.5,530.0235,530.0235,530.4941,left,1,0.4654,,530.4942,531.4938,5,7,47,1,1,partial,2,images/Ex13.jpg,left,nonreversed,easy,5,,,,,
,,,,,5e63e24eaf3bd51660031dbe,001,38,Male,US,Associates,2024-02-26_11h52.41.614,CRL1e,2023.2.3,Win32,119.047619,65dbad3905fde4fe1981dc61,65dccf745f40f0724e7a610a,,,,,,,,,,,,,,,,,,,,,,,,,,,,,,,,,,531.4943,558.8444,space,27.327,