infCons.started,infCons.stopped,resp_consent.keys,resp_consent.rt,resp_consent.duration,participant,session,Age?,Gender?,Nationality?,Highest Educational Degree?,date,expName,psychopyVersion,OS,frameRate,STUDY_ID,SESSION_ID,instructions.started,instructions.stopped,resp_instructions.keys,resp_instructions.rt,resp_instructions.duration,nextTask.started,nextTask.stopped,ready_task.keys,ready_task.rt,ready_task.duration,fixation.started,ITI,fixation.stopped,stim.started,stim.stopped,response.keys,response.corr,response.rt,response.duration,feedback.started,feedback.stopped,trials.thisRepN,trials.thisTrialN,trials.thisN,trials.thisIndex,trials.ran,task,phase,Exemplars,r_correct,condition,difficulty,set,end.started,end.stopped,resp_end.keys,resp_end.rt,resp_end.duration
0.0003,25.7398,space,25.6191,,60282d2ffedb021342e2df15,001,22,female,british,college,2024-02-26_01h32.28.676,CRL1e,2023.2.3,Win32,10.01001001,65dbad3905fde4fe1981dc61,65dbea0f1a2dc71c38d69c25,,,,,,,,,,,,,,,,,,,,,,,,,,,,,,,,,,,,,,
,,,,,60282d2ffedb021342e2df15,001,22,female,british,college,2024-02-26_01h32.28.676,CRL1e,2023.2.3,Win32,10.01001001,65dbad3905fde4fe1981dc61,65dbea0f1a2dc71c38d69c25,25.74,38.3292,space,12.4594,,,,,,,,,,,,,,,,,,,,,,,,,,,,,,,,,,
,,,,,60282d2ffedb021342e2df15,001,22,female,british,college,2024-02-26_01h32.28.676,CRL1e,2023.2.3,Win32,10.01001001,65dbad3905fde4fe1981dc61,65dbea0f1a2dc71c38d69c25,,,,,,38.3375,52.3567,space,13.8498,,52.3714,1,53.3989,53.399,55.4102,left,1,2.0043,,55.4105,56.3437,0,0,0,3,1,total,1,images/Ex2.jpg,left,training,easy,1,,,,,
,,,,,60282d2ffedb021342e2df15,001,22,female,british,college,2024-02-26_01h32.28.676,CRL1e,2023.2.3,Win32,10.01001001,65dbad3905fde4fe1981dc61,65dbea0f1a2dc71c38d69c25,,,,,,,,,,,56.3452,1.2,57.4799,57.4799,58.6968,right,0,1.2155,,58.6968,59.7068,0,1,1,1,1,total,1,images/Ex1.jpg,left,training,easy,1,,,,,
,,,,,60282d2ffedb021342e2df15,001,22,female,british,college,2024-02-26_01h32.28.676,CRL1e,2023.2.3,Win32,10.01001001,65dbad3905fde4fe1981dc61,65dbea0f1a2dc71c38d69c25,,,,,,,,,,,59.7071,1,60.7002,60.7002,61.4662,left,0,0.7647,,61.4662,62.3854,0,2,2,4,1,total,1,images/Ex3.jpg,right,training,easy,1,,,,,
,,,,,60282d2ffedb021342e2df15,001,22,female,british,college,2024-02-26_01h32.28.676,CRL1e,2023.2.3,Win32,10.01001001,65dbad3905fde4fe1981dc61,65dbea0f1a2dc71c38d69c25,,,,,,,,,,,62.3859,1.3,63.6234,63.6234,64.7825,right,0,1.1583,,64.7825,65.7079,0,3,3,0,1,total,1,images/Ex1.jpg,left,training,easy,1,,,,,
,,,,,60282d2ffedb021342e2df15,001,22,female,british,college,2024-02-26_01h32.28.676,CRL1e,2023.2.3,Win32,10.01001001,65dbad3905fde4fe1981dc61,65dbea0f1a2dc71c38d69c25,,,,,,,,,,,65.7082,0.7,66.3564,66.3564,67.9523,right,1,1.5947,,67.9524,68.8912,0,4,4,5,1,total,1,images/Ex3.jpg,right,training,easy,1,,,,,
,,,,,60282d2ffedb021342e2df15,001,22,female,british,college,2024-02-26_01h32.28.676,CRL1e,2023.2.3,Win32,10.01001001,65dbad3905fde4fe1981dc61,65dbea0f1a2dc71c38d69c25,,,,,,,,,,,68.8915,0.6,69.4052,69.4052,70.4366,left,1,1.0302,,70.4367,71.3827,0,5,5,2,1,total,1,images/Ex2.jpg,left,training,easy,1,,,,,
,,,,,60282d2ffedb021342e2df15,001,22,female,british,college,2024-02-26_01h32.28.676,CRL1e,2023.2.3,Win32,10.01001001,65dbad3905fde4fe1981dc61,65dbea0f1a2dc71c38d69c25,,,,,,,,,,,71.383,1.1,72.4721,72.4721,73.5341,right,1,1.0609,,73.5341,74.4324,0,6,6,7,1,total,1,images/Ex4.jpg,right,training,easy,1,,,,,
,,,,,60282d2ffedb021342e2df15,001,22,female,british,college,2024-02-26_01h32.28.676,CRL1e,2023.2.3,Win32,10.01001001,65dbad3905fde4fe1981dc61,65dbea0f1a2dc71c38d69c25,,,,,,,,,,,74.4328,0.5,74.9591,74.9591,75.6922,right,1,0.7322,,75.6923,76.6085,0,7,7,6,1,total,1,images/Ex4.jpg,right,training,easy,1,,,,,
,,,,,60282d2ffedb021342e2df15,001,22,female,british,college,2024-02-26_01h32.28.676,CRL1e,2023.2.3,Win32,10.01001001,65dbad3905fde4fe1981dc61,65dbea0f1a2dc71c38d69c25,,,,,,,,,,,76.6089,0.9,77.5146,77.5147,78.6829,right,0,1.1671,,78.6831,79.6116,1,0,8,1,1,total,1,images/Ex1.jpg,left,training,easy,1,,,,,
,,,,,60282d2ffedb021342e2df15,001,22,female,british,college,2024-02-26_01h32.28.676,CRL1e,2023.2.3,Win32,10.01001001,65dbad3905fde4fe1981dc61,65dbea0f1a2dc71c38d69c25,,,,,,,,,,,79.612,0.9,80.5232,80.5233,82.6967,left,1,2.1726,,82.6968,83.6558,1,1,9,3,1,total,1,images/Ex2.jpg,left,training,easy,1,,,,,
,,,,,60282d2ffedb021342e2df15,001,22,female,british,college,2024-02-26_01h32.28.676,CRL1e,2023.2.3,Win32,10.01001001,65dbad3905fde4fe1981dc61,65dbea0f1a2dc71c38d69c25,,,,,,,,,,,83.656,1.3,84.9732,84.9732,86.288,right,1,1.3136,,86.2881,87.3283,1,2,10,4,1,total,1,images/Ex3.jpg,right,training,easy,1,,,,,
,,,,,60282d2ffedb021342e2df15,001,22,female,british,college,2024-02-26_01h32.28.676,CRL1e,2023.2.3,Win32,10.01001001,65dbad3905fde4fe1981dc61,65dbea0f1a2dc71c38d69c25,,,,,,,,,,,87.3287,1.5,88.8032,88.8032,90.1728,left,0,1.3683,,90.1729,91.0911,1,3,11,7,1,total,1,images/Ex4.jpg,right,training,easy,1,,,,,
,,,,,60282d2ffedb021342e2df15,001,22,female,british,college,2024-02-26_01h32.28.676,CRL1e,2023.2.3,Win32,10.01001001,65dbad3905fde4fe1981dc61,65dbea0f1a2dc71c38d69c25,,,,,,,,,,,91.0914,0.7,91.7468,91.7469,93.1904,left,1,1.4427,,93.1905,94.1274,1,4,12,2,1,total,1,images/Ex2.jpg,left,training,easy,1,,,,,
,,,,,60282d2ffedb021342e2df15,001,22,female,british,college,2024-02-26_01h32.28.676,CRL1e,2023.2.3,Win32,10.01001001,65dbad3905fde4fe1981dc61,65dbea0f1a2dc71c38d69c25,,,,,,,,,,,94.1278,1.3,95.4367,95.4368,96.4792,right,1,1.0414,,96.4792,97.4998,1,5,13,5,1,total,1,images/Ex3.jpg,right,training,easy,1,,,,,
,,,,,60282d2ffedb021342e2df15,001,22,female,british,college,2024-02-26_01h32.28.676,CRL1e,2023.2.3,Win32,10.01001001,65dbad3905fde4fe1981dc61,65dbea0f1a2dc71c38d69c25,,,,,,,,,,,97.5003,0.8,98.3026,98.3026,101.0501,left,1,2.7462,,101.0501,101.9929,1,6,14,0,1,total,1,images/Ex1.jpg,left,training,easy,1,,,,,
,,,,,60282d2ffedb021342e2df15,001,22,female,british,college,2024-02-26_01h32.28.676,CRL1e,2023.2.3,Win32,10.01001001,65dbad3905fde4fe1981dc61,65dbea0f1a2dc71c38d69c25,,,,,,,,,,,101.9932,1.3,103.2363,103.2363,104.2137,right,1,0.9766,,104.2137,105.2423,1,7,15,6,1,total,1,images/Ex4.jpg,right,training,easy,1,,,,,
,,,,,60282d2ffedb021342e2df15,001,22,female,british,college,2024-02-26_01h32.28.676,CRL1e,2023.2.3,Win32,10.01001001,65dbad3905fde4fe1981dc61,65dbea0f1a2dc71c38d69c25,,,,,,,,,,,105.2427,0.6,105.8202,105.8202,107.574,right,1,1.7531,,107.574,108.5113,2,0,16,7,1,total,1,images/Ex4.jpg,right,training,easy,1,,,,,
,,,,,60282d2ffedb021342e2df15,001,22,female,british,college,2024-02-26_01h32.28.676,CRL1e,2023.2.3,Win32,10.01001001,65dbad3905fde4fe1981dc61,65dbea0f1a2dc71c38d69c25,,,,,,,,,,,108.5117,0.6,109.0501,109.0501,110.6891,right,1,1.6379,,110.6891,111.6844,2,1,17,6,1,total,1,images/Ex4.jpg,right,training,easy,1,,,,,
,,,,,60282d2ffedb021342e2df15,001,22,female,british,college,2024-02-26_01h32.28.676,CRL1e,2023.2.3,Win32,10.01001001,65dbad3905fde4fe1981dc61,65dbea0f1a2dc71c38d69c25,,,,,,,,,,,111.6955,0.6,112.2311,112.2313,114.8333,left,1,2.6011,,114.8333,115.771,2,2,18,0,1,total,1,images/Ex1.jpg,left,training,easy,1,,,,,
,,,,,60282d2ffedb021342e2df15,001,22,female,british,college,2024-02-26_01h32.28.676,CRL1e,2023.2.3,Win32,10.01001001,65dbad3905fde4fe1981dc61,65dbea0f1a2dc71c38d69c25,,,,,,,,,,,115.7714,1,116.6762,116.6762,117.5577,left,1,0.8806,,117.5578,118.4884,2,3,19,1,1,total,1,images/Ex1.jpg,left,training,easy,1,,,,,
,,,,,60282d2ffedb021342e2df15,001,22,female,british,college,2024-02-26_01h32.28.676,CRL1e,2023.2.3,Win32,10.01001001,65dbad3905fde4fe1981dc61,65dbea0f1a2dc71c38d69c25,,,,,,,,,,,118.4888,1.3,119.6764,119.6764,120.6188,right,1,0.9411,,120.6191,121.5514,2,4,20,4,1,total,1,images/Ex3.jpg,right,training,easy,1,,,,,
,,,,,60282d2ffedb021342e2df15,001,22,female,british,college,2024-02-26_01h32.28.676,CRL1e,2023.2.3,Win32,10.01001001,65dbad3905fde4fe1981dc61,65dbea0f1a2dc71c38d69c25,,,,,,,,,,,121.5517,0.6,122.0744,122.0744,122.7987,right,1,0.7236,,122.7988,123.7255,2,5,21,5,1,total,1,images/Ex3.jpg,right,training,easy,1,,,,,
,,,,,60282d2ffedb021342e2df15,001,22,female,british,college,2024-02-26_01h32.28.676,CRL1e,2023.2.3,Win32,10.01001001,65dbad3905fde4fe1981dc61,65dbea0f1a2dc71c38d69c25,,,,,,,,,,,123.7258,1.2,124.8982,124.8983,125.9107,left,1,1.0113,,125.9107,126.8553,2,6,22,3,1,total,1,images/Ex2.jpg,left,training,easy,1,,,,,
,,,,,60282d2ffedb021342e2df15,001,22,female,british,college,2024-02-26_01h32.28.676,CRL1e,2023.2.3,Win32,10.01001001,65dbad3905fde4fe1981dc61,65dbea0f1a2dc71c38d69c25,,,,,,,,,,,126.8557,0.6,127.3706,127.3706,128.3872,left,1,1.0158,,128.3873,129.3194,2,7,23,2,1,total,1,images/Ex2.jpg,left,training,easy,1,,,,,
,,,,,60282d2ffedb021342e2df15,001,22,female,british,college,2024-02-26_01h32.28.676,CRL1e,2023.2.3,Win32,10.01001001,65dbad3905fde4fe1981dc61,65dbea0f1a2dc71c38d69c25,,,,,,,,,,,129.3197,0.8,130.0969,130.0969,131.1118,left,1,1.014,,131.1118,132.0612,3,0,24,0,1,total,1,images/Ex1.jpg,left,training,easy,1,,,,,
,,,,,60282d2ffedb021342e2df15,001,22,female,british,college,2024-02-26_01h32.28.676,CRL1e,2023.2.3,Win32,10.01001001,65dbad3905fde4fe1981dc61,65dbea0f1a2dc71c38d69c25,,,,,,,,,,,132.0616,1.3,133.3741,133.3742,134.1004,left,1,0.7255,,134.1005,135.0328,3,1,25,1,1,total,1,images/Ex1.jpg,left,training,easy,1,,,,,
,,,,,60282d2ffedb021342e2df15,001,22,female,british,college,2024-02-26_01h32.28.676,CRL1e,2023.2.3,Win32,10.01001001,65dbad3905fde4fe1981dc61,65dbea0f1a2dc71c38d69c25,,,,,,,,,,,135.0331,1.4,136.4722,136.4722,137.3504,left,0,0.8769,,137.3505,138.2688,3,2,26,7,1,total,1,images/Ex4.jpg,right,training,easy,1,,,,,
,,,,,60282d2ffedb021342e2df15,001,22,female,british,college,2024-02-26_01h32.28.676,CRL1e,2023.2.3,Win32,10.01001001,65dbad3905fde4fe1981dc61,65dbea0f1a2dc71c38d69c25,,,,,,,,,,,138.269,0.6,138.7968,138.7968,139.6673,right,1,0.8695,,139.6673,140.5956,3,3,27,4,1,total,1,images/Ex3.jpg,right,training,easy,1,,,,,
,,,,,60282d2ffedb021342e2df15,001,22,female,british,college,2024-02-26_01h32.28.676,CRL1e,2023.2.3,Win32,10.01001001,65dbad3905fde4fe1981dc61,65dbea0f1a2dc71c38d69c25,,,,,,,,,,,140.5959,1.3,141.8892,141.8892,142.7656,left,1,0.8753,,142.7657,143.7361,3,4,28,3,1,total,1,images/Ex2.jpg,left,training,easy,1,,,,,
,,,,,60282d2ffedb021342e2df15,001,22,female,british,college,2024-02-26_01h32.28.676,CRL1e,2023.2.3,Win32,10.01001001,65dbad3905fde4fe1981dc61,65dbea0f1a2dc71c38d69c25,,,,,,,,,,,143.7363,1.3,144.9966,144.9966,146.4949,right,1,1.4972,,146.4949,147.5007,3,5,29,5,1,total,1,images/Ex3.jpg,right,training,easy,1,,,,,
,,,,,60282d2ffedb021342e2df15,001,22,female,british,college,2024-02-26_01h32.28.676,CRL1e,2023.2.3,Win32,10.01001001,65dbad3905fde4fe1981dc61,65dbea0f1a2dc71c38d69c25,,,,,,,,,,,147.5106,0.7,148.1553,148.1554,149.1581,left,1,1.0019,,149.1582,150.0885,3,6,30,2,1,total,1,images/Ex2.jpg,left,training,easy,1,,,,,
,,,,,60282d2ffedb021342e2df15,001,22,female,british,college,2024-02-26_01h32.28.676,CRL1e,2023.2.3,Win32,10.01001001,65dbad3905fde4fe1981dc61,65dbea0f1a2dc71c38d69c25,,,,,,,,,,,150.0889,0.7,150.7401,150.7401,151.7493,right,1,1.0083,,151.7493,152.6915,3,7,31,6,1,total,1,images/Ex4.jpg,right,training,easy,1,,,,,
,,,,,60282d2ffedb021342e2df15,001,22,female,british,college,2024-02-26_01h32.28.676,CRL1e,2023.2.3,Win32,10.01001001,65dbad3905fde4fe1981dc61,65dbea0f1a2dc71c38d69c25,,,,,,,,,,,152.6919,0.7,153.3495,153.3496,154.4971,right,1,1.1468,,154.4972,155.4199,4,0,32,6,1,total,1,images/Ex4.jpg,right,training,easy,1,,,,,
,,,,,60282d2ffedb021342e2df15,001,22,female,british,college,2024-02-26_01h32.28.676,CRL1e,2023.2.3,Win32,10.01001001,65dbad3905fde4fe1981dc61,65dbea0f1a2dc71c38d69c25,,,,,,,,,,,155.4202,1.4,156.8448,156.8448,158.1806,right,1,1.3347,,158.1807,159.1768,4,1,33,4,1,total,1,images/Ex3.jpg,right,training,easy,1,,,,,
,,,,,60282d2ffedb021342e2df15,001,22,female,british,college,2024-02-26_01h32.28.676,CRL1e,2023.2.3,Win32,10.01001001,65dbad3905fde4fe1981dc61,65dbea0f1a2dc71c38d69c25,,,,,,,,,,,159.1771,0.8,159.9906,159.9906,161.0208,left,1,1.0291,,161.0208,161.9402,4,2,34,3,1,total,1,images/Ex2.jpg,left,training,easy,1,,,,,
,,,,,60282d2ffedb021342e2df15,001,22,female,british,college,2024-02-26_01h32.28.676,CRL1e,2023.2.3,Win32,10.01001001,65dbad3905fde4fe1981dc61,65dbea0f1a2dc71c38d69c25,,,,,,,,,,,161.9405,0.6,162.522,162.522,164.1831,right,0,1.6601,,164.1832,165.2075,4,3,35,0,1,total,1,images/Ex1.jpg,left,training,easy,1,,,,,
,,,,,60282d2ffedb021342e2df15,001,22,female,british,college,2024-02-26_01h32.28.676,CRL1e,2023.2.3,Win32,10.01001001,65dbad3905fde4fe1981dc61,65dbea0f1a2dc71c38d69c25,,,,,,,,,,,165.2078,0.8,166.0103,166.0104,166.7349,left,0,0.7239,,166.7349,167.6538,4,4,36,5,1,total,1,images/Ex3.jpg,right,training,easy,1,,,,,
,,,,,60282d2ffedb021342e2df15,001,22,female,british,college,2024-02-26_01h32.28.676,CRL1e,2023.2.3,Win32,10.01001001,65dbad3905fde4fe1981dc61,65dbea0f1a2dc71c38d69c25,,,,,,,,,,,167.6541,1,168.6184,168.6185,169.6783,right,1,1.059,,169.6784,170.6438,4,5,37,7,1,total,1,images/Ex4.jpg,right,training,easy,1,,,,,
,,,,,60282d2ffedb021342e2df15,001,22,female,british,college,2024-02-26_01h32.28.676,CRL1e,2023.2.3,Win32,10.01001001,65dbad3905fde4fe1981dc61,65dbea0f1a2dc71c38d69c25,,,,,,,,,,,170.6441,0.8,171.4266,171.4266,172.294,left,1,0.8666,,172.2942,173.2251,4,6,38,1,1,total,1,images/Ex1.jpg,left,training,easy,1,,,,,
,,,,,60282d2ffedb021342e2df15,001,22,female,british,college,2024-02-26_01h32.28.676,CRL1e,2023.2.3,Win32,10.01001001,65dbad3905fde4fe1981dc61,65dbea0f1a2dc71c38d69c25,,,,,,,,,,,173.2254,1.4,174.532,174.5321,175.4258,left,1,0.8927,,175.4258,176.3613,4,7,39,2,1,total,1,images/Ex2.jpg,left,training,easy,1,,,,,
,,,,,60282d2ffedb021342e2df15,001,22,female,british,college,2024-02-26_01h32.28.676,CRL1e,2023.2.3,Win32,10.01001001,65dbad3905fde4fe1981dc61,65dbea0f1a2dc71c38d69c25,,,,,,,,,,,176.3618,1.1,177.4036,177.4036,178.2679,left,0,0.8632,,178.2679,179.185,5,0,40,7,1,total,1,images/Ex4.jpg,right,training,easy,1,,,,,
,,,,,60282d2ffedb021342e2df15,001,22,female,british,college,2024-02-26_01h32.28.676,CRL1e,2023.2.3,Win32,10.01001001,65dbad3905fde4fe1981dc61,65dbea0f1a2dc71c38d69c25,,,,,,,,,,,179.1854,0.9,180.0945,180.0945,180.9707,right,0,0.8753,,180.9708,181.8942,5,1,41,1,1,total,1,images/Ex1.jpg,left,training,easy,1,,,,,
,,,,,60282d2ffedb021342e2df15,001,22,female,british,college,2024-02-26_01h32.28.676,CRL1e,2023.2.3,Win32,10.01001001,65dbad3905fde4fe1981dc61,65dbea0f1a2dc71c38d69c25,,,,,,,,,,,181.8946,0.8,182.6795,182.6795,183.6781,left,0,0.9975,,183.6782,184.5962,5,2,42,5,1,total,1,images/Ex3.jpg,right,training,easy,1,,,,,
,,,,,60282d2ffedb021342e2df15,001,22,female,british,college,2024-02-26_01h32.28.676,CRL1e,2023.2.3,Win32,10.01001001,65dbad3905fde4fe1981dc61,65dbea0f1a2dc71c38d69c25,,,,,,,,,,,184.5965,1.1,185.6399,185.64,186.8089,left,1,1.1682,,186.8089,187.7321,5,3,43,0,1,total,1,images/Ex1.jpg,left,training,easy,1,,,,,
,,,,,60282d2ffedb021342e2df15,001,22,female,british,college,2024-02-26_01h32.28.676,CRL1e,2023.2.3,Win32,10.01001001,65dbad3905fde4fe1981dc61,65dbea0f1a2dc71c38d69c25,,,,,,,,,,,187.7324,1.4,189.0342,189.0342,190.0649,right,1,1.0299,,190.065,191.0067,5,4,44,4,1,total,1,images/Ex3.jpg,right,training,easy,1,,,,,
,,,,,60282d2ffedb021342e2df15,001,22,female,british,college,2024-02-26_01h32.28.676,CRL1e,2023.2.3,Win32,10.01001001,65dbad3905fde4fe1981dc61,65dbea0f1a2dc71c38d69c25,,,,,,,,,,,191.007,0.6,191.5382,191.5383,192.5422,left,1,1.0028,,192.5424,193.4693,5,5,45,3,1,total,1,images/Ex2.jpg,left,training,easy,1,,,,,
,,,,,60282d2ffedb021342e2df15,001,22,female,british,college,2024-02-26_01h32.28.676,CRL1e,2023.2.3,Win32,10.01001001,65dbad3905fde4fe1981dc61,65dbea0f1a2dc71c38d69c25,,,,,,,,,,,193.4697,1.3,194.7754,194.7754,195.4993,left,1,0.723,,195.4993,196.4324,5,6,46,2,1,total,1,images/Ex2.jpg,left,training,easy,1,,,,,
,,,,,60282d2ffedb021342e2df15,001,22,female,british,college,2024-02-26_01h32.28.676,CRL1e,2023.2.3,Win32,10.01001001,65dbad3905fde4fe1981dc61,65dbea0f1a2dc71c38d69c25,,,,,,,,,,,196.4327,1.5,197.8689,197.869,198.7487,right,1,0.8788,,198.7487,199.6892,5,7,47,6,1,total,1,images/Ex4.jpg,right,training,easy,1,,,,,
,,,,,60282d2ffedb021342e2df15,001,22,female,british,college,2024-02-26_01h32.28.676,CRL1e,2023.2.3,Win32,10.01001001,65dbad3905fde4fe1981dc61,65dbea0f1a2dc71c38d69c25,,,,,,,,,,,199.6923,1.3,200.9925,200.9926,203.6315,left,0,2.638,,203.6315,204.5569,0,0,0,1,1,total,2,images/Ex1.jpg,right,reversed,easy,1,,,,,
,,,,,60282d2ffedb021342e2df15,001,22,female,british,college,2024-02-26_01h32.28.676,CRL1e,2023.2.3,Win32,10.01001001,65dbad3905fde4fe1981dc61,65dbea0f1a2dc71c38d69c25,,,,,,,,,,,204.5573,1.1,205.5775,205.5775,206.5401,left,0,0.9612,,206.5401,207.5526,0,1,1,3,1,total,2,images/Ex2.jpg,right,reversed,easy,1,,,,,
,,,,,60282d2ffedb021342e2df15,001,22,female,british,college,2024-02-26_01h32.28.676,CRL1e,2023.2.3,Win32,10.01001001,65dbad3905fde4fe1981dc61,65dbea0f1a2dc71c38d69c25,,,,,,,,,,,207.5529,1.2,208.6778,208.6778,209.6919,right,1,1.0133,,209.692,210.6241,0,2,2,2,1,total,2,images/Ex2.jpg,right,reversed,easy,1,,,,,
,,,,,60282d2ffedb021342e2df15,001,22,female,british,college,2024-02-26_01h32.28.676,CRL1e,2023.2.3,Win32,10.01001001,65dbad3905fde4fe1981dc61,65dbea0f1a2dc71c38d69c25,,,,,,,,,,,210.6244,0.7,211.2755,211.2755,212.1448,left,1,0.8683,,212.1449,213.066,0,3,3,6,1,total,2,images/Ex4.jpg,left,reversed,easy,1,,,,,
,,,,,60282d2ffedb021342e2df15,001,22,female,british,college,2024-02-26_01h32.28.676,CRL1e,2023.2.3,Win32,10.01001001,65dbad3905fde4fe1981dc61,65dbea0f1a2dc71c38d69c25,,,,,,,,,,,213.0662,0.7,213.7669,213.767,214.7835,right,1,1.0157,,214.7836,215.7098,0,4,4,0,1,total,2,images/Ex1.jpg,right,reversed,easy,1,,,,,
,,,,,60282d2ffedb021342e2df15,001,22,female,british,college,2024-02-26_01h32.28.676,CRL1e,2023.2.3,Win32,10.01001001,65dbad3905fde4fe1981dc61,65dbea0f1a2dc71c38d69c25,,,,,,,,,,,215.7101,1.3,217.018,217.0181,217.8331,left,1,0.8136,,217.8332,218.8216,0,5,5,5,1,total,2,images/Ex3.jpg,left,reversed,easy,1,,,,,
,,,,,60282d2ffedb021342e2df15,001,22,female,british,college,2024-02-26_01h32.28.676,CRL1e,2023.2.3,Win32,10.01001001,65dbad3905fde4fe1981dc61,65dbea0f1a2dc71c38d69c25,,,,,,,,,,,218.8222,0.5,219.2868,219.2868,220.015,left,1,0.7277,,220.0151,220.9611,0,6,6,4,1,total,2,images/Ex3.jpg,left,reversed,easy,1,,,,,
,,,,,60282d2ffedb021342e2df15,001,22,female,british,college,2024-02-26_01h32.28.676,CRL1e,2023.2.3,Win32,10.01001001,65dbad3905fde4fe1981dc61,65dbea0f1a2dc71c38d69c25,,,,,,,,,,,220.9615,0.9,221.8296,221.8297,222.6845,right,0,0.8537,,222.6846,223.7126,0,7,7,7,1,total,2,images/Ex4.jpg,left,reversed,easy,1,,,,,
,,,,,60282d2ffedb021342e2df15,001,22,female,british,college,2024-02-26_01h32.28.676,CRL1e,2023.2.3,Win32,10.01001001,65dbad3905fde4fe1981dc61,65dbea0f1a2dc71c38d69c25,,,,,,,,,,,223.713,0.9,224.5572,224.5572,225.2874,left,0,0.7293,,225.2875,226.2295,1,0,8,0,1,total,2,images/Ex1.jpg,right,reversed,easy,1,,,,,
,,,,,60282d2ffedb021342e2df15,001,22,female,british,college,2024-02-26_01h32.28.676,CRL1e,2023.2.3,Win32,10.01001001,65dbad3905fde4fe1981dc61,65dbea0f1a2dc71c38d69c25,,,,,,,,,,,226.2298,1.3,227.5315,227.5315,228.4083,left,1,0.8759,,228.4084,229.3341,1,1,9,7,1,total,2,images/Ex4.jpg,left,reversed,easy,1,,,,,
,,,,,60282d2ffedb021342e2df15,001,22,female,british,college,2024-02-26_01h32.28.676,CRL1e,2023.2.3,Win32,10.01001001,65dbad3905fde4fe1981dc61,65dbea0f1a2dc71c38d69c25,,,,,,,,,,,229.3344,1.4,230.6351,230.6351,231.4204,left,0,0.7842,,231.4204,232.3472,1,2,10,2,1,total,2,images/Ex2.jpg,right,reversed,easy,1,,,,,
,,,,,60282d2ffedb021342e2df15,001,22,female,british,college,2024-02-26_01h32.28.676,CRL1e,2023.2.3,Win32,10.01001001,65dbad3905fde4fe1981dc61,65dbea0f1a2dc71c38d69c25,,,,,,,,,,,232.3475,1,233.2562,233.2562,233.9807,right,1,0.7237,,233.9808,234.8977,1,3,11,3,1,total,2,images/Ex2.jpg,right,reversed,easy,1,,,,,
,,,,,60282d2ffedb021342e2df15,001,22,female,british,college,2024-02-26_01h32.28.676,CRL1e,2023.2.3,Win32,10.01001001,65dbad3905fde4fe1981dc61,65dbea0f1a2dc71c38d69c25,,,,,,,,,,,234.8981,1.4,236.2047,236.2048,237.3729,left,1,1.167,,237.3729,238.3293,1,4,12,6,1,total,2,images/Ex4.jpg,left,reversed,easy,1,,,,,
,,,,,60282d2ffedb021342e2df15,001,22,female,british,college,2024-02-26_01h32.28.676,CRL1e,2023.2.3,Win32,10.01001001,65dbad3905fde4fe1981dc61,65dbea0f1a2dc71c38d69c25,,,,,,,,,,,238.3295,1.1,239.3792,239.3792,243.8737,right,0,4.4936,,243.8738,244.8131,1,5,13,4,1,total,2,images/Ex3.jpg,left,reversed,easy,1,,,,,
,,,,,60282d2ffedb021342e2df15,001,22,female,british,college,2024-02-26_01h32.28.676,CRL1e,2023.2.3,Win32,10.01001001,65dbad3905fde4fe1981dc61,65dbea0f1a2dc71c38d69c25,,,,,,,,,,,244.8247,0.6,245.3381,245.3381,246.3514,left,0,1.0121,,246.3515,247.2696,1,6,14,1,1,total,2,images/Ex1.jpg,right,reversed,easy,1,,,,,
,,,,,60282d2ffedb021342e2df15,001,22,female,british,college,2024-02-26_01h32.28.676,CRL1e,2023.2.3,Win32,10.01001001,65dbad3905fde4fe1981dc61,65dbea0f1a2dc71c38d69c25,,,,,,,,,,,247.2699,0.8,248.064,248.064,248.9295,right,0,0.8646,,248.9295,249.8682,1,7,15,5,1,total,2,images/Ex3.jpg,left,reversed,easy,1,,,,,
,,,,,60282d2ffedb021342e2df15,001,22,female,british,college,2024-02-26_01h32.28.676,CRL1e,2023.2.3,Win32,10.01001001,65dbad3905fde4fe1981dc61,65dbea0f1a2dc71c38d69c25,,,,,,,,,,,249.8688,0.7,250.5734,250.5734,251.4598,left,1,0.8856,,251.4598,252.398,2,0,16,5,1,total,2,images/Ex3.jpg,left,reversed,easy,1,,,,,
,,,,,60282d2ffedb021342e2df15,001,22,female,british,college,2024-02-26_01h32.28.676,CRL1e,2023.2.3,Win32,10.01001001,65dbad3905fde4fe1981dc61,65dbea0f1a2dc71c38d69c25,,,,,,,,,,,252.3983,0.6,252.9217,252.9217,254.2194,right,1,1.2968,,254.2195,255.1642,2,1,17,3,1,total,2,images/Ex2.jpg,right,reversed,easy,1,,,,,
,,,,,60282d2ffedb021342e2df15,001,22,female,british,college,2024-02-26_01h32.28.676,CRL1e,2023.2.3,Win32,10.01001001,65dbad3905fde4fe1981dc61,65dbea0f1a2dc71c38d69c25,,,,,,,,,,,255.1645,1,256.0747,256.0747,256.9447,left,1,0.8691,,256.9447,257.8759,2,2,18,7,1,total,2,images/Ex4.jpg,left,reversed,easy,1,,,,,
,,,,,60282d2ffedb021342e2df15,001,22,female,british,college,2024-02-26_01h32.28.676,CRL1e,2023.2.3,Win32,10.01001001,65dbad3905fde4fe1981dc61,65dbea0f1a2dc71c38d69c25,,,,,,,,,,,257.8763,0.9,258.7902,258.7903,260.8315,right,1,2.0402,,260.8316,261.7575,2,3,19,0,1,total,2,images/Ex1.jpg,right,reversed,easy,1,,,,,
,,,,,60282d2ffedb021342e2df15,001,22,female,british,college,2024-02-26_01h32.28.676,CRL1e,2023.2.3,Win32,10.01001001,65dbad3905fde4fe1981dc61,65dbea0f1a2dc71c38d69c25,,,,,,,,,,,261.7578,0.6,262.2768,262.2769,263.1477,right,1,0.87,,263.1477,264.0743,2,4,20,1,1,total,2,images/Ex1.jpg,right,reversed,easy,1,,,,,
,,,,,60282d2ffedb021342e2df15,001,22,female,british,college,2024-02-26_01h32.28.676,CRL1e,2023.2.3,Win32,10.01001001,65dbad3905fde4fe1981dc61,65dbea0f1a2dc71c38d69c25,,,,,,,,,,,264.0746,1.1,265.123,265.1231,266.1405,left,1,1.0163,,266.1405,267.0722,2,5,21,6,1,total,2,images/Ex4.jpg,left,reversed,easy,1,,,,,
,,,,,60282d2ffedb021342e2df15,001,22,female,british,college,2024-02-26_01h32.28.676,CRL1e,2023.2.3,Win32,10.01001001,65dbad3905fde4fe1981dc61,65dbea0f1a2dc71c38d69c25,,,,,,,,,,,267.0725,1.1,268.1177,268.1177,269.0398,right,1,0.921,,269.0399,269.9877,2,6,22,2,1,total,2,images/Ex2.jpg,right,reversed,easy,1,,,,,
,,,,,60282d2ffedb021342e2df15,001,22,female,british,college,2024-02-26_01h32.28.676,CRL1e,2023.2.3,Win32,10.01001001,65dbad3905fde4fe1981dc61,65dbea0f1a2dc71c38d69c25,,,,,,,,,,,269.9879,1.1,271.0475,271.0475,272.0632,left,1,1.0147,,272.0633,273.0024,2,7,23,4,1,total,2,images/Ex3.jpg,left,reversed,easy,1,,,,,
,,,,,60282d2ffedb021342e2df15,001,22,female,british,college,2024-02-26_01h32.28.676,CRL1e,2023.2.3,Win32,10.01001001,65dbad3905fde4fe1981dc61,65dbea0f1a2dc71c38d69c25,,,,,,,,,,,273.0028,1.5,274.4467,274.4468,275.3189,right,1,0.8713,,275.3189,276.2513,3,0,24,3,1,total,2,images/Ex2.jpg,right,reversed,easy,1,,,,,
,,,,,60282d2ffedb021342e2df15,001,22,female,british,college,2024-02-26_01h32.28.676,CRL1e,2023.2.3,Win32,10.01001001,65dbad3905fde4fe1981dc61,65dbea0f1a2dc71c38d69c25,,,,,,,,,,,276.2517,0.6,276.773,276.773,277.9068,left,1,1.1326,,277.9068,278.8286,3,1,25,5,1,total,2,images/Ex3.jpg,left,reversed,easy,1,,,,,
,,,,,60282d2ffedb021342e2df15,001,22,female,british,college,2024-02-26_01h32.28.676,CRL1e,2023.2.3,Win32,10.01001001,65dbad3905fde4fe1981dc61,65dbea0f1a2dc71c38d69c25,,,,,,,,,,,278.829,1,279.7417,279.7417,280.7928,left,1,1.05,,280.7928,281.7813,3,2,26,7,1,total,2,images/Ex4.jpg,left,reversed,easy,1,,,,,
,,,,,60282d2ffedb021342e2df15,001,22,female,british,college,2024-02-26_01h32.28.676,CRL1e,2023.2.3,Win32,10.01001001,65dbad3905fde4fe1981dc61,65dbea0f1a2dc71c38d69c25,,,,,,,,,,,281.7816,0.8,282.507,282.507,283.3826,left,1,0.8744,,283.3826,284.3099,3,3,27,4,1,total,2,images/Ex3.jpg,left,reversed,easy,1,,,,,
,,,,,60282d2ffedb021342e2df15,001,22,female,british,college,2024-02-26_01h32.28.676,CRL1e,2023.2.3,Win32,10.01001001,65dbad3905fde4fe1981dc61,65dbea0f1a2dc71c38d69c25,,,,,,,,,,,284.3102,1.1,285.3664,285.3664,286.2327,right,1,0.8653,,286.2327,287.16,3,4,28,1,1,total,2,images/Ex1.jpg,right,reversed,easy,1,,,,,
,,,,,60282d2ffedb021342e2df15,001,22,female,british,college,2024-02-26_01h32.28.676,CRL1e,2023.2.3,Win32,10.01001001,65dbad3905fde4fe1981dc61,65dbea0f1a2dc71c38d69c25,,,,,,,,,,,287.1602,0.9,288.0818,288.0818,288.9617,left,1,0.8789,,288.9618,289.8988,3,5,29,6,1,total,2,images/Ex4.jpg,left,reversed,easy,1,,,,,
,,,,,60282d2ffedb021342e2df15,001,22,female,british,college,2024-02-26_01h32.28.676,CRL1e,2023.2.3,Win32,10.01001001,65dbad3905fde4fe1981dc61,65dbea0f1a2dc71c38d69c25,,,,,,,,,,,289.8991,0.7,290.5532,290.5532,291.4164,right,1,0.8622,,291.4165,292.3501,3,6,30,2,1,total,2,images/Ex2.jpg,right,reversed,easy,1,,,,,
,,,,,60282d2ffedb021342e2df15,001,22,female,british,college,2024-02-26_01h32.28.676,CRL1e,2023.2.3,Win32,10.01001001,65dbad3905fde4fe1981dc61,65dbea0f1a2dc71c38d69c25,,,,,,,,,,,292.3505,0.8,293.1576,293.1576,294.1597,right,1,1.0009,,294.1598,295.0975,3,7,31,0,1,total,2,images/Ex1.jpg,right,reversed,easy,1,,,,,
,,,,,60282d2ffedb021342e2df15,001,22,female,british,college,2024-02-26_01h32.28.676,CRL1e,2023.2.3,Win32,10.01001001,65dbad3905fde4fe1981dc61,65dbea0f1a2dc71c38d69c25,,,,,,,,,,,295.0978,1.2,296.2707,296.2707,297.1396,left,1,0.8678,,297.1396,298.084,4,0,32,6,1,total,2,images/Ex4.jpg,left,reversed,easy,1,,,,,
,,,,,60282d2ffedb021342e2df15,001,22,female,british,college,2024-02-26_01h32.28.676,CRL1e,2023.2.3,Win32,10.01001001,65dbad3905fde4fe1981dc61,65dbea0f1a2dc71c38d69c25,,,,,,,,,,,298.0842,1.3,299.3896,299.3896,300.4124,right,0,1.0215,,300.4124,301.3493,4,1,33,5,1,total,2,images/Ex3.jpg,left,reversed,easy,1,,,,,
,,,,,60282d2ffedb021342e2df15,001,22,female,british,college,2024-02-26_01h32.28.676,CRL1e,2023.2.3,Win32,10.01001001,65dbad3905fde4fe1981dc61,65dbea0f1a2dc71c38d69c25,,,,,,,,,,,301.3495,0.7,301.9938,301.9938,302.7178,left,1,0.7233,,302.718,303.6491,4,2,34,4,1,total,2,images/Ex3.jpg,left,reversed,easy,1,,,,,
,,,,,60282d2ffedb021342e2df15,001,22,female,british,college,2024-02-26_01h32.28.676,CRL1e,2023.2.3,Win32,10.01001001,65dbad3905fde4fe1981dc61,65dbea0f1a2dc71c38d69c25,,,,,,,,,,,303.6494,1.4,304.9556,304.9556,306.1185,right,1,1.1619,,306.1186,307.0471,4,3,35,2,1,total,2,images/Ex2.jpg,right,reversed,easy,1,,,,,
,,,,,60282d2ffedb021342e2df15,001,22,female,british,college,2024-02-26_01h32.28.676,CRL1e,2023.2.3,Win32,10.01001001,65dbad3905fde4fe1981dc61,65dbea0f1a2dc71c38d69c25,,,,,,,,,,,307.0474,0.7,307.6998,307.6998,308.7126,left,0,1.0118,,308.7126,309.6296,4,4,36,1,1,total,2,images/Ex1.jpg,right,reversed,easy,1,,,,,
,,,,,60282d2ffedb021342e2df15,001,22,female,british,college,2024-02-26_01h32.28.676,CRL1e,2023.2.3,Win32,10.01001001,65dbad3905fde4fe1981dc61,65dbea0f1a2dc71c38d69c25,,,,,,,,,,,309.6299,1.1,310.6724,310.6724,311.5423,left,1,0.869,,311.5424,312.4777,4,5,37,7,1,total,2,images/Ex4.jpg,left,reversed,easy,1,,,,,
,,,,,60282d2ffedb021342e2df15,001,22,female,british,college,2024-02-26_01h32.28.676,CRL1e,2023.2.3,Win32,10.01001001,65dbad3905fde4fe1981dc61,65dbea0f1a2dc71c38d69c25,,,,,,,,,,,312.4782,1.4,313.7871,313.7871,314.5094,right,1,0.7214,,314.5095,315.4461,4,6,38,0,1,total,2,images/Ex1.jpg,right,reversed,easy,1,,,,,
,,,,,60282d2ffedb021342e2df15,001,22,female,british,college,2024-02-26_01h32.28.676,CRL1e,2023.2.3,Win32,10.01001001,65dbad3905fde4fe1981dc61,65dbea0f1a2dc71c38d69c25,,,,,,,,,,,315.4464,0.8,316.2336,316.2336,317.3942,right,1,1.1599,,317.3943,318.3283,4,7,39,3,1,total,2,images/Ex2.jpg,right,reversed,easy,1,,,,,
,,,,,60282d2ffedb021342e2df15,001,22,female,british,college,2024-02-26_01h32.28.676,CRL1e,2023.2.3,Win32,10.01001001,65dbad3905fde4fe1981dc61,65dbea0f1a2dc71c38d69c25,,,,,,,,,,,318.3286,0.6,318.8432,318.8432,319.7119,left,1,0.8677,,319.712,320.6374,5,0,40,4,1,total,2,images/Ex3.jpg,left,reversed,easy,1,,,,,
,,,,,60282d2ffedb021342e2df15,001,22,female,british,college,2024-02-26_01h32.28.676,CRL1e,2023.2.3,Win32,10.01001001,65dbad3905fde4fe1981dc61,65dbea0f1a2dc71c38d69c25,,,,,,,,,,,320.6376,1.4,321.9576,321.9576,322.8265,right,1,0.868,,322.8265,323.7555,5,1,41,0,1,total,2,images/Ex1.jpg,right,reversed,easy,1,,,,,
,,,,,60282d2ffedb021342e2df15,001,22,female,british,college,2024-02-26_01h32.28.676,CRL1e,2023.2.3,Win32,10.01001001,65dbad3905fde4fe1981dc61,65dbea0f1a2dc71c38d69c25,,,,,,,,,,,323.7558,0.5,324.2724,324.2724,325.4309,right,1,1.1572,,325.431,326.3705,5,2,42,2,1,total,2,images/Ex2.jpg,right,reversed,easy,1,,,,,
,,,,,60282d2ffedb021342e2df15,001,22,female,british,college,2024-02-26_01h32.28.676,CRL1e,2023.2.3,Win32,10.01001001,65dbad3905fde4fe1981dc61,65dbea0f1a2dc71c38d69c25,,,,,,,,,,,326.3708,0.7,327.0189,327.0189,328.9153,left,0,1.8955,,328.9154,329.8424,5,3,43,1,1,total,2,images/Ex1.jpg,right,reversed,easy,1,,,,,
,,,,,60282d2ffedb021342e2df15,001,22,female,british,college,2024-02-26_01h32.28.676,CRL1e,2023.2.3,Win32,10.01001001,65dbad3905fde4fe1981dc61,65dbea0f1a2dc71c38d69c25,,,,,,,,,,,329.8523,1.4,331.2804,331.2805,332.4415,right,1,1.1601,,332.4416,333.3788,5,4,44,3,1,total,2,images/Ex2.jpg,right,reversed,easy,1,,,,,
,,,,,60282d2ffedb021342e2df15,001,22,female,british,college,2024-02-26_01h32.28.676,CRL1e,2023.2.3,Win32,10.01001001,65dbad3905fde4fe1981dc61,65dbea0f1a2dc71c38d69c25,,,,,,,,,,,333.3792,1.4,334.8095,334.8095,335.6833,left,1,0.8728,,335.6833,336.6137,5,5,45,7,1,total,2,images/Ex4.jpg,left,reversed,easy,1,,,,,
,,,,,60282d2ffedb021342e2df15,001,22,female,british,college,2024-02-26_01h32.28.676,CRL1e,2023.2.3,Win32,10.01001001,65dbad3905fde4fe1981dc61,65dbea0f1a2dc71c38d69c25,,,,,,,,,,,336.614,0.5,337.1396,337.1397,337.9869,left,1,0.8457,,337.987,338.9624,5,6,46,5,1,total,2,images/Ex3.jpg,left,reversed,easy,1,,,,,
,,,,,60282d2ffedb021342e2df15,001,22,female,british,college,2024-02-26_01h32.28.676,CRL1e,2023.2.3,Win32,10.01001001,65dbad3905fde4fe1981dc61,65dbea0f1a2dc71c38d69c25,,,,,,,,,,,338.9628,0.9,339.7959,339.796,340.6605,left,1,0.8636,,340.6605,341.5927,5,7,47,6,1,total,2,images/Ex4.jpg,left,reversed,easy,1,,,,,
,,,,,60282d2ffedb021342e2df15,001,22,female,british,college,2024-02-26_01h32.28.676,CRL1e,2023.2.3,Win32,10.01001001,65dbad3905fde4fe1981dc61,65dbea0f1a2dc71c38d69c25,,,,,,341.5936,344.3737,space,2.6363,0.0002,344.377,1,345.3823,345.3823,346.4141,right,1,1.0308,,346.4141,347.3398,0,0,0,5,1,partial,1,images/Ex7.jpg,right,training,easy,1,,,,,
,,,,,60282d2ffedb021342e2df15,001,22,female,british,college,2024-02-26_01h32.28.676,CRL1e,2023.2.3,Win32,10.01001001,65dbad3905fde4fe1981dc61,65dbea0f1a2dc71c38d69c25,,,,,,,,,,,347.3401,0.9,348.2581,348.2582,349.1332,left,1,0.8741,,349.1332,350.0696,0,1,1,3,1,partial,1,images/Ex6.jpg,left,training,easy,1,,,,,
,,,,,60282d2ffedb021342e2df15,001,22,female,british,college,2024-02-26_01h32.28.676,CRL1e,2023.2.3,Win32,10.01001001,65dbad3905fde4fe1981dc61,65dbea0f1a2dc71c38d69c25,,,,,,,,,,,350.0699,1.3,351.3817,351.3817,353.1265,right,1,1.7437,,353.1266,354.0637,0,2,2,7,1,partial,1,images/Ex8.jpg,right,training,easy,1,,,,,
,,,,,60282d2ffedb021342e2df15,001,22,female,british,college,2024-02-26_01h32.28.676,CRL1e,2023.2.3,Win32,10.01001001,65dbad3905fde4fe1981dc61,65dbea0f1a2dc71c38d69c25,,,,,,,,,,,354.0735,0.9,354.9784,354.9784,356.2984,right,1,1.3191,,356.2984,357.2487,0,3,3,4,1,partial,1,images/Ex7.jpg,right,training,easy,1,,,,,
,,,,,60282d2ffedb021342e2df15,001,22,female,british,college,2024-02-26_01h32.28.676,CRL1e,2023.2.3,Win32,10.01001001,65dbad3905fde4fe1981dc61,65dbea0f1a2dc71c38d69c25,,,,,,,,,,,357.249,1.2,358.4219,358.4219,359.8808,left,1,1.4579,,359.8808,360.8229,0,4,4,0,1,partial,1,images/Ex5.jpg,left,training,easy,1,,,,,
,,,,,60282d2ffedb021342e2df15,001,22,female,british,college,2024-02-26_01h32.28.676,CRL1e,2023.2.3,Win32,10.01001001,65dbad3905fde4fe1981dc61,65dbea0f1a2dc71c38d69c25,,,,,,,,,,,360.8232,0.7,361.4724,361.4725,362.3392,left,0,0.8657,,362.3393,363.2603,0,5,5,6,1,partial,1,images/Ex8.jpg,right,training,easy,1,,,,,
,,,,,60282d2ffedb021342e2df15,001,22,female,british,college,2024-02-26_01h32.28.676,CRL1e,2023.2.3,Win32,10.01001001,65dbad3905fde4fe1981dc61,65dbea0f1a2dc71c38d69c25,,,,,,,,,,,363.2606,1.3,364.5958,364.5958,365.3908,right,0,0.7941,,365.3908,366.373,0,6,6,2,1,partial,1,images/Ex6.jpg,left,training,easy,1,,,,,
,,,,,60282d2ffedb021342e2df15,001,22,female,british,college,2024-02-26_01h32.28.676,CRL1e,2023.2.3,Win32,10.01001001,65dbad3905fde4fe1981dc61,65dbea0f1a2dc71c38d69c25,,,,,,,,,,,366.3734,0.8,367.0906,367.0906,367.8936,left,1,0.8016,,367.8936,368.8987,0,7,7,1,1,partial,1,images/Ex5.jpg,left,training,easy,1,,,,,
,,,,,60282d2ffedb021342e2df15,001,22,female,british,college,2024-02-26_01h32.28.676,CRL1e,2023.2.3,Win32,10.01001001,65dbad3905fde4fe1981dc61,65dbea0f1a2dc71c38d69c25,,,,,,,,,,,368.8992,1.3,370.1877,370.1877,371.2266,left,1,1.0379,,371.2267,372.246,1,0,8,3,1,partial,1,images/Ex6.jpg,left,training,easy,1,,,,,
,,,,,60282d2ffedb021342e2df15,001,22,female,british,college,2024-02-26_01h32.28.676,CRL1e,2023.2.3,Win32,10.01001001,65dbad3905fde4fe1981dc61,65dbea0f1a2dc71c38d69c25,,,,,,,,,,,372.2464,0.7,372.9295,372.9296,373.9754,left,1,1.0448,,373.9755,374.9427,1,1,9,1,1,partial,1,images/Ex5.jpg,left,training,easy,1,,,,,
,,,,,60282d2ffedb021342e2df15,001,22,female,british,college,2024-02-26_01h32.28.676,CRL1e,2023.2.3,Win32,10.01001001,65dbad3905fde4fe1981dc61,65dbea0f1a2dc71c38d69c25,,,,,,,,,,,374.9431,0.9,375.8672,375.8672,378.0539,left,1,2.1858,,378.0539,378.9837,1,2,10,2,1,partial,1,images/Ex6.jpg,left,training,easy,1,,,,,
,,,,,60282d2ffedb021342e2df15,001,22,female,british,college,2024-02-26_01h32.28.676,CRL1e,2023.2.3,Win32,10.01001001,65dbad3905fde4fe1981dc61,65dbea0f1a2dc71c38d69c25,,,,,,,,,,,378.9964,1,379.9106,379.9106,381.24,right,1,1.3283,,381.2401,382.1755,1,3,11,7,1,partial,1,images/Ex8.jpg,right,training,easy,1,,,,,
,,,,,60282d2ffedb021342e2df15,001,22,female,british,college,2024-02-26_01h32.28.676,CRL1e,2023.2.3,Win32,10.01001001,65dbad3905fde4fe1981dc61,65dbea0f1a2dc71c38d69c25,,,,,,,,,,,382.1759,1.3,383.4886,383.4886,384.9598,left,0,1.4703,,384.9599,385.9126,1,4,12,4,1,partial,1,images/Ex7.jpg,right,training,easy,1,,,,,
,,,,,60282d2ffedb021342e2df15,001,22,female,british,college,2024-02-26_01h32.28.676,CRL1e,2023.2.3,Win32,10.01001001,65dbad3905fde4fe1981dc61,65dbea0f1a2dc71c38d69c25,,,,,,,,,,,385.9128,0.6,386.4362,386.4363,388.1776,right,0,1.7405,,388.1776,389.107,1,5,13,0,1,partial,1,images/Ex5.jpg,left,training,easy,1,,,,,
,,,,,60282d2ffedb021342e2df15,001,22,female,british,college,2024-02-26_01h32.28.676,CRL1e,2023.2.3,Win32,10.01001001,65dbad3905fde4fe1981dc61,65dbea0f1a2dc71c38d69c25,,,,,,,,,,,389.1073,0.7,389.7805,389.7805,390.353,left,0,0.5715,,390.3531,391.2867,1,6,14,6,1,partial,1,images/Ex8.jpg,right,training,easy,1,,,,,
,,,,,60282d2ffedb021342e2df15,001,22,female,british,college,2024-02-26_01h32.28.676,CRL1e,2023.2.3,Win32,10.01001001,65dbad3905fde4fe1981dc61,65dbea0f1a2dc71c38d69c25,,,,,,,,,,,391.2871,0.7,391.9465,391.9465,392.677,right,1,0.7296,,392.677,393.602,1,7,15,5,1,partial,1,images/Ex7.jpg,right,training,easy,1,,,,,
,,,,,60282d2ffedb021342e2df15,001,22,female,british,college,2024-02-26_01h32.28.676,CRL1e,2023.2.3,Win32,10.01001001,65dbad3905fde4fe1981dc61,65dbea0f1a2dc71c38d69c25,,,,,,,,,,,393.6024,0.8,394.3857,394.3857,396.1364,right,1,1.7499,,396.1365,397.0675,2,0,16,5,1,partial,1,images/Ex7.jpg,right,training,easy,1,,,,,
,,,,,60282d2ffedb021342e2df15,001,22,female,british,college,2024-02-26_01h32.28.676,CRL1e,2023.2.3,Win32,10.01001001,65dbad3905fde4fe1981dc61,65dbea0f1a2dc71c38d69c25,,,,,,,,,,,397.0678,1.3,398.344,398.3441,399.0665,left,0,0.7213,,399.0665,400.0308,2,1,17,6,1,partial,1,images/Ex8.jpg,right,training,easy,1,,,,,
,,,,,60282d2ffedb021342e2df15,001,22,female,british,college,2024-02-26_01h32.28.676,CRL1e,2023.2.3,Win32,10.01001001,65dbad3905fde4fe1981dc61,65dbea0f1a2dc71c38d69c25,,,,,,,,,,,400.0313,1.4,401.3936,401.3936,402.3986,right,0,1.0036,,402.3987,403.3117,2,2,18,0,1,partial,1,images/Ex5.jpg,left,training,easy,1,,,,,
,,,,,60282d2ffedb021342e2df15,001,22,female,british,college,2024-02-26_01h32.28.676,CRL1e,2023.2.3,Win32,10.01001001,65dbad3905fde4fe1981dc61,65dbea0f1a2dc71c38d69c25,,,,,,,,,,,403.312,1.4,404.6144,404.6145,405.9103,left,0,1.2947,,405.9103,406.8837,2,3,19,7,1,partial,1,images/Ex8.jpg,right,training,easy,1,,,,,
,,,,,60282d2ffedb021342e2df15,001,22,female,british,college,2024-02-26_01h32.28.676,CRL1e,2023.2.3,Win32,10.01001001,65dbad3905fde4fe1981dc61,65dbea0f1a2dc71c38d69c25,,,,,,,,,,,406.884,1.3,408.1118,408.1118,409.5934,right,0,1.4804,,409.5935,410.5283,2,4,20,3,1,partial,1,images/Ex6.jpg,left,training,easy,1,,,,,
,,,,,60282d2ffedb021342e2df15,001,22,female,british,college,2024-02-26_01h32.28.676,CRL1e,2023.2.3,Win32,10.01001001,65dbad3905fde4fe1981dc61,65dbea0f1a2dc71c38d69c25,,,,,,,,,,,410.5287,0.8,411.3222,411.3222,413.9387,left,0,2.6152,,413.9388,414.8832,2,5,21,4,1,partial,1,images/Ex7.jpg,right,training,easy,1,,,,,
,,,,,60282d2ffedb021342e2df15,001,22,female,british,college,2024-02-26_01h32.28.676,CRL1e,2023.2.3,Win32,10.01001001,65dbad3905fde4fe1981dc61,65dbea0f1a2dc71c38d69c25,,,,,,,,,,,414.8929,1.4,416.1988,416.1988,417.0866,right,0,0.8869,,417.0866,418.0145,2,6,22,2,1,partial,1,images/Ex6.jpg,left,training,easy,1,,,,,
,,,,,60282d2ffedb021342e2df15,001,22,female,british,college,2024-02-26_01h32.28.676,CRL1e,2023.2.3,Win32,10.01001001,65dbad3905fde4fe1981dc61,65dbea0f1a2dc71c38d69c25,,,,,,,,,,,418.0148,1,418.9398,418.9398,419.6608,left,1,0.72,,419.6608,420.6064,2,7,23,1,1,partial,1,images/Ex5.jpg,left,training,easy,1,,,,,
,,,,,60282d2ffedb021342e2df15,001,22,female,british,college,2024-02-26_01h32.28.676,CRL1e,2023.2.3,Win32,10.01001001,65dbad3905fde4fe1981dc61,65dbea0f1a2dc71c38d69c25,,,,,,,,,,,420.6067,0.6,421.134,421.134,421.8577,left,1,0.7228,,421.8578,422.7852,3,0,24,0,1,partial,1,images/Ex5.jpg,left,training,easy,1,,,,,
,,,,,60282d2ffedb021342e2df15,001,22,female,british,college,2024-02-26_01h32.28.676,CRL1e,2023.2.3,Win32,10.01001001,65dbad3905fde4fe1981dc61,65dbea0f1a2dc71c38d69c25,,,,,,,,,,,422.7855,0.5,423.3033,423.3034,424.0226,left,1,0.7184,,424.0227,424.9597,3,1,25,1,1,partial,1,images/Ex5.jpg,left,training,easy,1,,,,,
,,,,,60282d2ffedb021342e2df15,001,22,female,british,college,2024-02-26_01h32.28.676,CRL1e,2023.2.3,Win32,10.01001001,65dbad3905fde4fe1981dc61,65dbea0f1a2dc71c38d69c25,,,,,,,,,,,424.96,1.5,426.4088,426.4089,427.3001,right,1,0.8902,,427.3001,428.2391,3,2,26,5,1,partial,1,images/Ex7.jpg,right,training,easy,1,,,,,
,,,,,60282d2ffedb021342e2df15,001,22,female,british,college,2024-02-26_01h32.28.676,CRL1e,2023.2.3,Win32,10.01001001,65dbad3905fde4fe1981dc61,65dbea0f1a2dc71c38d69c25,,,,,,,,,,,428.2394,0.9,429.1674,429.1674,430.1844,left,0,1.0159,,430.1844,431.1207,3,3,27,7,1,partial,1,images/Ex8.jpg,right,training,easy,1,,,,,
,,,,,60282d2ffedb021342e2df15,001,22,female,british,college,2024-02-26_01h32.28.676,CRL1e,2023.2.3,Win32,10.01001001,65dbad3905fde4fe1981dc61,65dbea0f1a2dc71c38d69c25,,,,,,,,,,,431.121,0.6,431.6602,431.6602,432.5488,right,1,0.8873,,432.5488,433.4744,3,4,28,4,1,partial,1,images/Ex7.jpg,right,training,easy,1,,,,,
,,,,,60282d2ffedb021342e2df15,001,22,female,british,college,2024-02-26_01h32.28.676,CRL1e,2023.2.3,Win32,10.01001001,65dbad3905fde4fe1981dc61,65dbea0f1a2dc71c38d69c25,,,,,,,,,,,433.4746,1.5,434.952,434.9521,435.695,right,0,0.7421,,435.695,436.6272,3,5,29,2,1,partial,1,images/Ex6.jpg,left,training,easy,1,,,,,
,,,,,60282d2ffedb021342e2df15,001,22,female,british,college,2024-02-26_01h32.28.676,CRL1e,2023.2.3,Win32,10.01001001,65dbad3905fde4fe1981dc61,65dbea0f1a2dc71c38d69c25,,,,,,,,,,,436.6276,1.3,437.9655,437.9655,438.697,left,0,0.7303,,438.697,439.6391,3,6,30,6,1,partial,1,images/Ex8.jpg,right,training,easy,1,,,,,
,,,,,60282d2ffedb021342e2df15,001,22,female,british,college,2024-02-26_01h32.28.676,CRL1e,2023.2.3,Win32,10.01001001,65dbad3905fde4fe1981dc61,65dbea0f1a2dc71c38d69c25,,,,,,,,,,,439.6394,0.6,440.1626,440.1627,440.9061,right,0,0.7424,,440.9062,441.8595,3,7,31,3,1,partial,1,images/Ex6.jpg,left,training,easy,1,,,,,
,,,,,60282d2ffedb021342e2df15,001,22,female,british,college,2024-02-26_01h32.28.676,CRL1e,2023.2.3,Win32,10.01001001,65dbad3905fde4fe1981dc61,65dbea0f1a2dc71c38d69c25,,,,,,,,,,,441.8601,1.2,443.0564,443.0564,443.9533,right,1,0.8961,,443.9534,444.9173,4,0,32,4,1,partial,1,images/Ex7.jpg,right,training,easy,1,,,,,
,,,,,60282d2ffedb021342e2df15,001,22,female,british,college,2024-02-26_01h32.28.676,CRL1e,2023.2.3,Win32,10.01001001,65dbad3905fde4fe1981dc61,65dbea0f1a2dc71c38d69c25,,,,,,,,,,,444.9178,1.3,446.1381,446.1381,446.874,right,1,0.735,,446.8741,447.8326,4,1,33,5,1,partial,1,images/Ex7.jpg,right,training,easy,1,,,,,
,,,,,60282d2ffedb021342e2df15,001,22,female,british,college,2024-02-26_01h32.28.676,CRL1e,2023.2.3,Win32,10.01001001,65dbad3905fde4fe1981dc61,65dbea0f1a2dc71c38d69c25,,,,,,,,,,,447.8328,0.7,448.5022,448.5023,449.3913,left,1,0.8881,,449.3914,450.3302,4,2,34,1,1,partial,1,images/Ex5.jpg,left,training,easy,1,,,,,
,,,,,60282d2ffedb021342e2df15,001,22,female,british,college,2024-02-26_01h32.28.676,CRL1e,2023.2.3,Win32,10.01001001,65dbad3905fde4fe1981dc61,65dbea0f1a2dc71c38d69c25,,,,,,,,,,,450.3305,0.7,451.0067,451.0067,451.8937,right,0,0.8859,,451.8938,452.8411,4,3,35,2,1,partial,1,images/Ex6.jpg,left,training,easy,1,,,,,
,,,,,60282d2ffedb021342e2df15,001,22,female,british,college,2024-02-26_01h32.28.676,CRL1e,2023.2.3,Win32,10.01001001,65dbad3905fde4fe1981dc61,65dbea0f1a2dc71c38d69c25,,,,,,,,,,,452.8413,0.7,453.5103,453.5104,454.5524,left,0,1.0412,,454.5525,455.5064,4,4,36,6,1,partial,1,images/Ex8.jpg,right,training,easy,1,,,,,
,,,,,60282d2ffedb021342e2df15,001,22,female,british,college,2024-02-26_01h32.28.676,CRL1e,2023.2.3,Win32,10.01001001,65dbad3905fde4fe1981dc61,65dbea0f1a2dc71c38d69c25,,,,,,,,,,,455.5068,0.5,455.9115,455.9115,456.7924,left,1,0.8798,,456.7925,457.6911,4,5,37,0,1,partial,1,images/Ex5.jpg,left,training,easy,1,,,,,
,,,,,60282d2ffedb021342e2df15,001,22,female,british,college,2024-02-26_01h32.28.676,CRL1e,2023.2.3,Win32,10.01001001,65dbad3905fde4fe1981dc61,65dbea0f1a2dc71c38d69c25,,,,,,,,,,,457.6918,1.3,458.9666,458.9666,459.8562,right,0,0.8878,,459.8562,460.8323,4,6,38,3,1,partial,1,images/Ex6.jpg,left,training,easy,1,,,,,
,,,,,60282d2ffedb021342e2df15,001,22,female,british,college,2024-02-26_01h32.28.676,CRL1e,2023.2.3,Win32,10.01001001,65dbad3905fde4fe1981dc61,65dbea0f1a2dc71c38d69c25,,,,,,,,,,,460.8326,1.2,461.9485,461.9485,462.8115,left,0,0.862,,462.8116,463.7623,4,7,39,7,1,partial,1,images/Ex8.jpg,right,training,easy,1,,,,,
,,,,,60282d2ffedb021342e2df15,001,22,female,british,college,2024-02-26_01h32.28.676,CRL1e,2023.2.3,Win32,10.01001001,65dbad3905fde4fe1981dc61,65dbea0f1a2dc71c38d69c25,,,,,,,,,,,463.7626,1.5,465.2076,465.2076,466.0237,right,1,0.8146,,466.0237,466.9707,5,0,40,5,1,partial,1,images/Ex7.jpg,right,training,easy,1,,,,,
,,,,,60282d2ffedb021342e2df15,001,22,female,british,college,2024-02-26_01h32.28.676,CRL1e,2023.2.3,Win32,10.01001001,65dbad3905fde4fe1981dc61,65dbea0f1a2dc71c38d69c25,,,,,,,,,,,466.9711,0.8,467.6959,467.6959,468.5076,left,1,0.8105,,468.5077,469.4154,5,1,41,3,1,partial,1,images/Ex6.jpg,left,training,easy,1,,,,,
,,,,,60282d2ffedb021342e2df15,001,22,female,british,college,2024-02-26_01h32.28.676,CRL1e,2023.2.3,Win32,10.01001001,65dbad3905fde4fe1981dc61,65dbea0f1a2dc71c38d69c25,,,,,,,,,,,469.4157,1,470.4182,470.4182,471.2344,left,1,0.8153,,471.2344,472.2512,5,2,42,2,1,partial,1,images/Ex6.jpg,left,training,easy,1,,,,,
,,,,,60282d2ffedb021342e2df15,001,22,female,british,college,2024-02-26_01h32.28.676,CRL1e,2023.2.3,Win32,10.01001001,65dbad3905fde4fe1981dc61,65dbea0f1a2dc71c38d69c25,,,,,,,,,,,472.2515,0.5,472.67,472.6701,473.6014,right,0,0.9306,,473.6014,474.6009,5,3,43,1,1,partial,1,images/Ex5.jpg,left,training,easy,1,,,,,
,,,,,60282d2ffedb021342e2df15,001,22,female,british,college,2024-02-26_01h32.28.676,CRL1e,2023.2.3,Win32,10.01001001,65dbad3905fde4fe1981dc61,65dbea0f1a2dc71c38d69c25,,,,,,,,,,,474.6012,1.5,476.1275,476.1275,476.8963,left,1,0.768,,476.8964,477.9111,5,4,44,0,1,partial,1,images/Ex5.jpg,left,training,easy,1,,,,,
,,,,,60282d2ffedb021342e2df15,001,22,female,british,college,2024-02-26_01h32.28.676,CRL1e,2023.2.3,Win32,10.01001001,65dbad3905fde4fe1981dc61,65dbea0f1a2dc71c38d69c25,,,,,,,,,,,477.9114,1.1,478.8995,478.8996,479.8492,right,1,0.9485,,479.8494,480.8181,5,5,45,4,1,partial,1,images/Ex7.jpg,right,training,easy,1,,,,,
,,,,,60282d2ffedb021342e2df15,001,22,female,british,college,2024-02-26_01h32.28.676,CRL1e,2023.2.3,Win32,10.01001001,65dbad3905fde4fe1981dc61,65dbea0f1a2dc71c38d69c25,,,,,,,,,,,480.8184,1,481.8122,481.8122,482.7643,right,1,0.9512,,482.7643,483.747,5,6,46,6,1,partial,1,images/Ex8.jpg,right,training,easy,1,,,,,
,,,,,60282d2ffedb021342e2df15,001,22,female,british,college,2024-02-26_01h32.28.676,CRL1e,2023.2.3,Win32,10.01001001,65dbad3905fde4fe1981dc61,65dbea0f1a2dc71c38d69c25,,,,,,,,,,,483.7474,0.7,484.4498,484.4498,485.3633,right,1,0.9128,,485.3634,486.3728,5,7,47,7,1,partial,1,images/Ex8.jpg,right,training,easy,1,,,,,
,,,,,60282d2ffedb021342e2df15,001,22,female,british,college,2024-02-26_01h32.28.676,CRL1e,2023.2.3,Win32,10.01001001,65dbad3905fde4fe1981dc61,65dbea0f1a2dc71c38d69c25,,,,,,,,,,,486.3752,0.5,486.7866,486.7866,487.54,right,0,0.7529,,487.5401,488.5313,0,0,0,7,1,partial,2,images/Ex8.jpg,left,reversed,easy,1,,,,,
,,,,,60282d2ffedb021342e2df15,001,22,female,british,college,2024-02-26_01h32.28.676,CRL1e,2023.2.3,Win32,10.01001001,65dbad3905fde4fe1981dc61,65dbea0f1a2dc71c38d69c25,,,,,,,,,,,488.5316,1.1,489.6552,489.6553,490.5791,left,1,0.9229,,490.5791,491.5748,0,1,1,1,1,partial,2,images/Ex5.jpg,left,nonreversed,easy,1,,,,,
,,,,,60282d2ffedb021342e2df15,001,22,female,british,college,2024-02-26_01h32.28.676,CRL1e,2023.2.3,Win32,10.01001001,65dbad3905fde4fe1981dc61,65dbea0f1a2dc71c38d69c25,,,,,,,,,,,491.5753,1.1,492.6072,492.6073,493.5414,left,0,0.9332,,493.5414,494.5455,0,2,2,3,1,partial,2,images/Ex6.jpg,right,reversed,easy,1,,,,,
,,,,,60282d2ffedb021342e2df15,001,22,female,british,college,2024-02-26_01h32.28.676,CRL1e,2023.2.3,Win32,10.01001001,65dbad3905fde4fe1981dc61,65dbea0f1a2dc71c38d69c25,,,,,,,,,,,494.5459,0.7,495.2771,495.2772,496.3711,left,1,1.0929,,496.3712,497.3144,0,3,3,0,1,partial,2,images/Ex5.jpg,left,nonreversed,easy,1,,,,,
,,,,,60282d2ffedb021342e2df15,001,22,female,british,college,2024-02-26_01h32.28.676,CRL1e,2023.2.3,Win32,10.01001001,65dbad3905fde4fe1981dc61,65dbea0f1a2dc71c38d69c25,,,,,,,,,,,497.3147,0.8,498.0998,498.0999,498.8316,left,1,0.7308,,498.8316,499.7734,0,4,4,6,1,partial,2,images/Ex8.jpg,left,reversed,easy,1,,,,,
,,,,,60282d2ffedb021342e2df15,001,22,female,british,college,2024-02-26_01h32.28.676,CRL1e,2023.2.3,Win32,10.01001001,65dbad3905fde4fe1981dc61,65dbea0f1a2dc71c38d69c25,,,,,,,,,,,499.7737,1.4,501.158,501.1581,501.8986,right,1,0.7392,,501.8986,502.8525,0,5,5,4,1,partial,2,images/Ex7.jpg,right,nonreversed,easy,1,,,,,
,,,,,60282d2ffedb021342e2df15,001,22,female,british,college,2024-02-26_01h32.28.676,CRL1e,2023.2.3,Win32,10.01001001,65dbad3905fde4fe1981dc61,65dbea0f1a2dc71c38d69c25,,,,,,,,,,,502.8528,0.5,503.2718,503.2718,504.1848,left,0,0.9117,,504.1848,505.1572,0,6,6,2,1,partial,2,images/Ex6.jpg,right,reversed,easy,1,,,,,
,,,,,60282d2ffedb021342e2df15,001,22,female,british,college,2024-02-26_01h32.28.676,CRL1e,2023.2.3,Win32,10.01001001,65dbad3905fde4fe1981dc61,65dbea0f1a2dc71c38d69c25,,,,,,,,,,,505.1575,1.2,506.3565,506.3565,507.1022,right,1,0.7448,,507.1022,508.0949,0,7,7,5,1,partial,2,images/Ex7.jpg,right,nonreversed,easy,1,,,,,
,,,,,60282d2ffedb021342e2df15,001,22,female,british,college,2024-02-26_01h32.28.676,CRL1e,2023.2.3,Win32,10.01001001,65dbad3905fde4fe1981dc61,65dbea0f1a2dc71c38d69c25,,,,,,,,,,,508.0952,1.3,509.3664,509.3665,510.3496,right,0,0.982,,510.3496,511.3292,1,0,8,0,1,partial,2,images/Ex5.jpg,left,nonreversed,easy,1,,,,,
,,,,,60282d2ffedb021342e2df15,001,22,female,british,college,2024-02-26_01h32.28.676,CRL1e,2023.2.3,Win32,10.01001001,65dbad3905fde4fe1981dc61,65dbea0f1a2dc71c38d69c25,,,,,,,,,,,511.3295,1.3,512.5951,512.5952,514.3041,right,1,1.708,,514.3041,515.3203,1,1,9,2,1,partial,2,images/Ex6.jpg,right,reversed,easy,1,,,,,
,,,,,60282d2ffedb021342e2df15,001,22,female,british,college,2024-02-26_01h32.28.676,CRL1e,2023.2.3,Win32,10.01001001,65dbad3905fde4fe1981dc61,65dbea0f1a2dc71c38d69c25,,,,,,,,,,,515.3206,0.5,515.7283,515.7283,517.0942,left,1,1.3649,,517.0943,518.0753,1,2,10,1,1,partial,2,images/Ex5.jpg,left,nonreversed,easy,1,,,,,
,,,,,60282d2ffedb021342e2df15,001,22,female,british,college,2024-02-26_01h32.28.676,CRL1e,2023.2.3,Win32,10.01001001,65dbad3905fde4fe1981dc61,65dbea0f1a2dc71c38d69c25,,,,,,,,,,,518.0759,1.5,519.4846,519.4846,520.5618,right,1,1.0758,,520.5619,521.4639,1,3,11,5,1,partial,2,images/Ex7.jpg,right,nonreversed,easy,1,,,,,
,,,,,60282d2ffedb021342e2df15,001,22,female,british,college,2024-02-26_01h32.28.676,CRL1e,2023.2.3,Win32,10.01001001,65dbad3905fde4fe1981dc61,65dbea0f1a2dc71c38d69c25,,,,,,,,,,,521.4643,1.4,522.7871,522.7871,523.9207,left,1,1.1323,,523.9209,524.9406,1,4,12,6,1,partial,2,images/Ex8.jpg,left,reversed,easy,1,,,,,
,,,,,60282d2ffedb021342e2df15,001,22,female,british,college,2024-02-26_01h32.28.676,CRL1e,2023.2.3,Win32,10.01001001,65dbad3905fde4fe1981dc61,65dbea0f1a2dc71c38d69c25,,,,,,,,,,,524.941,0.8,525.653,525.653,526.4406,left,1,0.7867,,526.4406,527.4627,1,5,13,7,1,partial,2,images/Ex8.jpg,left,reversed,easy,1,,,,,
,,,,,60282d2ffedb021342e2df15,001,22,female,british,college,2024-02-26_01h32.28.676,CRL1e,2023.2.3,Win32,10.01001001,65dbad3905fde4fe1981dc61,65dbea0f1a2dc71c38d69c25,,,,,,,,,,,527.463,1.2,528.6328,528.6328,529.5594,left,0,0.9256,,529.5595,530.4544,1,6,14,3,1,partial,2,images/Ex6.jpg,right,reversed,easy,1,,,,,
,,,,,60282d2ffedb021342e2df15,001,22,female,british,college,2024-02-26_01h32.28.676,CRL1e,2023.2.3,Win32,10.01001001,65dbad3905fde4fe1981dc61,65dbea0f1a2dc71c38d69c25,,,,,,,,,,,530.4548,0.5,530.9051,530.9051,531.7051,right,1,0.799,,531.7051,532.7267,1,7,15,4,1,partial,2,images/Ex7.jpg,right,nonreversed,easy,1,,,,,
,,,,,60282d2ffedb021342e2df15,001,22,female,british,college,2024-02-26_01h32.28.676,CRL1e,2023.2.3,Win32,10.01001001,65dbad3905fde4fe1981dc61,65dbea0f1a2dc71c38d69c25,,,,,,,,,,,532.7271,1.1,533.7283,533.7283,535.1555,right,0,1.4262,,535.1555,536.1399,2,0,16,6,1,partial,2,images/Ex8.jpg,left,reversed,easy,1,,,,,
,,,,,60282d2ffedb021342e2df15,001,22,female,british,college,2024-02-26_01h32.28.676,CRL1e,2023.2.3,Win32,10.01001001,65dbad3905fde4fe1981dc61,65dbea0f1a2dc71c38d69c25,,,,,,,,,,,536.1402,1.3,537.4291,537.4291,538.5306,left,1,1.1005,,538.5306,539.5391,2,1,17,7,1,partial,2,images/Ex8.jpg,left,reversed,easy,1,,,,,
,,,,,60282d2ffedb021342e2df15,001,22,female,british,college,2024-02-26_01h32.28.676,CRL1e,2023.2.3,Win32,10.01001001,65dbad3905fde4fe1981dc61,65dbea0f1a2dc71c38d69c25,,,,,,,,,,,539.5394,0.7,540.2566,540.2566,541.3304,right,0,1.0725,,541.3305,542.3314,2,2,18,1,1,partial,2,images/Ex5.jpg,left,nonreversed,easy,1,,,,,
,,,,,60282d2ffedb021342e2df15,001,22,female,british,college,2024-02-26_01h32.28.676,CRL1e,2023.2.3,Win32,10.01001001,65dbad3905fde4fe1981dc61,65dbea0f1a2dc71c38d69c25,,,,,,,,,,,542.3318,0.7,543.0342,543.0342,543.8262,left,0,0.7907,,543.8262,544.8331,2,3,19,3,1,partial,2,images/Ex6.jpg,right,reversed,easy,1,,,,,
,,,,,60282d2ffedb021342e2df15,001,22,female,british,college,2024-02-26_01h32.28.676,CRL1e,2023.2.3,Win32,10.01001001,65dbad3905fde4fe1981dc61,65dbea0f1a2dc71c38d69c25,,,,,,,,,,,544.8334,0.8,545.5314,545.5314,546.3245,right,1,0.7922,,546.3246,547.3506,2,4,20,2,1,partial,2,images/Ex6.jpg,right,reversed,easy,1,,,,,
,,,,,60282d2ffedb021342e2df15,001,22,female,british,college,2024-02-26_01h32.28.676,CRL1e,2023.2.3,Win32,10.01001001,65dbad3905fde4fe1981dc61,65dbea0f1a2dc71c38d69c25,,,,,,,,,,,547.3509,1,548.3517,548.3517,549.1303,right,1,0.7777,,549.1304,550.1269,2,5,21,5,1,partial,2,images/Ex7.jpg,right,nonreversed,easy,1,,,,,
,,,,,60282d2ffedb021342e2df15,001,22,female,british,college,2024-02-26_01h32.28.676,CRL1e,2023.2.3,Win32,10.01001001,65dbad3905fde4fe1981dc61,65dbea0f1a2dc71c38d69c25,,,,,,,,,,,550.1272,1.3,551.4411,551.4411,552.704,right,0,1.2619,,552.704,553.7067,2,6,22,0,1,partial,2,images/Ex5.jpg,left,nonreversed,easy,1,,,,,
,,,,,60282d2ffedb021342e2df15,001,22,female,british,college,2024-02-26_01h32.28.676,CRL1e,2023.2.3,Win32,10.01001001,65dbad3905fde4fe1981dc61,65dbea0f1a2dc71c38d69c25,,,,,,,,,,,553.7071,1.5,555.2259,555.2259,556.1762,right,1,0.9493,,556.1763,557.1917,2,7,23,4,1,partial,2,images/Ex7.jpg,right,nonreversed,easy,1,,,,,
,,,,,60282d2ffedb021342e2df15,001,22,female,british,college,2024-02-26_01h32.28.676,CRL1e,2023.2.3,Win32,10.01001001,65dbad3905fde4fe1981dc61,65dbea0f1a2dc71c38d69c25,,,,,,,,,,,557.1921,1.2,558.4301,558.4301,559.5781,right,1,1.1468,,559.5781,560.6132,3,0,24,2,1,partial,2,images/Ex6.jpg,right,reversed,easy,1,,,,,
,,,,,60282d2ffedb021342e2df15,001,22,female,british,college,2024-02-26_01h32.28.676,CRL1e,2023.2.3,Win32,10.01001001,65dbad3905fde4fe1981dc61,65dbea0f1a2dc71c38d69c25,,,,,,,,,,,560.6138,1.4,562.0195,562.0196,563.112,left,1,1.0915,,563.1121,564.0105,3,1,25,0,1,partial,2,images/Ex5.jpg,left,nonreversed,easy,1,,,,,
,,,,,60282d2ffedb021342e2df15,001,22,female,british,college,2024-02-26_01h32.28.676,CRL1e,2023.2.3,Win32,10.01001001,65dbad3905fde4fe1981dc61,65dbea0f1a2dc71c38d69c25,,,,,,,,,,,564.0108,1.4,565.4402,565.4402,566.3772,right,1,0.9356,,566.3773,567.4095,3,2,26,5,1,partial,2,images/Ex7.jpg,right,nonreversed,easy,1,,,,,
,,,,,60282d2ffedb021342e2df15,001,22,female,british,college,2024-02-26_01h32.28.676,CRL1e,2023.2.3,Win32,10.01001001,65dbad3905fde4fe1981dc61,65dbea0f1a2dc71c38d69c25,,,,,,,,,,,567.4098,1.3,568.7402,568.7403,569.5539,right,1,0.8126,,569.5539,570.4448,3,3,27,4,1,partial,2,images/Ex7.jpg,right,nonreversed,easy,1,,,,,
,,,,,60282d2ffedb021342e2df15,001,22,female,british,college,2024-02-26_01h32.28.676,CRL1e,2023.2.3,Win32,10.01001001,65dbad3905fde4fe1981dc61,65dbea0f1a2dc71c38d69c25,,,,,,,,,,,570.445,0.6,571.0135,571.0135,572.0916,left,1,1.077,,572.0917,573.109,3,4,28,6,1,partial,2,images/Ex8.jpg,left,reversed,easy,1,,,,,
,,,,,60282d2ffedb021342e2df15,001,22,female,british,college,2024-02-26_01h32.28.676,CRL1e,2023.2.3,Win32,10.01001001,65dbad3905fde4fe1981dc61,65dbea0f1a2dc71c38d69c25,,,,,,,,,,,573.1094,0.8,573.8237,573.8237,574.9133,left,1,1.0887,,574.9134,575.9116,3,5,29,1,1,partial,2,images/Ex5.jpg,left,nonreversed,easy,1,,,,,
,,,,,60282d2ffedb021342e2df15,001,22,female,british,college,2024-02-26_01h32.28.676,CRL1e,2023.2.3,Win32,10.01001001,65dbad3905fde4fe1981dc61,65dbea0f1a2dc71c38d69c25,,,,,,,,,,,575.9119,0.6,576.4564,576.4565,577.378,left,1,0.9204,,577.3781,578.378,3,6,30,7,1,partial,2,images/Ex8.jpg,left,reversed,easy,1,,,,,
,,,,,60282d2ffedb021342e2df15,001,22,female,british,college,2024-02-26_01h32.28.676,CRL1e,2023.2.3,Win32,10.01001001,65dbad3905fde4fe1981dc61,65dbea0f1a2dc71c38d69c25,,,,,,,,,,,578.3784,0.9,579.2017,579.2017,580.2264,right,1,1.024,,580.2265,581.1163,3,7,31,3,1,partial,2,images/Ex6.jpg,right,reversed,easy,1,,,,,
,,,,,60282d2ffedb021342e2df15,001,22,female,british,college,2024-02-26_01h32.28.676,CRL1e,2023.2.3,Win32,10.01001001,65dbad3905fde4fe1981dc61,65dbea0f1a2dc71c38d69c25,,,,,,,,,,,581.1167,1,582.0323,582.0323,583.087,left,1,1.0536,,583.087,584.0685,4,0,32,6,1,partial,2,images/Ex8.jpg,left,reversed,easy,1,,,,,
,,,,,60282d2ffedb021342e2df15,001,22,female,british,college,2024-02-26_01h32.28.676,CRL1e,2023.2.3,Win32,10.01001001,65dbad3905fde4fe1981dc61,65dbea0f1a2dc71c38d69c25,,,,,,,,,,,584.0688,1.4,585.4396,585.4397,586.4201,right,1,0.9792,,586.4201,587.3634,4,1,33,5,1,partial,2,images/Ex7.jpg,right,nonreversed,easy,1,,,,,
,,,,,60282d2ffedb021342e2df15,001,22,female,british,college,2024-02-26_01h32.28.676,CRL1e,2023.2.3,Win32,10.01001001,65dbad3905fde4fe1981dc61,65dbea0f1a2dc71c38d69c25,,,,,,,,,,,587.3637,0.7,588.0354,588.0354,589.0163,left,1,0.9797,,589.0163,590.0012,4,2,34,7,1,partial,2,images/Ex8.jpg,left,reversed,easy,1,,,,,
,,,,,60282d2ffedb021342e2df15,001,22,female,british,college,2024-02-26_01h32.28.676,CRL1e,2023.2.3,Win32,10.01001001,65dbad3905fde4fe1981dc61,65dbea0f1a2dc71c38d69c25,,,,,,,,,,,590.0015,1.4,591.2936,591.2937,592.468,left,1,1.173,,592.468,593.4202,4,3,35,0,1,partial,2,images/Ex5.jpg,left,nonreversed,easy,1,,,,,
,,,,,60282d2ffedb021342e2df15,001,22,female,british,college,2024-02-26_01h32.28.676,CRL1e,2023.2.3,Win32,10.01001001,65dbad3905fde4fe1981dc61,65dbea0f1a2dc71c38d69c25,,,,,,,,,,,593.4205,1.3,594.6965,594.6966,595.8157,right,1,1.118,,595.8159,596.81,4,4,36,3,1,partial,2,images/Ex6.jpg,right,reversed,easy,1,,,,,
,,,,,60282d2ffedb021342e2df15,001,22,female,british,college,2024-02-26_01h32.28.676,CRL1e,2023.2.3,Win32,10.01001001,65dbad3905fde4fe1981dc61,65dbea0f1a2dc71c38d69c25,,,,,,,,,,,596.8103,0.8,597.6427,597.6428,598.5268,right,1,0.8827,,598.5268,599.4292,4,5,37,4,1,partial,2,images/Ex7.jpg,right,nonreversed,easy,1,,,,,
,,,,,60282d2ffedb021342e2df15,001,22,female,british,college,2024-02-26_01h32.28.676,CRL1e,2023.2.3,Win32,10.01001001,65dbad3905fde4fe1981dc61,65dbea0f1a2dc71c38d69c25,,,,,,,,,,,599.4296,0.9,600.3229,600.3229,601.3959,right,1,1.0718,,601.3959,602.4007,4,6,38,2,1,partial,2,images/Ex6.jpg,right,reversed,easy,1,,,,,
,,,,,60282d2ffedb021342e2df15,001,22,female,british,college,2024-02-26_01h32.28.676,CRL1e,2023.2.3,Win32,10.01001001,65dbad3905fde4fe1981dc61,65dbea0f1a2dc71c38d69c25,,,,,,,,,,,602.4011,0.8,603.2299,603.23,604.1564,left,1,0.9254,,604.1565,605.1312,4,7,39,1,1,partial,2,images/Ex5.jpg,left,nonreversed,easy,1,,,,,
,,,,,60282d2ffedb021342e2df15,001,22,female,british,college,2024-02-26_01h32.28.676,CRL1e,2023.2.3,Win32,10.01001001,65dbad3905fde4fe1981dc61,65dbea0f1a2dc71c38d69c25,,,,,,,,,,,605.1315,0.7,605.8328,605.8329,606.7858,right,1,0.9518,,606.7859,607.8296,5,0,40,5,1,partial,2,images/Ex7.jpg,right,nonreversed,easy,1,,,,,
,,,,,60282d2ffedb021342e2df15,001,22,female,british,college,2024-02-26_01h32.28.676,CRL1e,2023.2.3,Win32,10.01001001,65dbad3905fde4fe1981dc61,65dbea0f1a2dc71c38d69c25,,,,,,,,,,,607.8299,0.9,608.7165,608.7165,609.5456,right,1,0.8284,,609.5456,610.5404,5,1,41,4,1,partial,2,images/Ex7.jpg,right,nonreversed,easy,1,,,,,
,,,,,60282d2ffedb021342e2df15,001,22,female,british,college,2024-02-26_01h32.28.676,CRL1e,2023.2.3,Win32,10.01001001,65dbad3905fde4fe1981dc61,65dbea0f1a2dc71c38d69c25,,,,,,,,,,,610.5407,0.8,611.3699,611.3699,612.4564,right,1,1.0853,,612.4565,613.4347,5,2,42,3,1,partial,2,images/Ex6.jpg,right,reversed,easy,1,,,,,
,,,,,60282d2ffedb021342e2df15,001,22,female,british,college,2024-02-26_01h32.28.676,CRL1e,2023.2.3,Win32,10.01001001,65dbad3905fde4fe1981dc61,65dbea0f1a2dc71c38d69c25,,,,,,,,,,,613.4352,0.9,614.26,614.2601,615.049,right,0,0.7879,,615.049,616.0219,5,3,43,6,1,partial,2,images/Ex8.jpg,left,reversed,easy,1,,,,,
,,,,,60282d2ffedb021342e2df15,001,22,female,british,college,2024-02-26_01h32.28.676,CRL1e,2023.2.3,Win32,10.01001001,65dbad3905fde4fe1981dc61,65dbea0f1a2dc71c38d69c25,,,,,,,,,,,616.0222,0.9,616.943,616.9431,617.7412,left,1,0.7973,,617.7412,618.7719,5,4,44,0,1,partial,2,images/Ex5.jpg,left,nonreversed,easy,1,,,,,
,,,,,60282d2ffedb021342e2df15,001,22,female,british,college,2024-02-26_01h32.28.676,CRL1e,2023.2.3,Win32,10.01001001,65dbad3905fde4fe1981dc61,65dbea0f1a2dc71c38d69c25,,,,,,,,,,,618.7723,0.8,619.4787,619.4788,620.6024,left,1,1.1225,,620.6024,621.6075,5,5,45,7,1,partial,2,images/Ex8.jpg,left,reversed,easy,1,,,,,
,,,,,60282d2ffedb021342e2df15,001,22,female,british,college,2024-02-26_01h32.28.676,CRL1e,2023.2.3,Win32,10.01001001,65dbad3905fde4fe1981dc61,65dbea0f1a2dc71c38d69c25,,,,,,,,,,,621.6079,0.5,622.0178,622.0178,622.9725,right,1,0.9535,,622.9725,623.9101,5,6,46,2,1,partial,2,images/Ex6.jpg,right,reversed,easy,1,,,,,
,,,,,60282d2ffedb021342e2df15,001,22,female,british,college,2024-02-26_01h32.28.676,CRL1e,2023.2.3,Win32,10.01001001,65dbad3905fde4fe1981dc61,65dbea0f1a2dc71c38d69c25,,,,,,,,,,,623.9104,1.1,624.9844,624.9845,625.8686,left,1,0.883,,625.8687,626.7762,5,7,47,1,1,partial,2,images/Ex5.jpg,left,nonreversed,easy,1,,,,,
,,,,,60282d2ffedb021342e2df15,001,22,female,british,college,2024-02-26_01h32.28.676,CRL1e,2023.2.3,Win32,10.01001001,65dbad3905fde4fe1981dc61,65dbea0f1a2dc71c38d69c25,,,,,,,,,,,,,,,,,,,,,,,,,,,,,,,,,,626.7769,651.744,space,24.8103,