infCons.started,infCons.stopped,resp_consent.keys,resp_consent.rt,resp_consent.duration,participant,session,Age?,Gender?,Nationality?,Highest Educational Degree?,date,expName,psychopyVersion,OS,frameRate,STUDY_ID,SESSION_ID,instructions.started,instructions.stopped,resp_instructions.keys,resp_instructions.rt,resp_instructions.duration,nextTask.started,nextTask.stopped,ready_task.keys,ready_task.rt,ready_task.duration,fixation.started,ITI,fixation.stopped,stim.started,stim.stopped,response.keys,response.corr,response.rt,response.duration,feedback.started,feedback.stopped,trials.thisRepN,trials.thisTrialN,trials.thisN,trials.thisIndex,trials.ran,task,phase,Exemplars,r_correct,condition,difficulty,set,end.started,end.stopped,resp_end.keys,resp_end.rt,resp_end.duration
0.0002,28.2632,space,28.2421,,6047bf2d4d6168063087fe8e,001,31,Male,British,Batchelors Degree ,2024-02-26_15h38.51.703,CRL1e,2023.2.3,Win32,59.88023952,65dbad3905fde4fe1981dc61,65dcb06601b13e59954b8447,,,,,,,,,,,,,,,,,,,,,,,,,,,,,,,,,,,,,,
,,,,,6047bf2d4d6168063087fe8e,001,31,Male,British,Batchelors Degree ,2024-02-26_15h38.51.703,CRL1e,2023.2.3,Win32,59.88023952,65dbad3905fde4fe1981dc61,65dcb06601b13e59954b8447,28.2633,54.7872,space,26.5081,,,,,,,,,,,,,,,,,,,,,,,,,,,,,,,,,,
,,,,,6047bf2d4d6168063087fe8e,001,31,Male,British,Batchelors Degree ,2024-02-26_15h38.51.703,CRL1e,2023.2.3,Win32,59.88023952,65dbad3905fde4fe1981dc61,65dcb06601b13e59954b8447,,,,,,54.7952,57.5634,space,2.7561,,57.5656,0.6,58.1695,58.1695,60.1174,left,1,1.9462,,60.1175,61.1209,0,0,0,1,1,partial,1,images/Ex5.jpg,left,training,easy,2,,,,,
,,,,,6047bf2d4d6168063087fe8e,001,31,Male,British,Batchelors Degree ,2024-02-26_15h38.51.703,CRL1e,2023.2.3,Win32,59.88023952,65dbad3905fde4fe1981dc61,65dcb06601b13e59954b8447,,,,,,,,,,,61.1213,0.5,61.6137,61.6137,62.6729,left,0,1.0583,,62.673,63.6696,0,1,1,5,1,partial,1,images/Ex7.jpg,right,training,easy,2,,,,,
,,,,,6047bf2d4d6168063087fe8e,001,31,Male,British,Batchelors Degree ,2024-02-26_15h38.51.703,CRL1e,2023.2.3,Win32,59.88023952,65dbad3905fde4fe1981dc61,65dcb06601b13e59954b8447,,,,,,,,,,,63.6699,1.2,64.8723,64.8724,65.9223,left,1,1.0493,,65.9224,66.9143,0,2,2,3,1,partial,1,images/Ex6.jpg,left,training,easy,2,,,,,
,,,,,6047bf2d4d6168063087fe8e,001,31,Male,British,Batchelors Degree ,2024-02-26_15h38.51.703,CRL1e,2023.2.3,Win32,59.88023952,65dbad3905fde4fe1981dc61,65dcb06601b13e59954b8447,,,,,,,,,,,66.9146,1.4,68.3223,68.3224,68.9391,left,0,0.6162,,68.9392,69.9373,0,3,3,7,1,partial,1,images/Ex8.jpg,right,training,easy,2,,,,,
,,,,,6047bf2d4d6168063087fe8e,001,31,Male,British,Batchelors Degree ,2024-02-26_15h38.51.703,CRL1e,2023.2.3,Win32,59.88023952,65dbad3905fde4fe1981dc61,65dcb06601b13e59954b8447,,,,,,,,,,,69.9374,0.9,70.8397,70.8397,71.7817,left,1,0.9383,,71.7818,72.7816,0,4,4,2,1,partial,1,images/Ex6.jpg,left,training,easy,2,,,,,
,,,,,6047bf2d4d6168063087fe8e,001,31,Male,British,Batchelors Degree ,2024-02-26_15h38.51.703,CRL1e,2023.2.3,Win32,59.88023952,65dbad3905fde4fe1981dc61,65dcb06601b13e59954b8447,,,,,,,,,,,72.7818,1.4,74.1853,74.1853,74.6988,right,1,0.505,,74.6988,75.6891,0,5,5,6,1,partial,1,images/Ex8.jpg,right,training,easy,2,,,,,
,,,,,6047bf2d4d6168063087fe8e,001,31,Male,British,Batchelors Degree ,2024-02-26_15h38.51.703,CRL1e,2023.2.3,Win32,59.88023952,65dbad3905fde4fe1981dc61,65dcb06601b13e59954b8447,,,,,,,,,,,75.6892,1.2,76.8856,76.8857,77.6659,left,0,0.7758,,77.6659,78.6656,0,6,6,4,1,partial,1,images/Ex7.jpg,right,training,easy,2,,,,,
,,,,,6047bf2d4d6168063087fe8e,001,31,Male,British,Batchelors Degree ,2024-02-26_15h38.51.703,CRL1e,2023.2.3,Win32,59.88023952,65dbad3905fde4fe1981dc61,65dcb06601b13e59954b8447,,,,,,,,,,,78.6659,1,79.6739,79.6739,80.5241,left,1,0.8497,,80.5241,81.5231,0,7,7,0,1,partial,1,images/Ex5.jpg,left,training,easy,2,,,,,
,,,,,6047bf2d4d6168063087fe8e,001,31,Male,British,Batchelors Degree ,2024-02-26_15h38.51.703,CRL1e,2023.2.3,Win32,59.88023952,65dbad3905fde4fe1981dc61,65dcb06601b13e59954b8447,,,,,,,,,,,81.5234,1.2,82.7161,82.7161,83.9497,right,1,1.2238,,83.9497,84.9497,1,0,8,6,1,partial,1,images/Ex8.jpg,right,training,easy,2,,,,,
,,,,,6047bf2d4d6168063087fe8e,001,31,Male,British,Batchelors Degree ,2024-02-26_15h38.51.703,CRL1e,2023.2.3,Win32,59.88023952,65dbad3905fde4fe1981dc61,65dcb06601b13e59954b8447,,,,,,,,,,,84.9499,1.2,86.1499,86.1499,86.6334,right,0,0.4792,,86.6334,87.624,1,1,9,2,1,partial,1,images/Ex6.jpg,left,training,easy,2,,,,,
,,,,,6047bf2d4d6168063087fe8e,001,31,Male,British,Batchelors Degree ,2024-02-26_15h38.51.703,CRL1e,2023.2.3,Win32,59.88023952,65dbad3905fde4fe1981dc61,65dcb06601b13e59954b8447,,,,,,,,,,,87.6242,1.4,89.025,89.025,89.4338,left,1,0.4065,,89.4338,90.4399,1,2,10,3,1,partial,1,images/Ex6.jpg,left,training,easy,2,,,,,
,,,,,6047bf2d4d6168063087fe8e,001,31,Male,British,Batchelors Degree ,2024-02-26_15h38.51.703,CRL1e,2023.2.3,Win32,59.88023952,65dbad3905fde4fe1981dc61,65dcb06601b13e59954b8447,,,,,,,,,,,90.44,0.6,91.0337,91.0338,91.4585,right,1,0.4242,,91.4586,92.458,1,3,11,7,1,partial,1,images/Ex8.jpg,right,training,easy,2,,,,,
,,,,,6047bf2d4d6168063087fe8e,001,31,Male,British,Batchelors Degree ,2024-02-26_15h38.51.703,CRL1e,2023.2.3,Win32,59.88023952,65dbad3905fde4fe1981dc61,65dcb06601b13e59954b8447,,,,,,,,,,,92.4581,0.9,93.3507,93.3507,93.8509,left,0,0.4985,,93.8509,94.8583,1,4,12,4,1,partial,1,images/Ex7.jpg,right,training,easy,2,,,,,
,,,,,6047bf2d4d6168063087fe8e,001,31,Male,British,Batchelors Degree ,2024-02-26_15h38.51.703,CRL1e,2023.2.3,Win32,59.88023952,65dbad3905fde4fe1981dc61,65dcb06601b13e59954b8447,,,,,,,,,,,94.8586,0.8,95.657,95.657,96.0593,left,1,0.4016,,96.0593,97.0581,1,5,13,0,1,partial,1,images/Ex5.jpg,left,training,easy,2,,,,,
,,,,,6047bf2d4d6168063087fe8e,001,31,Male,British,Batchelors Degree ,2024-02-26_15h38.51.703,CRL1e,2023.2.3,Win32,59.88023952,65dbad3905fde4fe1981dc61,65dcb06601b13e59954b8447,,,,,,,,,,,97.0583,1.5,98.5596,98.5597,98.9015,right,0,0.3329,,98.9015,99.8923,1,6,14,1,1,partial,1,images/Ex5.jpg,left,training,easy,2,,,,,
,,,,,6047bf2d4d6168063087fe8e,001,31,Male,British,Batchelors Degree ,2024-02-26_15h38.51.703,CRL1e,2023.2.3,Win32,59.88023952,65dbad3905fde4fe1981dc61,65dcb06601b13e59954b8447,,,,,,,,,,,99.8925,1.2,101.0849,101.0849,101.8932,right,1,0.8079,,101.8932,102.8886,1,7,15,5,1,partial,1,images/Ex7.jpg,right,training,easy,2,,,,,
,,,,,6047bf2d4d6168063087fe8e,001,31,Male,British,Batchelors Degree ,2024-02-26_15h38.51.703,CRL1e,2023.2.3,Win32,59.88023952,65dbad3905fde4fe1981dc61,65dcb06601b13e59954b8447,,,,,,,,,,,102.8888,0.9,103.7931,103.7931,104.4599,left,0,0.6662,,104.46,105.4521,2,0,16,6,1,partial,1,images/Ex8.jpg,right,training,easy,2,,,,,
,,,,,6047bf2d4d6168063087fe8e,001,31,Male,British,Batchelors Degree ,2024-02-26_15h38.51.703,CRL1e,2023.2.3,Win32,59.88023952,65dbad3905fde4fe1981dc61,65dcb06601b13e59954b8447,,,,,,,,,,,105.4524,1.2,106.6602,106.6603,107.4859,left,1,0.8148,,107.4859,108.4761,2,1,17,0,1,partial,1,images/Ex5.jpg,left,training,easy,2,,,,,
,,,,,6047bf2d4d6168063087fe8e,001,31,Male,British,Batchelors Degree ,2024-02-26_15h38.51.703,CRL1e,2023.2.3,Win32,59.88023952,65dbad3905fde4fe1981dc61,65dcb06601b13e59954b8447,,,,,,,,,,,108.4763,0.8,109.2771,109.2771,109.9277,right,1,0.6501,,109.9277,110.9264,2,2,18,4,1,partial,1,images/Ex7.jpg,right,training,easy,2,,,,,
,,,,,6047bf2d4d6168063087fe8e,001,31,Male,British,Batchelors Degree ,2024-02-26_15h38.51.703,CRL1e,2023.2.3,Win32,59.88023952,65dbad3905fde4fe1981dc61,65dcb06601b13e59954b8447,,,,,,,,,,,110.9266,0.6,111.5195,111.5195,112.1398,right,1,0.6198,,112.1398,113.1364,2,3,19,5,1,partial,1,images/Ex7.jpg,right,training,easy,2,,,,,
,,,,,6047bf2d4d6168063087fe8e,001,31,Male,British,Batchelors Degree ,2024-02-26_15h38.51.703,CRL1e,2023.2.3,Win32,59.88023952,65dbad3905fde4fe1981dc61,65dcb06601b13e59954b8447,,,,,,,,,,,113.1368,1.3,114.4365,114.4365,115.2202,left,1,0.7807,,115.2202,116.2116,2,4,20,2,1,partial,1,images/Ex6.jpg,left,training,easy,2,,,,,
,,,,,6047bf2d4d6168063087fe8e,001,31,Male,British,Batchelors Degree ,2024-02-26_15h38.51.703,CRL1e,2023.2.3,Win32,59.88023952,65dbad3905fde4fe1981dc61,65dcb06601b13e59954b8447,,,,,,,,,,,116.2119,0.9,117.1035,117.1035,117.7116,right,0,0.6077,,117.7117,118.7037,2,5,21,1,1,partial,1,images/Ex5.jpg,left,training,easy,2,,,,,
,,,,,6047bf2d4d6168063087fe8e,001,31,Male,British,Batchelors Degree ,2024-02-26_15h38.51.703,CRL1e,2023.2.3,Win32,59.88023952,65dbad3905fde4fe1981dc61,65dcb06601b13e59954b8447,,,,,,,,,,,118.7039,1.2,119.9072,119.9073,120.6374,left,1,0.7248,,120.6375,121.6373,2,6,22,3,1,partial,1,images/Ex6.jpg,left,training,easy,2,,,,,
,,,,,6047bf2d4d6168063087fe8e,001,31,Male,British,Batchelors Degree ,2024-02-26_15h38.51.703,CRL1e,2023.2.3,Win32,59.88023952,65dbad3905fde4fe1981dc61,65dcb06601b13e59954b8447,,,,,,,,,,,121.6375,1.4,123.0287,123.0287,123.7456,left,0,0.7165,,123.7456,124.7453,2,7,23,7,1,partial,1,images/Ex8.jpg,right,training,easy,2,,,,,
,,,,,6047bf2d4d6168063087fe8e,001,31,Male,British,Batchelors Degree ,2024-02-26_15h38.51.703,CRL1e,2023.2.3,Win32,59.88023952,65dbad3905fde4fe1981dc61,65dcb06601b13e59954b8447,,,,,,,,,,,124.7454,0.8,125.5379,125.5379,126.3048,left,1,0.7623,,126.3048,127.295,3,0,24,3,1,partial,1,images/Ex6.jpg,left,training,easy,2,,,,,
,,,,,6047bf2d4d6168063087fe8e,001,31,Male,British,Batchelors Degree ,2024-02-26_15h38.51.703,CRL1e,2023.2.3,Win32,59.88023952,65dbad3905fde4fe1981dc61,65dcb06601b13e59954b8447,,,,,,,,,,,127.2952,0.9,128.1881,128.1881,128.9383,left,0,0.7393,,128.9384,129.9273,3,1,25,7,1,partial,1,images/Ex8.jpg,right,training,easy,2,,,,,
,,,,,6047bf2d4d6168063087fe8e,001,31,Male,British,Batchelors Degree ,2024-02-26_15h38.51.703,CRL1e,2023.2.3,Win32,59.88023952,65dbad3905fde4fe1981dc61,65dcb06601b13e59954b8447,,,,,,,,,,,129.9274,0.7,130.628,130.628,131.5302,right,1,0.9015,,131.5302,132.5279,3,2,26,4,1,partial,1,images/Ex7.jpg,right,training,easy,2,,,,,
,,,,,6047bf2d4d6168063087fe8e,001,31,Male,British,Batchelors Degree ,2024-02-26_15h38.51.703,CRL1e,2023.2.3,Win32,59.88023952,65dbad3905fde4fe1981dc61,65dcb06601b13e59954b8447,,,,,,,,,,,132.5282,0.8,133.322,133.322,133.947,left,1,0.6245,,133.947,134.9388,3,3,27,1,1,partial,1,images/Ex5.jpg,left,training,easy,2,,,,,
,,,,,6047bf2d4d6168063087fe8e,001,31,Male,British,Batchelors Degree ,2024-02-26_15h38.51.703,CRL1e,2023.2.3,Win32,59.88023952,65dbad3905fde4fe1981dc61,65dcb06601b13e59954b8447,,,,,,,,,,,134.939,1.4,136.3303,136.3303,137.206,right,1,0.8707,,137.206,138.1962,3,4,28,5,1,partial,1,images/Ex7.jpg,right,training,easy,2,,,,,
,,,,,6047bf2d4d6168063087fe8e,001,31,Male,British,Batchelors Degree ,2024-02-26_15h38.51.703,CRL1e,2023.2.3,Win32,59.88023952,65dbad3905fde4fe1981dc61,65dcb06601b13e59954b8447,,,,,,,,,,,138.1964,0.7,138.8931,138.8932,139.8811,right,0,0.9873,,139.8811,140.8789,3,5,29,2,1,partial,1,images/Ex6.jpg,left,training,easy,2,,,,,
,,,,,6047bf2d4d6168063087fe8e,001,31,Male,British,Batchelors Degree ,2024-02-26_15h38.51.703,CRL1e,2023.2.3,Win32,59.88023952,65dbad3905fde4fe1981dc61,65dcb06601b13e59954b8447,,,,,,,,,,,140.8791,1.1,141.973,141.973,142.748,left,0,0.7744,,142.748,143.7473,3,6,30,6,1,partial,1,images/Ex8.jpg,right,training,easy,2,,,,,
,,,,,6047bf2d4d6168063087fe8e,001,31,Male,British,Batchelors Degree ,2024-02-26_15h38.51.703,CRL1e,2023.2.3,Win32,59.88023952,65dbad3905fde4fe1981dc61,65dcb06601b13e59954b8447,,,,,,,,,,,143.7476,1.3,145.04,145.04,145.7484,right,0,0.7077,,145.7484,146.7482,3,7,31,0,1,partial,1,images/Ex5.jpg,left,training,easy,2,,,,,
,,,,,6047bf2d4d6168063087fe8e,001,31,Male,British,Batchelors Degree ,2024-02-26_15h38.51.703,CRL1e,2023.2.3,Win32,59.88023952,65dbad3905fde4fe1981dc61,65dcb06601b13e59954b8447,,,,,,,,,,,146.7484,0.7,147.4403,147.4403,148.2485,left,1,0.8076,,148.2486,149.2478,4,0,32,2,1,partial,1,images/Ex6.jpg,left,training,easy,2,,,,,
,,,,,6047bf2d4d6168063087fe8e,001,31,Male,British,Batchelors Degree ,2024-02-26_15h38.51.703,CRL1e,2023.2.3,Win32,59.88023952,65dbad3905fde4fe1981dc61,65dcb06601b13e59954b8447,,,,,,,,,,,149.2479,1.3,150.5407,150.5407,151.3077,left,1,0.7643,,151.3077,152.298,4,1,33,0,1,partial,1,images/Ex5.jpg,left,training,easy,2,,,,,
,,,,,6047bf2d4d6168063087fe8e,001,31,Male,British,Batchelors Degree ,2024-02-26_15h38.51.703,CRL1e,2023.2.3,Win32,59.88023952,65dbad3905fde4fe1981dc61,65dcb06601b13e59954b8447,,,,,,,,,,,152.2982,0.9,153.191,153.1911,154.0413,left,1,0.8401,,154.0413,155.032,4,2,34,1,1,partial,1,images/Ex5.jpg,left,training,easy,2,,,,,
,,,,,6047bf2d4d6168063087fe8e,001,31,Male,British,Batchelors Degree ,2024-02-26_15h38.51.703,CRL1e,2023.2.3,Win32,59.88023952,65dbad3905fde4fe1981dc61,65dcb06601b13e59954b8447,,,,,,,,,,,155.0323,0.9,155.9327,155.9327,156.4915,right,1,0.5556,,156.4915,157.4821,4,3,35,5,1,partial,1,images/Ex7.jpg,right,training,easy,2,,,,,
,,,,,6047bf2d4d6168063087fe8e,001,31,Male,British,Batchelors Degree ,2024-02-26_15h38.51.703,CRL1e,2023.2.3,Win32,59.88023952,65dbad3905fde4fe1981dc61,65dcb06601b13e59954b8447,,,,,,,,,,,157.4824,0.6,158.0749,158.0749,158.6419,right,1,0.5653,,158.6419,159.6418,4,4,36,4,1,partial,1,images/Ex7.jpg,right,training,easy,2,,,,,
,,,,,6047bf2d4d6168063087fe8e,001,31,Male,British,Batchelors Degree ,2024-02-26_15h38.51.703,CRL1e,2023.2.3,Win32,59.88023952,65dbad3905fde4fe1981dc61,65dcb06601b13e59954b8447,,,,,,,,,,,159.642,1.2,160.8498,160.8498,161.4922,right,0,0.6315,,161.4922,162.4921,4,5,37,3,1,partial,1,images/Ex6.jpg,left,training,easy,2,,,,,
,,,,,6047bf2d4d6168063087fe8e,001,31,Male,British,Batchelors Degree ,2024-02-26_15h38.51.703,CRL1e,2023.2.3,Win32,59.88023952,65dbad3905fde4fe1981dc61,65dcb06601b13e59954b8447,,,,,,,,,,,162.4923,0.5,162.9922,162.9922,164.2592,left,0,1.2631,,164.2592,165.2667,4,6,38,6,1,partial,1,images/Ex8.jpg,right,training,easy,2,,,,,
,,,,,6047bf2d4d6168063087fe8e,001,31,Male,British,Batchelors Degree ,2024-02-26_15h38.51.703,CRL1e,2023.2.3,Win32,59.88023952,65dbad3905fde4fe1981dc61,65dcb06601b13e59954b8447,,,,,,,,,,,165.2669,1.4,166.6593,166.6593,167.3595,right,1,0.6952,,167.3596,168.3652,4,7,39,7,1,partial,1,images/Ex8.jpg,right,training,easy,2,,,,,
,,,,,6047bf2d4d6168063087fe8e,001,31,Male,British,Batchelors Degree ,2024-02-26_15h38.51.703,CRL1e,2023.2.3,Win32,59.88023952,65dbad3905fde4fe1981dc61,65dcb06601b13e59954b8447,,,,,,,,,,,168.3654,1,169.3595,169.3596,170.2933,left,1,0.923,,170.2933,171.2932,5,0,40,0,1,partial,1,images/Ex5.jpg,left,training,easy,2,,,,,
,,,,,6047bf2d4d6168063087fe8e,001,31,Male,British,Batchelors Degree ,2024-02-26_15h38.51.703,CRL1e,2023.2.3,Win32,59.88023952,65dbad3905fde4fe1981dc61,65dcb06601b13e59954b8447,,,,,,,,,,,171.2934,0.6,171.9016,171.9016,172.7434,right,1,0.8396,,172.7435,173.7507,5,1,41,6,1,partial,1,images/Ex8.jpg,right,training,easy,2,,,,,
,,,,,6047bf2d4d6168063087fe8e,001,31,Male,British,Batchelors Degree ,2024-02-26_15h38.51.703,CRL1e,2023.2.3,Win32,59.88023952,65dbad3905fde4fe1981dc61,65dcb06601b13e59954b8447,,,,,,,,,,,173.7509,1.1,174.8435,174.8435,175.4438,right,1,0.5936,,175.4438,176.4439,5,2,42,7,1,partial,1,images/Ex8.jpg,right,training,easy,2,,,,,
,,,,,6047bf2d4d6168063087fe8e,001,31,Male,British,Batchelors Degree ,2024-02-26_15h38.51.703,CRL1e,2023.2.3,Win32,59.88023952,65dbad3905fde4fe1981dc61,65dcb06601b13e59954b8447,,,,,,,,,,,176.444,1.4,177.8336,177.8336,178.3812,right,1,0.547,,178.3812,179.3774,5,3,43,5,1,partial,1,images/Ex7.jpg,right,training,easy,2,,,,,
,,,,,6047bf2d4d6168063087fe8e,001,31,Male,British,Batchelors Degree ,2024-02-26_15h38.51.703,CRL1e,2023.2.3,Win32,59.88023952,65dbad3905fde4fe1981dc61,65dcb06601b13e59954b8447,,,,,,,,,,,179.3777,0.7,180.0775,180.0776,180.7444,right,1,0.6566,,180.7444,181.7349,5,4,44,4,1,partial,1,images/Ex7.jpg,right,training,easy,2,,,,,
,,,,,6047bf2d4d6168063087fe8e,001,31,Male,British,Batchelors Degree ,2024-02-26_15h38.51.703,CRL1e,2023.2.3,Win32,59.88023952,65dbad3905fde4fe1981dc61,65dcb06601b13e59954b8447,,,,,,,,,,,181.7351,0.9,182.6278,182.6278,184.0859,left,1,1.4575,,184.0859,185.0853,5,5,45,3,1,partial,1,images/Ex6.jpg,left,training,easy,2,,,,,
,,,,,6047bf2d4d6168063087fe8e,001,31,Male,British,Batchelors Degree ,2024-02-26_15h38.51.703,CRL1e,2023.2.3,Win32,59.88023952,65dbad3905fde4fe1981dc61,65dcb06601b13e59954b8447,,,,,,,,,,,185.0855,1,186.0782,186.0782,187.07,left,1,0.9913,,187.07,188.0691,5,6,46,1,1,partial,1,images/Ex5.jpg,left,training,easy,2,,,,,
,,,,,6047bf2d4d6168063087fe8e,001,31,Male,British,Batchelors Degree ,2024-02-26_15h38.51.703,CRL1e,2023.2.3,Win32,59.88023952,65dbad3905fde4fe1981dc61,65dcb06601b13e59954b8447,,,,,,,,,,,188.0692,1.4,189.4619,189.4619,190.32,left,1,0.8575,,190.32,191.3121,5,7,47,2,1,partial,1,images/Ex6.jpg,left,training,easy,2,,,,,
,,,,,6047bf2d4d6168063087fe8e,001,31,Male,British,Batchelors Degree ,2024-02-26_15h38.51.703,CRL1e,2023.2.3,Win32,59.88023952,65dbad3905fde4fe1981dc61,65dcb06601b13e59954b8447,,,,,,,,,,,191.314,0.8,192.1018,192.1019,193.3126,right,1,1.2002,,193.3126,194.3196,0,0,0,7,1,partial,2,images/Ex8.jpg,right,nonreversed,easy,2,,,,,
,,,,,6047bf2d4d6168063087fe8e,001,31,Male,British,Batchelors Degree ,2024-02-26_15h38.51.703,CRL1e,2023.2.3,Win32,59.88023952,65dbad3905fde4fe1981dc61,65dcb06601b13e59954b8447,,,,,,,,,,,194.3198,1.3,195.6127,195.6127,196.6042,right,1,0.9911,,196.6042,197.5997,0,1,1,6,1,partial,2,images/Ex8.jpg,right,nonreversed,easy,2,,,,,
,,,,,6047bf2d4d6168063087fe8e,001,31,Male,British,Batchelors Degree ,2024-02-26_15h38.51.703,CRL1e,2023.2.3,Win32,59.88023952,65dbad3905fde4fe1981dc61,65dcb06601b13e59954b8447,,,,,,,,,,,197.5998,1.1,198.6963,198.6964,199.4299,right,0,0.7286,,199.4299,200.4299,0,2,2,5,1,partial,2,images/Ex7.jpg,left,reversed,easy,2,,,,,
,,,,,6047bf2d4d6168063087fe8e,001,31,Male,British,Batchelors Degree ,2024-02-26_15h38.51.703,CRL1e,2023.2.3,Win32,59.88023952,65dbad3905fde4fe1981dc61,65dcb06601b13e59954b8447,,,,,,,,,,,200.4301,1.2,201.6195,201.6195,202.347,left,1,0.7209,,202.347,203.3469,0,3,3,3,1,partial,2,images/Ex6.jpg,left,nonreversed,easy,2,,,,,
,,,,,6047bf2d4d6168063087fe8e,001,31,Male,British,Batchelors Degree ,2024-02-26_15h38.51.703,CRL1e,2023.2.3,Win32,59.88023952,65dbad3905fde4fe1981dc61,65dcb06601b13e59954b8447,,,,,,,,,,,203.347,0.9,204.247,204.2471,204.7805,right,0,0.5291,,204.7805,205.7713,0,4,4,4,1,partial,2,images/Ex7.jpg,left,reversed,easy,2,,,,,
,,,,,6047bf2d4d6168063087fe8e,001,31,Male,British,Batchelors Degree ,2024-02-26_15h38.51.703,CRL1e,2023.2.3,Win32,59.88023952,65dbad3905fde4fe1981dc61,65dcb06601b13e59954b8447,,,,,,,,,,,205.7715,0.7,206.472,206.472,207.3309,left,0,0.8481,,207.3309,208.3383,0,5,5,1,1,partial,2,images/Ex5.jpg,right,reversed,easy,2,,,,,
,,,,,6047bf2d4d6168063087fe8e,001,31,Male,British,Batchelors Degree ,2024-02-26_15h38.51.703,CRL1e,2023.2.3,Win32,59.88023952,65dbad3905fde4fe1981dc61,65dcb06601b13e59954b8447,,,,,,,,,,,208.3385,0.8,209.1388,209.1388,210.6479,left,0,1.4986,,210.6479,211.6388,0,6,6,0,1,partial,2,images/Ex5.jpg,right,reversed,easy,2,,,,,
,,,,,6047bf2d4d6168063087fe8e,001,31,Male,British,Batchelors Degree ,2024-02-26_15h38.51.703,CRL1e,2023.2.3,Win32,59.88023952,65dbad3905fde4fe1981dc61,65dcb06601b13e59954b8447,,,,,,,,,,,211.639,1.3,212.9314,212.9314,214.1821,right,0,1.2418,,214.1821,215.1724,0,7,7,2,1,partial,2,images/Ex6.jpg,left,nonreversed,easy,2,,,,,
,,,,,6047bf2d4d6168063087fe8e,001,31,Male,British,Batchelors Degree ,2024-02-26_15h38.51.703,CRL1e,2023.2.3,Win32,59.88023952,65dbad3905fde4fe1981dc61,65dcb06601b13e59954b8447,,,,,,,,,,,215.1727,1.5,216.6712,216.6712,217.5733,right,1,0.9016,,217.5733,218.5724,1,0,8,7,1,partial,2,images/Ex8.jpg,right,nonreversed,easy,2,,,,,
,,,,,6047bf2d4d6168063087fe8e,001,31,Male,British,Batchelors Degree ,2024-02-26_15h38.51.703,CRL1e,2023.2.3,Win32,59.88023952,65dbad3905fde4fe1981dc61,65dcb06601b13e59954b8447,,,,,,,,,,,218.5726,0.9,219.4735,219.4735,220.2491,right,1,0.7666,,220.2491,221.2549,1,1,9,6,1,partial,2,images/Ex8.jpg,right,nonreversed,easy,2,,,,,
,,,,,6047bf2d4d6168063087fe8e,001,31,Male,British,Batchelors Degree ,2024-02-26_15h38.51.703,CRL1e,2023.2.3,Win32,59.88023952,65dbad3905fde4fe1981dc61,65dcb06601b13e59954b8447,,,,,,,,,,,221.2552,1.4,222.6491,222.6491,223.5495,left,0,0.8909,,223.5495,224.5494,1,2,10,0,1,partial,2,images/Ex5.jpg,right,reversed,easy,2,,,,,
,,,,,6047bf2d4d6168063087fe8e,001,31,Male,British,Batchelors Degree ,2024-02-26_15h38.51.703,CRL1e,2023.2.3,Win32,59.88023952,65dbad3905fde4fe1981dc61,65dcb06601b13e59954b8447,,,,,,,,,,,224.5496,0.8,225.3495,225.3495,225.983,right,0,0.6307,,225.983,226.9865,1,3,11,5,1,partial,2,images/Ex7.jpg,left,reversed,easy,2,,,,,
,,,,,6047bf2d4d6168063087fe8e,001,31,Male,British,Batchelors Degree ,2024-02-26_15h38.51.703,CRL1e,2023.2.3,Win32,59.88023952,65dbad3905fde4fe1981dc61,65dcb06601b13e59954b8447,,,,,,,,,,,226.9866,0.8,227.7831,227.7831,229.9536,left,0,2.1699,,229.9536,230.9579,1,4,12,1,1,partial,2,images/Ex5.jpg,right,reversed,easy,2,,,,,
,,,,,6047bf2d4d6168063087fe8e,001,31,Male,British,Batchelors Degree ,2024-02-26_15h38.51.703,CRL1e,2023.2.3,Win32,59.88023952,65dbad3905fde4fe1981dc61,65dcb06601b13e59954b8447,,,,,,,,,,,230.963,1.5,232.4563,232.4564,233.7418,right,0,1.285,,233.7418,234.7372,1,5,13,2,1,partial,2,images/Ex6.jpg,left,nonreversed,easy,2,,,,,
,,,,,6047bf2d4d6168063087fe8e,001,31,Male,British,Batchelors Degree ,2024-02-26_15h38.51.703,CRL1e,2023.2.3,Win32,59.88023952,65dbad3905fde4fe1981dc61,65dcb06601b13e59954b8447,,,,,,,,,,,234.7374,1.3,236.034,236.0341,237.0089,left,1,0.9743,,237.0089,238.001,1,6,14,3,1,partial,2,images/Ex6.jpg,left,nonreversed,easy,2,,,,,
,,,,,6047bf2d4d6168063087fe8e,001,31,Male,British,Batchelors Degree ,2024-02-26_15h38.51.703,CRL1e,2023.2.3,Win32,59.88023952,65dbad3905fde4fe1981dc61,65dcb06601b13e59954b8447,,,,,,,,,,,238.0013,1,239.0011,239.0012,240.2681,right,0,1.2588,,240.2681,241.2589,1,7,15,4,1,partial,2,images/Ex7.jpg,left,reversed,easy,2,,,,,
,,,,,6047bf2d4d6168063087fe8e,001,31,Male,British,Batchelors Degree ,2024-02-26_15h38.51.703,CRL1e,2023.2.3,Win32,59.88023952,65dbad3905fde4fe1981dc61,65dcb06601b13e59954b8447,,,,,,,,,,,241.2593,1.4,242.6514,242.6514,243.7764,left,1,1.1246,,243.7765,244.7684,2,0,16,4,1,partial,2,images/Ex7.jpg,left,reversed,easy,2,,,,,
,,,,,6047bf2d4d6168063087fe8e,001,31,Male,British,Batchelors Degree ,2024-02-26_15h38.51.703,CRL1e,2023.2.3,Win32,59.88023952,65dbad3905fde4fe1981dc61,65dcb06601b13e59954b8447,,,,,,,,,,,244.7687,1,245.7686,245.7686,246.5521,left,1,0.7728,,246.5521,247.5521,2,1,17,5,1,partial,2,images/Ex7.jpg,left,reversed,easy,2,,,,,
,,,,,6047bf2d4d6168063087fe8e,001,31,Male,British,Batchelors Degree ,2024-02-26_15h38.51.703,CRL1e,2023.2.3,Win32,59.88023952,65dbad3905fde4fe1981dc61,65dcb06601b13e59954b8447,,,,,,,,,,,247.5523,0.8,248.3601,248.3601,249.7026,left,0,1.3361,,249.7026,250.7057,2,2,18,1,1,partial,2,images/Ex5.jpg,right,reversed,easy,2,,,,,
,,,,,6047bf2d4d6168063087fe8e,001,31,Male,British,Batchelors Degree ,2024-02-26_15h38.51.703,CRL1e,2023.2.3,Win32,59.88023952,65dbad3905fde4fe1981dc61,65dcb06601b13e59954b8447,,,,,,,,,,,250.7059,0.8,251.4939,251.494,252.2694,left,1,0.772,,252.2694,253.2766,2,3,19,2,1,partial,2,images/Ex6.jpg,left,nonreversed,easy,2,,,,,
,,,,,6047bf2d4d6168063087fe8e,001,31,Male,British,Batchelors Degree ,2024-02-26_15h38.51.703,CRL1e,2023.2.3,Win32,59.88023952,65dbad3905fde4fe1981dc61,65dcb06601b13e59954b8447,,,,,,,,,,,253.2768,0.9,254.1695,254.1695,254.503,left,1,0.3286,,254.5031,255.503,2,4,20,3,1,partial,2,images/Ex6.jpg,left,nonreversed,easy,2,,,,,
,,,,,6047bf2d4d6168063087fe8e,001,31,Male,British,Batchelors Degree ,2024-02-26_15h38.51.703,CRL1e,2023.2.3,Win32,59.88023952,65dbad3905fde4fe1981dc61,65dcb06601b13e59954b8447,,,,,,,,,,,255.5031,1.4,256.9112,256.9112,257.6034,right,1,0.6879,,257.6034,258.6105,2,5,21,7,1,partial,2,images/Ex8.jpg,right,nonreversed,easy,2,,,,,
,,,,,6047bf2d4d6168063087fe8e,001,31,Male,British,Batchelors Degree ,2024-02-26_15h38.51.703,CRL1e,2023.2.3,Win32,59.88023952,65dbad3905fde4fe1981dc61,65dcb06601b13e59954b8447,,,,,,,,,,,258.6107,0.6,259.2113,259.2113,260.1449,right,1,0.9332,,260.1449,261.144,2,6,22,6,1,partial,2,images/Ex8.jpg,right,nonreversed,easy,2,,,,,
,,,,,6047bf2d4d6168063087fe8e,001,31,Male,British,Batchelors Degree ,2024-02-26_15h38.51.703,CRL1e,2023.2.3,Win32,59.88023952,65dbad3905fde4fe1981dc61,65dcb06601b13e59954b8447,,,,,,,,,,,261.1443,1.3,262.4372,262.4372,263.2787,left,0,0.8411,,263.2787,264.2783,2,7,23,0,1,partial,2,images/Ex5.jpg,right,reversed,easy,2,,,,,
,,,,,6047bf2d4d6168063087fe8e,001,31,Male,British,Batchelors Degree ,2024-02-26_15h38.51.703,CRL1e,2023.2.3,Win32,59.88023952,65dbad3905fde4fe1981dc61,65dcb06601b13e59954b8447,,,,,,,,,,,264.2787,1.4,265.6791,265.6791,266.1378,left,1,0.4529,,266.1379,267.1378,3,0,24,5,1,partial,2,images/Ex7.jpg,left,reversed,easy,2,,,,,
,,,,,6047bf2d4d6168063087fe8e,001,31,Male,British,Batchelors Degree ,2024-02-26_15h38.51.703,CRL1e,2023.2.3,Win32,59.88023952,65dbad3905fde4fe1981dc61,65dcb06601b13e59954b8447,,,,,,,,,,,267.138,0.6,267.7291,267.7291,268.0627,left,0,0.3331,,268.0627,269.0545,3,1,25,1,1,partial,2,images/Ex5.jpg,right,reversed,easy,2,,,,,
,,,,,6047bf2d4d6168063087fe8e,001,31,Male,British,Batchelors Degree ,2024-02-26_15h38.51.703,CRL1e,2023.2.3,Win32,59.88023952,65dbad3905fde4fe1981dc61,65dcb06601b13e59954b8447,,,,,,,,,,,269.0547,1.5,270.5609,270.5609,271.0053,left,0,0.4384,,271.0053,272.0127,3,2,26,6,1,partial,2,images/Ex8.jpg,right,nonreversed,easy,2,,,,,
,,,,,6047bf2d4d6168063087fe8e,001,31,Male,British,Batchelors Degree ,2024-02-26_15h38.51.703,CRL1e,2023.2.3,Win32,59.88023952,65dbad3905fde4fe1981dc61,65dcb06601b13e59954b8447,,,,,,,,,,,272.0128,0.8,272.8084,272.8084,273.3465,left,1,0.5376,,273.3466,274.3385,3,3,27,4,1,partial,2,images/Ex7.jpg,left,reversed,easy,2,,,,,
,,,,,6047bf2d4d6168063087fe8e,001,31,Male,British,Batchelors Degree ,2024-02-26_15h38.51.703,CRL1e,2023.2.3,Win32,59.88023952,65dbad3905fde4fe1981dc61,65dcb06601b13e59954b8447,,,,,,,,,,,274.3387,1.3,275.6447,275.6447,276.0722,left,0,0.4213,,276.0723,277.0722,3,4,28,7,1,partial,2,images/Ex8.jpg,right,nonreversed,easy,2,,,,,
,,,,,6047bf2d4d6168063087fe8e,001,31,Male,British,Batchelors Degree ,2024-02-26_15h38.51.703,CRL1e,2023.2.3,Win32,59.88023952,65dbad3905fde4fe1981dc61,65dcb06601b13e59954b8447,,,,,,,,,,,277.0724,1.5,278.5724,278.5724,279.7471,left,1,1.1741,,279.7472,280.7393,3,5,29,2,1,partial,2,images/Ex6.jpg,left,nonreversed,easy,2,,,,,
,,,,,6047bf2d4d6168063087fe8e,001,31,Male,British,Batchelors Degree ,2024-02-26_15h38.51.703,CRL1e,2023.2.3,Win32,59.88023952,65dbad3905fde4fe1981dc61,65dcb06601b13e59954b8447,,,,,,,,,,,280.7394,0.6,281.3305,281.3305,281.8976,right,0,0.5665,,281.8976,282.8895,3,6,30,3,1,partial,2,images/Ex6.jpg,left,nonreversed,easy,2,,,,,
,,,,,6047bf2d4d6168063087fe8e,001,31,Male,British,Batchelors Degree ,2024-02-26_15h38.51.703,CRL1e,2023.2.3,Win32,59.88023952,65dbad3905fde4fe1981dc61,65dcb06601b13e59954b8447,,,,,,,,,,,282.8897,0.8,283.681,283.681,284.1144,right,1,0.4323,,284.1144,285.1065,3,7,31,0,1,partial,2,images/Ex5.jpg,right,reversed,easy,2,,,,,
,,,,,6047bf2d4d6168063087fe8e,001,31,Male,British,Batchelors Degree ,2024-02-26_15h38.51.703,CRL1e,2023.2.3,Win32,59.88023952,65dbad3905fde4fe1981dc61,65dcb06601b13e59954b8447,,,,,,,,,,,285.1067,1.4,286.498,286.498,286.8235,right,1,0.3238,,286.8235,287.8304,4,0,32,1,1,partial,2,images/Ex5.jpg,right,reversed,easy,2,,,,,
,,,,,6047bf2d4d6168063087fe8e,001,31,Male,British,Batchelors Degree ,2024-02-26_15h38.51.703,CRL1e,2023.2.3,Win32,59.88023952,65dbad3905fde4fe1981dc61,65dcb06601b13e59954b8447,,,,,,,,,,,287.8306,0.8,288.6235,288.6236,289.1905,left,1,0.5559,,289.1905,290.1904,4,1,33,2,1,partial,2,images/Ex6.jpg,left,nonreversed,easy,2,,,,,
,,,,,6047bf2d4d6168063087fe8e,001,31,Male,British,Batchelors Degree ,2024-02-26_15h38.51.703,CRL1e,2023.2.3,Win32,59.88023952,65dbad3905fde4fe1981dc61,65dcb06601b13e59954b8447,,,,,,,,,,,290.1906,1.4,291.5987,291.5987,292.5741,left,1,0.9658,,292.5742,293.5644,4,2,34,4,1,partial,2,images/Ex7.jpg,left,reversed,easy,2,,,,,
,,,,,6047bf2d4d6168063087fe8e,001,31,Male,British,Batchelors Degree ,2024-02-26_15h38.51.703,CRL1e,2023.2.3,Win32,59.88023952,65dbad3905fde4fe1981dc61,65dcb06601b13e59954b8447,,,,,,,,,,,293.5646,1.2,294.7575,294.7575,295.2657,right,1,0.5075,,295.2657,296.2577,4,3,35,0,1,partial,2,images/Ex5.jpg,right,reversed,easy,2,,,,,
,,,,,6047bf2d4d6168063087fe8e,001,31,Male,British,Batchelors Degree ,2024-02-26_15h38.51.703,CRL1e,2023.2.3,Win32,59.88023952,65dbad3905fde4fe1981dc61,65dcb06601b13e59954b8447,,,,,,,,,,,296.258,0.9,297.1492,297.1492,297.9494,right,1,0.7996,,297.9494,298.9413,4,4,36,7,1,partial,2,images/Ex8.jpg,right,nonreversed,easy,2,,,,,
,,,,,6047bf2d4d6168063087fe8e,001,31,Male,British,Batchelors Degree ,2024-02-26_15h38.51.703,CRL1e,2023.2.3,Win32,59.88023952,65dbad3905fde4fe1981dc61,65dcb06601b13e59954b8447,,,,,,,,,,,298.9416,1.3,300.2331,300.2331,300.6844,left,1,0.4508,,300.6845,301.6751,4,5,37,3,1,partial,2,images/Ex6.jpg,left,nonreversed,easy,2,,,,,
,,,,,6047bf2d4d6168063087fe8e,001,31,Male,British,Batchelors Degree ,2024-02-26_15h38.51.703,CRL1e,2023.2.3,Win32,59.88023952,65dbad3905fde4fe1981dc61,65dcb06601b13e59954b8447,,,,,,,,,,,301.6753,0.5,302.1831,302.1832,302.6818,left,1,0.4981,,302.6818,303.6753,4,6,38,5,1,partial,2,images/Ex7.jpg,left,reversed,easy,2,,,,,
,,,,,6047bf2d4d6168063087fe8e,001,31,Male,British,Batchelors Degree ,2024-02-26_15h38.51.703,CRL1e,2023.2.3,Win32,59.88023952,65dbad3905fde4fe1981dc61,65dcb06601b13e59954b8447,,,,,,,,,,,303.6754,1.2,304.8667,304.8667,305.2319,right,1,0.3645,,305.2319,306.2326,4,7,39,6,1,partial,2,images/Ex8.jpg,right,nonreversed,easy,2,,,,,
,,,,,6047bf2d4d6168063087fe8e,001,31,Male,British,Batchelors Degree ,2024-02-26_15h38.51.703,CRL1e,2023.2.3,Win32,59.88023952,65dbad3905fde4fe1981dc61,65dcb06601b13e59954b8447,,,,,,,,,,,306.2328,0.8,307.0336,307.0337,307.384,right,1,0.3499,,307.384,308.3759,5,0,40,6,1,partial,2,images/Ex8.jpg,right,nonreversed,easy,2,,,,,
,,,,,6047bf2d4d6168063087fe8e,001,31,Male,British,Batchelors Degree ,2024-02-26_15h38.51.703,CRL1e,2023.2.3,Win32,59.88023952,65dbad3905fde4fe1981dc61,65dcb06601b13e59954b8447,,,,,,,,,,,308.3761,0.7,309.0672,309.0672,309.4008,left,0,0.3332,,309.4009,310.3928,5,1,41,1,1,partial,2,images/Ex5.jpg,right,reversed,easy,2,,,,,
,,,,,6047bf2d4d6168063087fe8e,001,31,Male,British,Batchelors Degree ,2024-02-26_15h38.51.703,CRL1e,2023.2.3,Win32,59.88023952,65dbad3905fde4fe1981dc61,65dcb06601b13e59954b8447,,,,,,,,,,,310.3929,1.3,311.6929,311.6929,311.9177,right,0,0.2242,,311.9178,312.9171,5,2,42,3,1,partial,2,images/Ex6.jpg,left,nonreversed,easy,2,,,,,
,,,,,6047bf2d4d6168063087fe8e,001,31,Male,British,Batchelors Degree ,2024-02-26_15h38.51.703,CRL1e,2023.2.3,Win32,59.88023952,65dbad3905fde4fe1981dc61,65dcb06601b13e59954b8447,,,,,,,,,,,312.9173,1.4,314.3099,314.3099,314.8434,left,0,0.53,,314.8434,315.8509,5,3,43,0,1,partial,2,images/Ex5.jpg,right,reversed,easy,2,,,,,
,,,,,6047bf2d4d6168063087fe8e,001,31,Male,British,Batchelors Degree ,2024-02-26_15h38.51.703,CRL1e,2023.2.3,Win32,59.88023952,65dbad3905fde4fe1981dc61,65dcb06601b13e59954b8447,,,,,,,,,,,315.8511,1.5,317.3436,317.3436,317.7772,left,1,0.4228,,317.7772,318.7678,5,4,44,2,1,partial,2,images/Ex6.jpg,left,nonreversed,easy,2,,,,,
,,,,,6047bf2d4d6168063087fe8e,001,31,Male,British,Batchelors Degree ,2024-02-26_15h38.51.703,CRL1e,2023.2.3,Win32,59.88023952,65dbad3905fde4fe1981dc61,65dcb06601b13e59954b8447,,,,,,,,,,,318.7679,0.8,319.5605,319.5605,319.9272,left,1,0.3562,,319.9273,320.9272,5,5,45,5,1,partial,2,images/Ex7.jpg,left,reversed,easy,2,,,,,
,,,,,6047bf2d4d6168063087fe8e,001,31,Male,British,Batchelors Degree ,2024-02-26_15h38.51.703,CRL1e,2023.2.3,Win32,59.88023952,65dbad3905fde4fe1981dc61,65dcb06601b13e59954b8447,,,,,,,,,,,320.9274,1.1,322.0274,322.0274,322.3358,right,1,0.3078,,322.3359,323.331,5,6,46,7,1,partial,2,images/Ex8.jpg,right,nonreversed,easy,2,,,,,
,,,,,6047bf2d4d6168063087fe8e,001,31,Male,British,Batchelors Degree ,2024-02-26_15h38.51.703,CRL1e,2023.2.3,Win32,59.88023952,65dbad3905fde4fe1981dc61,65dcb06601b13e59954b8447,,,,,,,,,,,323.3311,1.4,324.7277,324.7278,325.1368,right,0,0.4085,,325.1368,326.1279,5,7,47,4,1,partial,2,images/Ex7.jpg,left,reversed,easy,2,,,,,
,,,,,6047bf2d4d6168063087fe8e,001,31,Male,British,Batchelors Degree ,2024-02-26_15h38.51.703,CRL1e,2023.2.3,Win32,59.88023952,65dbad3905fde4fe1981dc61,65dcb06601b13e59954b8447,,,,,,326.1285,329.9218,space,3.7695,,329.9285,1.2,331.1364,331.1364,332.212,left,0,1.0706,,332.2121,333.2011,0,0,0,5,1,total,1,images/Ex3.jpg,right,training,easy,2,,,,,
,,,,,6047bf2d4d6168063087fe8e,001,31,Male,British,Batchelors Degree ,2024-02-26_15h38.51.703,CRL1e,2023.2.3,Win32,59.88023952,65dbad3905fde4fe1981dc61,65dcb06601b13e59954b8447,,,,,,,,,,,333.2013,1.4,334.5956,334.5956,335.3204,right,1,0.7244,,335.3204,336.3124,0,1,1,4,1,total,1,images/Ex3.jpg,right,training,easy,2,,,,,
,,,,,6047bf2d4d6168063087fe8e,001,31,Male,British,Batchelors Degree ,2024-02-26_15h38.51.703,CRL1e,2023.2.3,Win32,59.88023952,65dbad3905fde4fe1981dc61,65dcb06601b13e59954b8447,,,,,,,,,,,336.3126,0.7,337.0037,337.0037,337.5708,left,1,0.5666,,337.5708,338.5628,0,2,2,0,1,total,1,images/Ex1.jpg,left,training,easy,2,,,,,
,,,,,6047bf2d4d6168063087fe8e,001,31,Male,British,Batchelors Degree ,2024-02-26_15h38.51.703,CRL1e,2023.2.3,Win32,59.88023952,65dbad3905fde4fe1981dc61,65dcb06601b13e59954b8447,,,,,,,,,,,338.5629,1.2,339.771,339.771,340.2042,left,0,0.4327,,340.2042,341.1963,0,3,3,7,1,total,1,images/Ex4.jpg,right,training,easy,2,,,,,
,,,,,6047bf2d4d6168063087fe8e,001,31,Male,British,Batchelors Degree ,2024-02-26_15h38.51.703,CRL1e,2023.2.3,Win32,59.88023952,65dbad3905fde4fe1981dc61,65dcb06601b13e59954b8447,,,,,,,,,,,341.1965,1.1,342.2965,342.2965,343.3714,left,0,1.0745,,343.3714,344.3707,0,4,4,6,1,total,1,images/Ex4.jpg,right,training,easy,2,,,,,
,,,,,6047bf2d4d6168063087fe8e,001,31,Male,British,Batchelors Degree ,2024-02-26_15h38.51.703,CRL1e,2023.2.3,Win32,59.88023952,65dbad3905fde4fe1981dc61,65dcb06601b13e59954b8447,,,,,,,,,,,344.3709,1.4,345.7635,345.7636,346.5717,left,1,0.8076,,346.5717,347.5637,0,5,5,1,1,total,1,images/Ex1.jpg,left,training,easy,2,,,,,
,,,,,6047bf2d4d6168063087fe8e,001,31,Male,British,Batchelors Degree ,2024-02-26_15h38.51.703,CRL1e,2023.2.3,Win32,59.88023952,65dbad3905fde4fe1981dc61,65dcb06601b13e59954b8447,,,,,,,,,,,347.5639,1.3,348.864,348.864,349.3807,right,0,0.5149,,349.3808,350.3808,0,6,6,2,1,total,1,images/Ex2.jpg,left,training,easy,2,,,,,
,,,,,6047bf2d4d6168063087fe8e,001,31,Male,British,Batchelors Degree ,2024-02-26_15h38.51.703,CRL1e,2023.2.3,Win32,59.88023952,65dbad3905fde4fe1981dc61,65dcb06601b13e59954b8447,,,,,,,,,,,350.3809,1.5,351.889,351.889,352.2144,right,0,0.3199,,352.2145,353.2051,0,7,7,3,1,total,1,images/Ex2.jpg,left,training,easy,2,,,,,
,,,,,6047bf2d4d6168063087fe8e,001,31,Male,British,Batchelors Degree ,2024-02-26_15h38.51.703,CRL1e,2023.2.3,Win32,59.88023952,65dbad3905fde4fe1981dc61,65dcb06601b13e59954b8447,,,,,,,,,,,353.2052,1.4,354.5979,354.5979,354.9481,right,0,0.3462,,354.9481,355.948,1,0,8,3,1,total,1,images/Ex2.jpg,left,training,easy,2,,,,,
,,,,,6047bf2d4d6168063087fe8e,001,31,Male,British,Batchelors Degree ,2024-02-26_15h38.51.703,CRL1e,2023.2.3,Win32,59.88023952,65dbad3905fde4fe1981dc61,65dcb06601b13e59954b8447,,,,,,,,,,,355.9483,1.3,357.2544,357.2544,357.6359,right,1,0.3809,,357.6359,358.6317,1,1,9,6,1,total,1,images/Ex4.jpg,right,training,easy,2,,,,,
,,,,,6047bf2d4d6168063087fe8e,001,31,Male,British,Batchelors Degree ,2024-02-26_15h38.51.703,CRL1e,2023.2.3,Win32,59.88023952,65dbad3905fde4fe1981dc61,65dcb06601b13e59954b8447,,,,,,,,,,,358.6319,1.4,360.0318,360.0319,360.9488,left,1,0.9091,,360.9488,361.9392,1,2,10,0,1,total,1,images/Ex1.jpg,left,training,easy,2,,,,,
,,,,,6047bf2d4d6168063087fe8e,001,31,Male,British,Batchelors Degree ,2024-02-26_15h38.51.703,CRL1e,2023.2.3,Win32,59.88023952,65dbad3905fde4fe1981dc61,65dcb06601b13e59954b8447,,,,,,,,,,,361.9394,0.6,362.5403,362.5403,363.4072,right,1,0.8663,,363.4072,364.4067,1,3,11,5,1,total,1,images/Ex3.jpg,right,training,easy,2,,,,,
,,,,,6047bf2d4d6168063087fe8e,001,31,Male,British,Batchelors Degree ,2024-02-26_15h38.51.703,CRL1e,2023.2.3,Win32,59.88023952,65dbad3905fde4fe1981dc61,65dcb06601b13e59954b8447,,,,,,,,,,,364.4069,0.6,364.9992,364.9992,365.4328,left,1,0.4248,,365.4328,366.4326,1,4,12,1,1,total,1,images/Ex1.jpg,left,training,easy,2,,,,,
,,,,,6047bf2d4d6168063087fe8e,001,31,Male,British,Batchelors Degree ,2024-02-26_15h38.51.703,CRL1e,2023.2.3,Win32,59.88023952,65dbad3905fde4fe1981dc61,65dcb06601b13e59954b8447,,,,,,,,,,,366.4328,0.6,367.0244,367.0244,367.4662,right,1,0.4366,,367.4662,368.4566,1,5,13,4,1,total,1,images/Ex3.jpg,right,training,easy,2,,,,,
,,,,,6047bf2d4d6168063087fe8e,001,31,Male,British,Batchelors Degree ,2024-02-26_15h38.51.703,CRL1e,2023.2.3,Win32,59.88023952,65dbad3905fde4fe1981dc61,65dcb06601b13e59954b8447,,,,,,,,,,,368.4569,0.6,369.0586,369.0587,369.4244,left,0,0.3652,,369.4244,370.4224,1,6,14,7,1,total,1,images/Ex4.jpg,right,training,easy,2,,,,,
,,,,,6047bf2d4d6168063087fe8e,001,31,Male,British,Batchelors Degree ,2024-02-26_15h38.51.703,CRL1e,2023.2.3,Win32,59.88023952,65dbad3905fde4fe1981dc61,65dcb06601b13e59954b8447,,,,,,,,,,,370.4227,0.7,371.1165,371.1165,371.6578,right,0,0.5409,,371.6578,372.65,1,7,15,2,1,total,1,images/Ex2.jpg,left,training,easy,2,,,,,
,,,,,6047bf2d4d6168063087fe8e,001,31,Male,British,Batchelors Degree ,2024-02-26_15h38.51.703,CRL1e,2023.2.3,Win32,59.88023952,65dbad3905fde4fe1981dc61,65dcb06601b13e59954b8447,,,,,,,,,,,372.6502,0.7,373.3583,373.3583,373.7002,right,1,0.3311,,373.7002,374.7003,2,0,16,7,1,total,1,images/Ex4.jpg,right,training,easy,2,,,,,
,,,,,6047bf2d4d6168063087fe8e,001,31,Male,British,Batchelors Degree ,2024-02-26_15h38.51.703,CRL1e,2023.2.3,Win32,59.88023952,65dbad3905fde4fe1981dc61,65dcb06601b13e59954b8447,,,,,,,,,,,374.7006,1.1,375.8084,375.8085,376.1172,left,1,0.3044,,376.1173,377.1074,2,1,17,1,1,total,1,images/Ex1.jpg,left,training,easy,2,,,,,
,,,,,6047bf2d4d6168063087fe8e,001,31,Male,British,Batchelors Degree ,2024-02-26_15h38.51.703,CRL1e,2023.2.3,Win32,59.88023952,65dbad3905fde4fe1981dc61,65dcb06601b13e59954b8447,,,,,,,,,,,377.1077,0.8,377.9006,377.9006,378.2675,right,1,0.3616,,378.2675,379.2747,2,2,18,6,1,total,1,images/Ex4.jpg,right,training,easy,2,,,,,
,,,,,6047bf2d4d6168063087fe8e,001,31,Male,British,Batchelors Degree ,2024-02-26_15h38.51.703,CRL1e,2023.2.3,Win32,59.88023952,65dbad3905fde4fe1981dc61,65dcb06601b13e59954b8447,,,,,,,,,,,379.2749,1.4,380.6755,380.6755,381.0845,left,1,0.4006,,381.0845,382.0756,2,3,19,3,1,total,1,images/Ex2.jpg,left,training,easy,2,,,,,
,,,,,6047bf2d4d6168063087fe8e,001,31,Male,British,Batchelors Degree ,2024-02-26_15h38.51.703,CRL1e,2023.2.3,Win32,59.88023952,65dbad3905fde4fe1981dc61,65dcb06601b13e59954b8447,,,,,,,,,,,382.0759,0.8,382.8678,382.8678,383.3847,right,1,0.5122,,383.3848,384.3847,2,4,20,4,1,total,1,images/Ex3.jpg,right,training,easy,2,,,,,
,,,,,6047bf2d4d6168063087fe8e,001,31,Male,British,Batchelors Degree ,2024-02-26_15h38.51.703,CRL1e,2023.2.3,Win32,59.88023952,65dbad3905fde4fe1981dc61,65dcb06601b13e59954b8447,,,,,,,,,,,384.3849,1.2,385.5762,385.5762,386.059,right,1,0.482,,386.059,387.0552,2,5,21,5,1,total,1,images/Ex3.jpg,right,training,easy,2,,,,,
,,,,,6047bf2d4d6168063087fe8e,001,31,Male,British,Batchelors Degree ,2024-02-26_15h38.51.703,CRL1e,2023.2.3,Win32,59.88023952,65dbad3905fde4fe1981dc61,65dcb06601b13e59954b8447,,,,,,,,,,,387.0554,0.7,387.7433,387.7433,388.1353,left,1,0.3871,,388.1353,389.1352,2,6,22,0,1,total,1,images/Ex1.jpg,left,training,easy,2,,,,,
,,,,,6047bf2d4d6168063087fe8e,001,31,Male,British,Batchelors Degree ,2024-02-26_15h38.51.703,CRL1e,2023.2.3,Win32,59.88023952,65dbad3905fde4fe1981dc61,65dcb06601b13e59954b8447,,,,,,,,,,,389.1355,0.9,390.025,390.0251,390.41,right,0,0.3844,,390.4101,391.4022,2,7,23,2,1,total,1,images/Ex2.jpg,left,training,easy,2,,,,,
,,,,,6047bf2d4d6168063087fe8e,001,31,Male,British,Batchelors Degree ,2024-02-26_15h38.51.703,CRL1e,2023.2.3,Win32,59.88023952,65dbad3905fde4fe1981dc61,65dcb06601b13e59954b8447,,,,,,,,,,,391.4024,0.9,392.2937,392.2938,392.8191,left,0,0.5232,,392.8191,393.8099,3,0,24,5,1,total,1,images/Ex3.jpg,right,training,easy,2,,,,,
,,,,,6047bf2d4d6168063087fe8e,001,31,Male,British,Batchelors Degree ,2024-02-26_15h38.51.703,CRL1e,2023.2.3,Win32,59.88023952,65dbad3905fde4fe1981dc61,65dcb06601b13e59954b8447,,,,,,,,,,,393.8101,1.4,395.2107,395.2107,395.6439,left,1,0.4327,,395.644,396.6361,3,1,25,3,1,total,1,images/Ex2.jpg,left,training,easy,2,,,,,
,,,,,6047bf2d4d6168063087fe8e,001,31,Male,British,Batchelors Degree ,2024-02-26_15h38.51.703,CRL1e,2023.2.3,Win32,59.88023952,65dbad3905fde4fe1981dc61,65dcb06601b13e59954b8447,,,,,,,,,,,396.6364,0.6,397.2275,397.2275,397.6108,right,1,0.3828,,397.6108,398.6104,3,2,26,7,1,total,1,images/Ex4.jpg,right,training,easy,2,,,,,
,,,,,6047bf2d4d6168063087fe8e,001,31,Male,British,Batchelors Degree ,2024-02-26_15h38.51.703,CRL1e,2023.2.3,Win32,59.88023952,65dbad3905fde4fe1981dc61,65dcb06601b13e59954b8447,,,,,,,,,,,398.6106,0.7,399.3065,399.3065,399.7613,right,0,0.4542,,399.7613,400.7532,3,3,27,1,1,total,1,images/Ex1.jpg,left,training,easy,2,,,,,
,,,,,6047bf2d4d6168063087fe8e,001,31,Male,British,Batchelors Degree ,2024-02-26_15h38.51.703,CRL1e,2023.2.3,Win32,59.88023952,65dbad3905fde4fe1981dc61,65dcb06601b13e59954b8447,,,,,,,,,,,400.7535,1,401.7536,401.7536,402.4037,right,1,0.6464,,402.4037,403.4042,3,4,28,4,1,total,1,images/Ex3.jpg,right,training,easy,2,,,,,
,,,,,6047bf2d4d6168063087fe8e,001,31,Male,British,Batchelors Degree ,2024-02-26_15h38.51.703,CRL1e,2023.2.3,Win32,59.88023952,65dbad3905fde4fe1981dc61,65dcb06601b13e59954b8447,,,,,,,,,,,403.4044,0.8,404.2037,404.2038,404.5949,left,0,0.3908,,404.595,405.5872,3,5,29,6,1,total,1,images/Ex4.jpg,right,training,easy,2,,,,,
,,,,,6047bf2d4d6168063087fe8e,001,31,Male,British,Batchelors Degree ,2024-02-26_15h38.51.703,CRL1e,2023.2.3,Win32,59.88023952,65dbad3905fde4fe1981dc61,65dcb06601b13e59954b8447,,,,,,,,,,,405.5874,0.6,406.1954,406.1955,406.671,left,1,0.4705,,406.671,407.6612,3,6,30,2,1,total,1,images/Ex2.jpg,left,training,easy,2,,,,,
,,,,,6047bf2d4d6168063087fe8e,001,31,Male,British,Batchelors Degree ,2024-02-26_15h38.51.703,CRL1e,2023.2.3,Win32,59.88023952,65dbad3905fde4fe1981dc61,65dcb06601b13e59954b8447,,,,,,,,,,,407.6614,1.1,408.7543,408.7543,409.1123,right,0,0.3575,,409.1123,410.1119,3,7,31,0,1,total,1,images/Ex1.jpg,left,training,easy,2,,,,,
,,,,,6047bf2d4d6168063087fe8e,001,31,Male,British,Batchelors Degree ,2024-02-26_15h38.51.703,CRL1e,2023.2.3,Win32,59.88023952,65dbad3905fde4fe1981dc61,65dcb06601b13e59954b8447,,,,,,,,,,,410.1122,0.7,410.8045,410.8045,411.2213,right,0,0.4064,,411.2213,412.2213,4,0,32,1,1,total,1,images/Ex1.jpg,left,training,easy,2,,,,,
,,,,,6047bf2d4d6168063087fe8e,001,31,Male,British,Batchelors Degree ,2024-02-26_15h38.51.703,CRL1e,2023.2.3,Win32,59.88023952,65dbad3905fde4fe1981dc61,65dcb06601b13e59954b8447,,,,,,,,,,,412.2216,1.1,413.3296,413.3297,413.7447,right,1,0.4146,,413.7447,414.7454,4,1,33,7,1,total,1,images/Ex4.jpg,right,training,easy,2,,,,,
,,,,,6047bf2d4d6168063087fe8e,001,31,Male,British,Batchelors Degree ,2024-02-26_15h38.51.703,CRL1e,2023.2.3,Win32,59.88023952,65dbad3905fde4fe1981dc61,65dcb06601b13e59954b8447,,,,,,,,,,,414.7456,1.2,415.9464,415.9464,416.3969,left,0,0.4498,,416.3969,417.3962,4,2,34,4,1,total,1,images/Ex3.jpg,right,training,easy,2,,,,,
,,,,,6047bf2d4d6168063087fe8e,001,31,Male,British,Batchelors Degree ,2024-02-26_15h38.51.703,CRL1e,2023.2.3,Win32,59.88023952,65dbad3905fde4fe1981dc61,65dcb06601b13e59954b8447,,,,,,,,,,,417.3963,0.7,418.0887,418.0887,418.8555,right,0,0.7612,,418.8555,419.8555,4,3,35,0,1,total,1,images/Ex1.jpg,left,training,easy,2,,,,,
,,,,,6047bf2d4d6168063087fe8e,001,31,Male,British,Batchelors Degree ,2024-02-26_15h38.51.703,CRL1e,2023.2.3,Win32,59.88023952,65dbad3905fde4fe1981dc61,65dcb06601b13e59954b8447,,,,,,,,,,,419.8557,1.5,421.3473,421.3473,421.6469,right,0,0.2992,,421.647,422.6451,4,4,36,2,1,total,1,images/Ex2.jpg,left,training,easy,2,,,,,
,,,,,6047bf2d4d6168063087fe8e,001,31,Male,British,Batchelors Degree ,2024-02-26_15h38.51.703,CRL1e,2023.2.3,Win32,59.88023952,65dbad3905fde4fe1981dc61,65dcb06601b13e59954b8447,,,,,,,,,,,422.6453,1.2,423.8393,423.8393,424.1727,left,1,0.3309,,424.1728,425.1631,4,5,37,3,1,total,1,images/Ex2.jpg,left,training,easy,2,,,,,
,,,,,6047bf2d4d6168063087fe8e,001,31,Male,British,Batchelors Degree ,2024-02-26_15h38.51.703,CRL1e,2023.2.3,Win32,59.88023952,65dbad3905fde4fe1981dc61,65dcb06601b13e59954b8447,,,,,,,,,,,425.1633,1.2,426.3643,426.3644,426.7309,left,0,0.3661,,426.7309,427.7231,4,6,38,6,1,total,1,images/Ex4.jpg,right,training,easy,2,,,,,
,,,,,6047bf2d4d6168063087fe8e,001,31,Male,British,Batchelors Degree ,2024-02-26_15h38.51.703,CRL1e,2023.2.3,Win32,59.88023952,65dbad3905fde4fe1981dc61,65dcb06601b13e59954b8447,,,,,,,,,,,427.7232,1.4,429.1145,429.1146,429.4825,left,0,0.3674,,429.4825,430.4734,4,7,39,5,1,total,1,images/Ex3.jpg,right,training,easy,2,,,,,
,,,,,6047bf2d4d6168063087fe8e,001,31,Male,British,Batchelors Degree ,2024-02-26_15h38.51.703,CRL1e,2023.2.3,Win32,59.88023952,65dbad3905fde4fe1981dc61,65dcb06601b13e59954b8447,,,,,,,,,,,430.4736,1.2,431.6736,431.6736,432.1151,right,1,0.4412,,432.1151,433.1142,5,0,40,4,1,total,1,images/Ex3.jpg,right,training,easy,2,,,,,
,,,,,6047bf2d4d6168063087fe8e,001,31,Male,British,Batchelors Degree ,2024-02-26_15h38.51.703,CRL1e,2023.2.3,Win32,59.88023952,65dbad3905fde4fe1981dc61,65dcb06601b13e59954b8447,,,,,,,,,,,433.1144,0.6,433.7072,433.7072,435.5242,left,0,1.8068,,435.5242,436.5315,5,1,41,7,1,total,1,images/Ex4.jpg,right,training,easy,2,,,,,
,,,,,6047bf2d4d6168063087fe8e,001,31,Male,British,Batchelors Degree ,2024-02-26_15h38.51.703,CRL1e,2023.2.3,Win32,59.88023952,65dbad3905fde4fe1981dc61,65dcb06601b13e59954b8447,,,,,,,,,,,436.5317,0.7,437.2321,437.2321,438.4492,left,1,1.2165,,438.4492,439.4484,5,2,42,1,1,total,1,images/Ex1.jpg,left,training,easy,2,,,,,
,,,,,6047bf2d4d6168063087fe8e,001,31,Male,British,Batchelors Degree ,2024-02-26_15h38.51.703,CRL1e,2023.2.3,Win32,59.88023952,65dbad3905fde4fe1981dc61,65dcb06601b13e59954b8447,,,,,,,,,,,439.4486,0.8,440.2494,440.2494,441.1675,left,1,0.9174,,441.1675,442.1582,5,3,43,0,1,total,1,images/Ex1.jpg,left,training,easy,2,,,,,
,,,,,6047bf2d4d6168063087fe8e,001,31,Male,British,Batchelors Degree ,2024-02-26_15h38.51.703,CRL1e,2023.2.3,Win32,59.88023952,65dbad3905fde4fe1981dc61,65dcb06601b13e59954b8447,,,,,,,,,,,442.1584,0.9,443.0495,443.0495,444.9753,right,0,1.9224,,444.9753,445.9662,5,4,44,3,1,total,1,images/Ex2.jpg,left,training,easy,2,,,,,
,,,,,6047bf2d4d6168063087fe8e,001,31,Male,British,Batchelors Degree ,2024-02-26_15h38.51.703,CRL1e,2023.2.3,Win32,59.88023952,65dbad3905fde4fe1981dc61,65dcb06601b13e59954b8447,,,,,,,,,,,445.9713,1.2,447.1649,447.1649,448.6257,right,1,1.4512,,448.6258,449.6327,5,5,45,6,1,total,1,images/Ex4.jpg,right,training,easy,2,,,,,
,,,,,6047bf2d4d6168063087fe8e,001,31,Male,British,Batchelors Degree ,2024-02-26_15h38.51.703,CRL1e,2023.2.3,Win32,59.88023952,65dbad3905fde4fe1981dc61,65dcb06601b13e59954b8447,,,,,,,,,,,449.6378,1.1,450.7336,450.7336,451.9505,right,0,1.2163,,451.9505,452.9501,5,6,46,2,1,total,1,images/Ex2.jpg,left,training,easy,2,,,,,
,,,,,6047bf2d4d6168063087fe8e,001,31,Male,British,Batchelors Degree ,2024-02-26_15h38.51.703,CRL1e,2023.2.3,Win32,59.88023952,65dbad3905fde4fe1981dc61,65dcb06601b13e59954b8447,,,,,,,,,,,452.9503,1.3,454.2428,454.2428,455.0599,left,0,0.8071,,455.0599,456.063,5,7,47,5,1,total,1,images/Ex3.jpg,right,training,easy,2,,,,,
,,,,,6047bf2d4d6168063087fe8e,001,31,Male,British,Batchelors Degree ,2024-02-26_15h38.51.703,CRL1e,2023.2.3,Win32,59.88023952,65dbad3905fde4fe1981dc61,65dcb06601b13e59954b8447,,,,,,,,,,,456.0643,0.8,456.8678,456.8678,457.7182,left,1,0.8498,,457.7182,458.7101,0,0,0,4,1,total,2,images/Ex3.jpg,left,reversed,easy,2,,,,,
,,,,,6047bf2d4d6168063087fe8e,001,31,Male,British,Batchelors Degree ,2024-02-26_15h38.51.703,CRL1e,2023.2.3,Win32,59.88023952,65dbad3905fde4fe1981dc61,65dcb06601b13e59954b8447,,,,,,,,,,,458.7102,1.3,460.0102,460.0102,460.9105,right,0,0.8937,,460.9105,461.9179,0,1,1,6,1,total,2,images/Ex4.jpg,left,reversed,easy,2,,,,,
,,,,,6047bf2d4d6168063087fe8e,001,31,Male,British,Batchelors Degree ,2024-02-26_15h38.51.703,CRL1e,2023.2.3,Win32,59.88023952,65dbad3905fde4fe1981dc61,65dcb06601b13e59954b8447,,,,,,,,,,,461.9181,0.7,462.6106,462.6106,463.869,right,0,1.258,,463.869,464.8608,0,2,2,7,1,total,2,images/Ex4.jpg,left,reversed,easy,2,,,,,
,,,,,6047bf2d4d6168063087fe8e,001,31,Male,British,Batchelors Degree ,2024-02-26_15h38.51.703,CRL1e,2023.2.3,Win32,59.88023952,65dbad3905fde4fe1981dc61,65dcb06601b13e59954b8447,,,,,,,,,,,464.861,1.3,466.1523,466.1524,466.884,left,0,0.7311,,466.884,467.8778,0,3,3,2,1,total,2,images/Ex2.jpg,right,reversed,easy,2,,,,,
,,,,,6047bf2d4d6168063087fe8e,001,31,Male,British,Batchelors Degree ,2024-02-26_15h38.51.703,CRL1e,2023.2.3,Win32,59.88023952,65dbad3905fde4fe1981dc61,65dcb06601b13e59954b8447,,,,,,,,,,,467.8779,1.4,469.278,469.278,469.6615,left,1,0.3737,,469.6615,470.652,0,4,4,5,1,total,2,images/Ex3.jpg,left,reversed,easy,2,,,,,
,,,,,6047bf2d4d6168063087fe8e,001,31,Male,British,Batchelors Degree ,2024-02-26_15h38.51.703,CRL1e,2023.2.3,Win32,59.88023952,65dbad3905fde4fe1981dc61,65dcb06601b13e59954b8447,,,,,,,,,,,470.6521,1,471.6448,471.6449,472.8618,right,1,1.2151,,472.8619,473.8522,0,5,5,3,1,total,2,images/Ex2.jpg,right,reversed,easy,2,,,,,
,,,,,6047bf2d4d6168063087fe8e,001,31,Male,British,Batchelors Degree ,2024-02-26_15h38.51.703,CRL1e,2023.2.3,Win32,59.88023952,65dbad3905fde4fe1981dc61,65dcb06601b13e59954b8447,,,,,,,,,,,473.8524,1,474.8534,474.8534,475.5537,left,0,0.6997,,475.5537,476.549,0,6,6,0,1,total,2,images/Ex1.jpg,right,reversed,easy,2,,,,,
,,,,,6047bf2d4d6168063087fe8e,001,31,Male,British,Batchelors Degree ,2024-02-26_15h38.51.703,CRL1e,2023.2.3,Win32,59.88023952,65dbad3905fde4fe1981dc61,65dcb06601b13e59954b8447,,,,,,,,,,,476.5492,0.8,477.3518,477.3518,477.3711,right,1,0.0189,,477.3712,478.3693,0,7,7,1,1,total,2,images/Ex1.jpg,right,reversed,easy,2,,,,,
,,,,,6047bf2d4d6168063087fe8e,001,31,Male,British,Batchelors Degree ,2024-02-26_15h38.51.703,CRL1e,2023.2.3,Win32,59.88023952,65dbad3905fde4fe1981dc61,65dcb06601b13e59954b8447,,,,,,,,,,,478.3695,0.9,479.2624,479.2624,479.754,right,1,0.491,,479.754,480.7529,1,0,8,2,1,total,2,images/Ex2.jpg,right,reversed,easy,2,,,,,
,,,,,6047bf2d4d6168063087fe8e,001,31,Male,British,Batchelors Degree ,2024-02-26_15h38.51.703,CRL1e,2023.2.3,Win32,59.88023952,65dbad3905fde4fe1981dc61,65dcb06601b13e59954b8447,,,,,,,,,,,480.7531,0.9,481.6558,481.6559,482.3714,left,1,0.7146,,482.3715,483.3667,1,1,9,4,1,total,2,images/Ex3.jpg,left,reversed,easy,2,,,,,
,,,,,6047bf2d4d6168063087fe8e,001,31,Male,British,Batchelors Degree ,2024-02-26_15h38.51.703,CRL1e,2023.2.3,Win32,59.88023952,65dbad3905fde4fe1981dc61,65dcb06601b13e59954b8447,,,,,,,,,,,483.367,0.8,484.1631,484.1631,484.7965,left,0,0.6318,,484.7965,485.8039,1,2,10,0,1,total,2,images/Ex1.jpg,right,reversed,easy,2,,,,,
,,,,,6047bf2d4d6168063087fe8e,001,31,Male,British,Batchelors Degree ,2024-02-26_15h38.51.703,CRL1e,2023.2.3,Win32,59.88023952,65dbad3905fde4fe1981dc61,65dcb06601b13e59954b8447,,,,,,,,,,,485.8041,0.8,486.6054,486.6054,487.6302,right,1,1.0162,,487.6303,488.6374,1,3,11,3,1,total,2,images/Ex2.jpg,right,reversed,easy,2,,,,,
,,,,,6047bf2d4d6168063087fe8e,001,31,Male,British,Batchelors Degree ,2024-02-26_15h38.51.703,CRL1e,2023.2.3,Win32,59.88023952,65dbad3905fde4fe1981dc61,65dcb06601b13e59954b8447,,,,,,,,,,,488.6375,1.4,490.0383,490.0384,490.4472,left,1,0.4064,,490.4472,491.438,1,4,12,7,1,total,2,images/Ex4.jpg,left,reversed,easy,2,,,,,
,,,,,6047bf2d4d6168063087fe8e,001,31,Male,British,Batchelors Degree ,2024-02-26_15h38.51.703,CRL1e,2023.2.3,Win32,59.88023952,65dbad3905fde4fe1981dc61,65dcb06601b13e59954b8447,,,,,,,,,,,491.4382,1.2,492.6306,492.6306,493.0221,right,0,0.3911,,493.0221,494.0218,1,5,13,6,1,total,2,images/Ex4.jpg,left,reversed,easy,2,,,,,
,,,,,6047bf2d4d6168063087fe8e,001,31,Male,British,Batchelors Degree ,2024-02-26_15h38.51.703,CRL1e,2023.2.3,Win32,59.88023952,65dbad3905fde4fe1981dc61,65dcb06601b13e59954b8447,,,,,,,,,,,494.0219,0.7,494.7238,494.7239,495.3644,left,0,0.639,,495.3644,496.3554,1,6,14,1,1,total,2,images/Ex1.jpg,right,reversed,easy,2,,,,,
,,,,,6047bf2d4d6168063087fe8e,001,31,Male,British,Batchelors Degree ,2024-02-26_15h38.51.703,CRL1e,2023.2.3,Win32,59.88023952,65dbad3905fde4fe1981dc61,65dcb06601b13e59954b8447,,,,,,,,,,,496.3557,1.3,497.6479,497.6479,497.9729,left,1,0.3245,,497.9729,498.9646,1,7,15,5,1,total,2,images/Ex3.jpg,left,reversed,easy,2,,,,,
,,,,,6047bf2d4d6168063087fe8e,001,31,Male,British,Batchelors Degree ,2024-02-26_15h38.51.703,CRL1e,2023.2.3,Win32,59.88023952,65dbad3905fde4fe1981dc61,65dcb06601b13e59954b8447,,,,,,,,,,,498.9649,1,499.9731,499.9731,500.2983,left,0,0.3217,,500.2983,501.2903,2,0,16,3,1,total,2,images/Ex2.jpg,right,reversed,easy,2,,,,,
,,,,,6047bf2d4d6168063087fe8e,001,31,Male,British,Batchelors Degree ,2024-02-26_15h38.51.703,CRL1e,2023.2.3,Win32,59.88023952,65dbad3905fde4fe1981dc61,65dcb06601b13e59954b8447,,,,,,,,,,,501.2906,1,502.2818,502.2819,502.7653,right,0,0.4728,,502.7653,503.7654,2,1,17,6,1,total,2,images/Ex4.jpg,left,reversed,easy,2,,,,,
,,,,,6047bf2d4d6168063087fe8e,001,31,Male,British,Batchelors Degree ,2024-02-26_15h38.51.703,CRL1e,2023.2.3,Win32,59.88023952,65dbad3905fde4fe1981dc61,65dcb06601b13e59954b8447,,,,,,,,,,,503.7657,1.1,504.8569,504.8569,505.1489,right,1,0.2864,,505.149,506.1399,2,2,18,2,1,total,2,images/Ex2.jpg,right,reversed,easy,2,,,,,
,,,,,6047bf2d4d6168063087fe8e,001,31,Male,British,Batchelors Degree ,2024-02-26_15h38.51.703,CRL1e,2023.2.3,Win32,59.88023952,65dbad3905fde4fe1981dc61,65dcb06601b13e59954b8447,,,,,,,,,,,506.1401,0.9,507.0324,507.0324,507.7573,left,0,0.7244,,507.7573,508.7568,2,3,19,1,1,total,2,images/Ex1.jpg,right,reversed,easy,2,,,,,
,,,,,6047bf2d4d6168063087fe8e,001,31,Male,British,Batchelors Degree ,2024-02-26_15h38.51.703,CRL1e,2023.2.3,Win32,59.88023952,65dbad3905fde4fe1981dc61,65dcb06601b13e59954b8447,,,,,,,,,,,508.7571,1.4,510.1494,510.1494,510.4829,right,0,0.3254,,510.4829,511.4737,2,4,20,7,1,total,2,images/Ex4.jpg,left,reversed,easy,2,,,,,
,,,,,6047bf2d4d6168063087fe8e,001,31,Male,British,Batchelors Degree ,2024-02-26_15h38.51.703,CRL1e,2023.2.3,Win32,59.88023952,65dbad3905fde4fe1981dc61,65dcb06601b13e59954b8447,,,,,,,,,,,511.4739,1.2,512.6667,512.6668,513.0245,right,0,0.3572,,513.0245,514.0164,2,5,21,4,1,total,2,images/Ex3.jpg,left,reversed,easy,2,,,,,
,,,,,6047bf2d4d6168063087fe8e,001,31,Male,British,Batchelors Degree ,2024-02-26_15h38.51.703,CRL1e,2023.2.3,Win32,59.88023952,65dbad3905fde4fe1981dc61,65dcb06601b13e59954b8447,,,,,,,,,,,514.0166,0.7,514.7078,514.7079,515.2501,right,1,0.538,,515.2502,516.2571,2,6,22,0,1,total,2,images/Ex1.jpg,right,reversed,easy,2,,,,,
,,,,,6047bf2d4d6168063087fe8e,001,31,Male,British,Batchelors Degree ,2024-02-26_15h38.51.703,CRL1e,2023.2.3,Win32,59.88023952,65dbad3905fde4fe1981dc61,65dcb06601b13e59954b8447,,,,,,,,,,,516.2573,1.1,517.358,517.3581,517.7238,right,0,0.3651,,517.7239,518.717,2,7,23,5,1,total,2,images/Ex3.jpg,left,reversed,easy,2,,,,,
,,,,,6047bf2d4d6168063087fe8e,001,31,Male,British,Batchelors Degree ,2024-02-26_15h38.51.703,CRL1e,2023.2.3,Win32,59.88023952,65dbad3905fde4fe1981dc61,65dcb06601b13e59954b8447,,,,,,,,,,,518.7173,1.5,520.2086,520.2086,520.5508,left,1,0.3317,,520.5508,521.5507,3,0,24,5,1,total,2,images/Ex3.jpg,left,reversed,easy,2,,,,,
,,,,,6047bf2d4d6168063087fe8e,001,31,Male,British,Batchelors Degree ,2024-02-26_15h38.51.703,CRL1e,2023.2.3,Win32,59.88023952,65dbad3905fde4fe1981dc61,65dcb06601b13e59954b8447,,,,,,,,,,,521.5509,0.9,522.4425,522.4426,523.1176,right,1,0.6695,,523.1176,524.1085,3,1,25,2,1,total,2,images/Ex2.jpg,right,reversed,easy,2,,,,,
,,,,,6047bf2d4d6168063087fe8e,001,31,Male,British,Batchelors Degree ,2024-02-26_15h38.51.703,CRL1e,2023.2.3,Win32,59.88023952,65dbad3905fde4fe1981dc61,65dcb06601b13e59954b8447,,,,,,,,,,,524.1087,0.9,525.0011,525.0012,525.7594,right,0,0.7578,,525.7594,526.7513,3,2,26,4,1,total,2,images/Ex3.jpg,left,reversed,easy,2,,,,,
,,,,,6047bf2d4d6168063087fe8e,001,31,Male,British,Batchelors Degree ,2024-02-26_15h38.51.703,CRL1e,2023.2.3,Win32,59.88023952,65dbad3905fde4fe1981dc61,65dcb06601b13e59954b8447,,,,,,,,,,,526.7515,0.8,527.5429,527.5429,528.1263,left,0,0.5828,,528.1263,529.1259,3,3,27,1,1,total,2,images/Ex1.jpg,right,reversed,easy,2,,,,,
,,,,,6047bf2d4d6168063087fe8e,001,31,Male,British,Batchelors Degree ,2024-02-26_15h38.51.703,CRL1e,2023.2.3,Win32,59.88023952,65dbad3905fde4fe1981dc61,65dcb06601b13e59954b8447,,,,,,,,,,,529.1261,0.5,529.6216,529.6216,529.9764,left,1,0.3544,,529.9764,530.9754,3,4,28,6,1,total,2,images/Ex4.jpg,left,reversed,easy,2,,,,,
,,,,,6047bf2d4d6168063087fe8e,001,31,Male,British,Batchelors Degree ,2024-02-26_15h38.51.703,CRL1e,2023.2.3,Win32,59.88023952,65dbad3905fde4fe1981dc61,65dcb06601b13e59954b8447,,,,,,,,,,,530.9756,0.8,531.7686,531.7686,532.1187,left,0,0.3454,,532.1187,533.1096,3,5,29,0,1,total,2,images/Ex1.jpg,right,reversed,easy,2,,,,,
,,,,,6047bf2d4d6168063087fe8e,001,31,Male,British,Batchelors Degree ,2024-02-26_15h38.51.703,CRL1e,2023.2.3,Win32,59.88023952,65dbad3905fde4fe1981dc61,65dcb06601b13e59954b8447,,,,,,,,,,,533.1099,1.4,534.5055,534.5056,534.9024,left,1,0.3861,,534.9024,535.9024,3,6,30,7,1,total,2,images/Ex4.jpg,left,reversed,easy,2,,,,,
,,,,,6047bf2d4d6168063087fe8e,001,31,Male,British,Batchelors Degree ,2024-02-26_15h38.51.703,CRL1e,2023.2.3,Win32,59.88023952,65dbad3905fde4fe1981dc61,65dcb06601b13e59954b8447,,,,,,,,,,,535.9026,0.9,536.8025,536.8025,537.1439,right,1,0.3409,,537.144,538.136,3,7,31,3,1,total,2,images/Ex2.jpg,right,reversed,easy,2,,,,,
,,,,,6047bf2d4d6168063087fe8e,001,31,Male,British,Batchelors Degree ,2024-02-26_15h38.51.703,CRL1e,2023.2.3,Win32,59.88023952,65dbad3905fde4fe1981dc61,65dcb06601b13e59954b8447,,,,,,,,,,,538.1361,1.4,539.5362,539.5362,539.8863,right,1,0.3475,,539.8864,540.8769,4,0,32,0,1,total,2,images/Ex1.jpg,right,reversed,easy,2,,,,,
,,,,,6047bf2d4d6168063087fe8e,001,31,Male,British,Batchelors Degree ,2024-02-26_15h38.51.703,CRL1e,2023.2.3,Win32,59.88023952,65dbad3905fde4fe1981dc61,65dcb06601b13e59954b8447,,,,,,,,,,,540.8771,1,541.8776,541.8776,542.4865,right,0,0.6013,,542.4866,543.4755,4,1,33,4,1,total,2,images/Ex3.jpg,left,reversed,easy,2,,,,,
,,,,,6047bf2d4d6168063087fe8e,001,31,Male,British,Batchelors Degree ,2024-02-26_15h38.51.703,CRL1e,2023.2.3,Win32,59.88023952,65dbad3905fde4fe1981dc61,65dcb06601b13e59954b8447,,,,,,,,,,,543.4757,1.2,544.6779,544.678,545.0568,right,0,0.3784,,545.0568,546.0592,4,2,34,7,1,total,2,images/Ex4.jpg,left,reversed,easy,2,,,,,
,,,,,6047bf2d4d6168063087fe8e,001,31,Male,British,Batchelors Degree ,2024-02-26_15h38.51.703,CRL1e,2023.2.3,Win32,59.88023952,65dbad3905fde4fe1981dc61,65dcb06601b13e59954b8447,,,,,,,,,,,546.0594,0.6,546.6615,546.6615,547.0624,right,0,0.4003,,547.0624,548.0538,4,3,35,5,1,total,2,images/Ex3.jpg,left,reversed,easy,2,,,,,
,,,,,6047bf2d4d6168063087fe8e,001,31,Male,British,Batchelors Degree ,2024-02-26_15h38.51.703,CRL1e,2023.2.3,Win32,59.88023952,65dbad3905fde4fe1981dc61,65dcb06601b13e59954b8447,,,,,,,,,,,548.054,1.2,549.2454,549.2454,549.3286,right,0,0.0826,,549.3286,550.3207,4,4,36,6,1,total,2,images/Ex4.jpg,left,reversed,easy,2,,,,,
,,,,,6047bf2d4d6168063087fe8e,001,31,Male,British,Batchelors Degree ,2024-02-26_15h38.51.703,CRL1e,2023.2.3,Win32,59.88023952,65dbad3905fde4fe1981dc61,65dcb06601b13e59954b8447,,,,,,,,,,,550.3209,1,551.3209,551.3209,552.1046,right,1,0.7818,,552.1046,553.0947,4,5,37,2,1,total,2,images/Ex2.jpg,right,reversed,easy,2,,,,,
,,,,,6047bf2d4d6168063087fe8e,001,31,Male,British,Batchelors Degree ,2024-02-26_15h38.51.703,CRL1e,2023.2.3,Win32,59.88023952,65dbad3905fde4fe1981dc61,65dcb06601b13e59954b8447,,,,,,,,,,,553.0949,1.3,554.3914,554.3914,554.8548,left,0,0.4525,,554.8548,555.8456,4,6,38,3,1,total,2,images/Ex2.jpg,right,reversed,easy,2,,,,,
,,,,,6047bf2d4d6168063087fe8e,001,31,Male,British,Batchelors Degree ,2024-02-26_15h38.51.703,CRL1e,2023.2.3,Win32,59.88023952,65dbad3905fde4fe1981dc61,65dcb06601b13e59954b8447,,,,,,,,,,,555.8459,1.3,557.1382,557.1382,557.6751,right,1,0.5364,,557.6751,558.6717,4,7,39,1,1,total,2,images/Ex1.jpg,right,reversed,easy,2,,,,,
,,,,,6047bf2d4d6168063087fe8e,001,31,Male,British,Batchelors Degree ,2024-02-26_15h38.51.703,CRL1e,2023.2.3,Win32,59.88023952,65dbad3905fde4fe1981dc61,65dcb06601b13e59954b8447,,,,,,,,,,,558.672,1.1,559.7719,559.7719,560.1132,right,1,0.3407,,560.1132,561.1086,5,0,40,3,1,total,2,images/Ex2.jpg,right,reversed,easy,2,,,,,
,,,,,6047bf2d4d6168063087fe8e,001,31,Male,British,Batchelors Degree ,2024-02-26_15h38.51.703,CRL1e,2023.2.3,Win32,59.88023952,65dbad3905fde4fe1981dc61,65dcb06601b13e59954b8447,,,,,,,,,,,561.1088,0.5,561.597,561.5971,562.297,right,1,0.6994,,562.297,563.289,5,1,41,1,1,total,2,images/Ex1.jpg,right,reversed,easy,2,,,,,
,,,,,6047bf2d4d6168063087fe8e,001,31,Male,British,Batchelors Degree ,2024-02-26_15h38.51.703,CRL1e,2023.2.3,Win32,59.88023952,65dbad3905fde4fe1981dc61,65dcb06601b13e59954b8447,,,,,,,,,,,563.2894,1,564.289,564.289,564.664,left,1,0.3745,,564.664,565.6558,5,2,42,4,1,total,2,images/Ex3.jpg,left,reversed,easy,2,,,,,
,,,,,6047bf2d4d6168063087fe8e,001,31,Male,British,Batchelors Degree ,2024-02-26_15h38.51.703,CRL1e,2023.2.3,Win32,59.88023952,65dbad3905fde4fe1981dc61,65dcb06601b13e59954b8447,,,,,,,,,,,565.656,0.6,566.2475,566.2475,566.6809,left,1,0.4328,,566.6809,567.6727,5,3,43,7,1,total,2,images/Ex4.jpg,left,reversed,easy,2,,,,,
,,,,,6047bf2d4d6168063087fe8e,001,31,Male,British,Batchelors Degree ,2024-02-26_15h38.51.703,CRL1e,2023.2.3,Win32,59.88023952,65dbad3905fde4fe1981dc61,65dcb06601b13e59954b8447,,,,,,,,,,,567.6728,0.6,568.2641,568.2641,568.823,left,0,0.548,,568.823,569.8138,5,4,44,2,1,total,2,images/Ex2.jpg,right,reversed,easy,2,,,,,
,,,,,6047bf2d4d6168063087fe8e,001,31,Male,British,Batchelors Degree ,2024-02-26_15h38.51.703,CRL1e,2023.2.3,Win32,59.88023952,65dbad3905fde4fe1981dc61,65dcb06601b13e59954b8447,,,,,,,,,,,569.814,1.2,571.0065,571.0065,571.5316,right,1,0.5246,,571.5316,572.5292,5,5,45,0,1,total,2,images/Ex1.jpg,right,reversed,easy,2,,,,,
,,,,,6047bf2d4d6168063087fe8e,001,31,Male,British,Batchelors Degree ,2024-02-26_15h38.51.703,CRL1e,2023.2.3,Win32,59.88023952,65dbad3905fde4fe1981dc61,65dcb06601b13e59954b8447,,,,,,,,,,,572.5294,0.5,573.0329,573.0329,573.5735,right,0,0.5351,,573.5735,574.5645,5,6,46,6,1,total,2,images/Ex4.jpg,left,reversed,easy,2,,,,,
,,,,,6047bf2d4d6168063087fe8e,001,31,Male,British,Batchelors Degree ,2024-02-26_15h38.51.703,CRL1e,2023.2.3,Win32,59.88023952,65dbad3905fde4fe1981dc61,65dcb06601b13e59954b8447,,,,,,,,,,,574.5646,1.4,575.9604,575.9604,576.4487,left,1,0.4877,,576.4488,577.4475,5,7,47,5,1,total,2,images/Ex3.jpg,left,reversed,easy,2,,,,,
,,,,,6047bf2d4d6168063087fe8e,001,31,Male,British,Batchelors Degree ,2024-02-26_15h38.51.703,CRL1e,2023.2.3,Win32,59.88023952,65dbad3905fde4fe1981dc61,65dcb06601b13e59954b8447,,,,,,,,,,,,,,,,,,,,,,,,,,,,,,,,,,577.448,614.6788,space,37.2109,