infCons.started,infCons.stopped,resp_consent.keys,resp_consent.rt,resp_consent.duration,participant,session,Age?,Gender?,Nationality?,Highest Educational Degree?,date,expName,psychopyVersion,OS,frameRate,STUDY_ID,SESSION_ID,instructions.started,instructions.stopped,resp_instructions.keys,resp_instructions.rt,resp_instructions.duration,nextTask.started,nextTask.stopped,ready_task.keys,ready_task.rt,ready_task.duration,fixation.started,ITI,fixation.stopped,stim.started,stim.stopped,response.keys,response.corr,response.rt,response.duration,feedback.started,feedback.stopped,trials.thisRepN,trials.thisTrialN,trials.thisN,trials.thisIndex,trials.ran,task,phase,Exemplars,r_correct,condition,difficulty,set,end.started,end.stopped,resp_end.keys,resp_end.rt,resp_end.duration
0.0002,422.1098,space,422.0878,,60d2c59451b12e36fb281477,001,29,Male,United Kingdom,Master,2024-02-26_17h51.28.210,CRL1e,2023.2.3,MacIntel,74.07407407,65dbad3905fde4fe1981dc61,65dccf7101b13e59954b8f94,,,,,,,,,,,,,,,,,,,,,,,,,,,,,,,,,,,,,,
,,,,,60d2c59451b12e36fb281477,001,29,Male,United Kingdom,Master,2024-02-26_17h51.28.210,CRL1e,2023.2.3,MacIntel,74.07407407,65dbad3905fde4fe1981dc61,65dccf7101b13e59954b8f94,422.1099,454.4223,space,32.2913,,,,,,,,,,,,,,,,,,,,,,,,,,,,,,,,,,
,,,,,60d2c59451b12e36fb281477,001,29,Male,United Kingdom,Master,2024-02-26_17h51.28.210,CRL1e,2023.2.3,MacIntel,74.07407407,65dbad3905fde4fe1981dc61,65dccf7101b13e59954b8f94,,,,,,454.4289,455.9955,space,1.5517,,455.9971,0.9,456.8881,456.8881,457.7425,left,1,0.8514,,457.7426,458.7427,0,0,0,1,1,partial,1,images/Ex13.jpg,left,training,easy,5,,,,,
,,,,,60d2c59451b12e36fb281477,001,29,Male,United Kingdom,Master,2024-02-26_17h51.28.210,CRL1e,2023.2.3,MacIntel,74.07407407,65dbad3905fde4fe1981dc61,65dccf7101b13e59954b8f94,,,,,,,,,,,458.743,0.7,459.4356,459.4356,460.1161,left,1,0.6684,,460.1161,461.1154,0,1,1,0,1,partial,1,images/Ex13.jpg,left,training,easy,5,,,,,
,,,,,60d2c59451b12e36fb281477,001,29,Male,United Kingdom,Master,2024-02-26_17h51.28.210,CRL1e,2023.2.3,MacIntel,74.07407407,65dbad3905fde4fe1981dc61,65dccf7101b13e59954b8f94,,,,,,,,,,,461.1156,1.5,462.6101,462.6101,463.1036,right,1,0.4843,,463.1036,464.1031,0,2,2,5,1,partial,1,images/Ex15.jpg,right,training,easy,5,,,,,
,,,,,60d2c59451b12e36fb281477,001,29,Male,United Kingdom,Master,2024-02-26_17h51.28.210,CRL1e,2023.2.3,MacIntel,74.07407407,65dbad3905fde4fe1981dc61,65dccf7101b13e59954b8f94,,,,,,,,,,,464.1033,0.5,464.5972,464.5972,465.3308,left,0,0.7251,,465.3308,466.3302,0,3,3,6,1,partial,1,images/Ex16.jpg,right,training,easy,5,,,,,
,,,,,60d2c59451b12e36fb281477,001,29,Male,United Kingdom,Master,2024-02-26_17h51.28.210,CRL1e,2023.2.3,MacIntel,74.07407407,65dbad3905fde4fe1981dc61,65dccf7101b13e59954b8f94,,,,,,,,,,,466.3304,1.4,467.7313,467.7313,468.6781,right,0,0.9445,,468.6781,469.6776,0,4,4,2,1,partial,1,images/Ex14.jpg,left,training,easy,5,,,,,
,,,,,60d2c59451b12e36fb281477,001,29,Male,United Kingdom,Master,2024-02-26_17h51.28.210,CRL1e,2023.2.3,MacIntel,74.07407407,65dbad3905fde4fe1981dc61,65dccf7101b13e59954b8f94,,,,,,,,,,,469.6778,1.1,470.7711,470.7711,471.9847,right,1,1.2128,,471.9847,472.985,0,5,5,4,1,partial,1,images/Ex15.jpg,right,training,easy,5,,,,,
,,,,,60d2c59451b12e36fb281477,001,29,Male,United Kingdom,Master,2024-02-26_17h51.28.210,CRL1e,2023.2.3,MacIntel,74.07407407,65dbad3905fde4fe1981dc61,65dccf7101b13e59954b8f94,,,,,,,,,,,472.9851,0.8,473.7859,473.786,474.5723,left,0,0.785,,474.5723,475.5722,0,6,6,7,1,partial,1,images/Ex16.jpg,right,training,easy,5,,,,,
,,,,,60d2c59451b12e36fb281477,001,29,Male,United Kingdom,Master,2024-02-26_17h51.28.210,CRL1e,2023.2.3,MacIntel,74.07407407,65dbad3905fde4fe1981dc61,65dccf7101b13e59954b8f94,,,,,,,,,,,475.5723,1.4,476.9733,476.9734,477.9995,right,0,1.0164,,477.9996,479,0,7,7,3,1,partial,1,images/Ex14.jpg,left,training,easy,5,,,,,
,,,,,60d2c59451b12e36fb281477,001,29,Male,United Kingdom,Master,2024-02-26_17h51.28.210,CRL1e,2023.2.3,MacIntel,74.07407407,65dbad3905fde4fe1981dc61,65dccf7101b13e59954b8f94,,,,,,,,,,,479.0002,0.9,479.893,479.893,480.6544,left,1,0.7524,,480.6544,481.654,1,0,8,3,1,partial,1,images/Ex14.jpg,left,training,easy,5,,,,,
,,,,,60d2c59451b12e36fb281477,001,29,Male,United Kingdom,Master,2024-02-26_17h51.28.210,CRL1e,2023.2.3,MacIntel,74.07407407,65dbad3905fde4fe1981dc61,65dccf7101b13e59954b8f94,,,,,,,,,,,481.6542,0.9,482.5469,482.5469,483.3739,left,0,0.8201,,483.3739,484.3749,1,1,9,4,1,partial,1,images/Ex15.jpg,right,training,easy,5,,,,,
,,,,,60d2c59451b12e36fb281477,001,29,Male,United Kingdom,Master,2024-02-26_17h51.28.210,CRL1e,2023.2.3,MacIntel,74.07407407,65dbad3905fde4fe1981dc61,65dccf7101b13e59954b8f94,,,,,,,,,,,484.3751,0.9,485.2684,485.2684,486.4554,left,0,1.183,,486.4554,487.4554,1,2,10,7,1,partial,1,images/Ex16.jpg,right,training,easy,5,,,,,
,,,,,60d2c59451b12e36fb281477,001,29,Male,United Kingdom,Master,2024-02-26_17h51.28.210,CRL1e,2023.2.3,MacIntel,74.07407407,65dbad3905fde4fe1981dc61,65dccf7101b13e59954b8f94,,,,,,,,,,,487.4555,1,488.4554,488.4554,489.2553,left,0,0.7966,,489.2553,490.2557,1,3,11,5,1,partial,1,images/Ex15.jpg,right,training,easy,5,,,,,
,,,,,60d2c59451b12e36fb281477,001,29,Male,United Kingdom,Master,2024-02-26_17h51.28.210,CRL1e,2023.2.3,MacIntel,74.07407407,65dbad3905fde4fe1981dc61,65dccf7101b13e59954b8f94,,,,,,,,,,,490.2559,1.1,491.3488,491.3488,492.0827,left,1,0.7265,,492.0827,493.0826,1,4,12,1,1,partial,1,images/Ex13.jpg,left,training,easy,5,,,,,
,,,,,60d2c59451b12e36fb281477,001,29,Male,United Kingdom,Master,2024-02-26_17h51.28.210,CRL1e,2023.2.3,MacIntel,74.07407407,65dbad3905fde4fe1981dc61,65dccf7101b13e59954b8f94,,,,,,,,,,,493.0828,1.2,494.2838,494.2838,494.8433,left,1,0.5587,,494.8433,495.8436,1,5,13,0,1,partial,1,images/Ex13.jpg,left,training,easy,5,,,,,
,,,,,60d2c59451b12e36fb281477,001,29,Male,United Kingdom,Master,2024-02-26_17h51.28.210,CRL1e,2023.2.3,MacIntel,74.07407407,65dbad3905fde4fe1981dc61,65dccf7101b13e59954b8f94,,,,,,,,,,,495.8438,0.6,496.4433,496.4434,497.1506,right,0,0.6966,,497.1506,498.1511,1,6,14,2,1,partial,1,images/Ex14.jpg,left,training,easy,5,,,,,
,,,,,60d2c59451b12e36fb281477,001,29,Male,United Kingdom,Master,2024-02-26_17h51.28.210,CRL1e,2023.2.3,MacIntel,74.07407407,65dbad3905fde4fe1981dc61,65dccf7101b13e59954b8f94,,,,,,,,,,,498.1512,0.5,498.6448,498.6448,499.4176,right,1,0.7646,,499.4177,500.4175,1,7,15,6,1,partial,1,images/Ex16.jpg,right,training,easy,5,,,,,
,,,,,60d2c59451b12e36fb281477,001,29,Male,United Kingdom,Master,2024-02-26_17h51.28.210,CRL1e,2023.2.3,MacIntel,74.07407407,65dbad3905fde4fe1981dc61,65dccf7101b13e59954b8f94,,,,,,,,,,,500.4177,0.7,501.1115,501.1115,502.1384,left,0,1.0237,,502.1384,503.1391,2,0,16,4,1,partial,1,images/Ex15.jpg,right,training,easy,5,,,,,
,,,,,60d2c59451b12e36fb281477,001,29,Male,United Kingdom,Master,2024-02-26_17h51.28.210,CRL1e,2023.2.3,MacIntel,74.07407407,65dbad3905fde4fe1981dc61,65dccf7101b13e59954b8f94,,,,,,,,,,,503.1393,1.2,504.3391,504.3391,505.1262,right,0,0.7852,,505.1262,506.1263,2,1,17,2,1,partial,1,images/Ex14.jpg,left,training,easy,5,,,,,
,,,,,60d2c59451b12e36fb281477,001,29,Male,United Kingdom,Master,2024-02-26_17h51.28.210,CRL1e,2023.2.3,MacIntel,74.07407407,65dbad3905fde4fe1981dc61,65dccf7101b13e59954b8f94,,,,,,,,,,,506.1265,0.8,506.9266,506.9266,508.1004,left,0,1.1693,,508.1004,509.0995,2,2,18,5,1,partial,1,images/Ex15.jpg,right,training,easy,5,,,,,
,,,,,60d2c59451b12e36fb281477,001,29,Male,United Kingdom,Master,2024-02-26_17h51.28.210,CRL1e,2023.2.3,MacIntel,74.07407407,65dbad3905fde4fe1981dc61,65dccf7101b13e59954b8f94,,,,,,,,,,,509.0997,1.5,510.594,510.594,512.0603,right,0,1.4602,,512.0603,513.0607,2,3,19,3,1,partial,1,images/Ex14.jpg,left,training,easy,5,,,,,
,,,,,60d2c59451b12e36fb281477,001,29,Male,United Kingdom,Master,2024-02-26_17h51.28.210,CRL1e,2023.2.3,MacIntel,74.07407407,65dbad3905fde4fe1981dc61,65dccf7101b13e59954b8f94,,,,,,,,,,,513.0609,0.7,513.7538,513.7538,514.3279,left,1,0.5723,,514.3279,515.3284,2,4,20,1,1,partial,1,images/Ex13.jpg,left,training,easy,5,,,,,
,,,,,60d2c59451b12e36fb281477,001,29,Male,United Kingdom,Master,2024-02-26_17h51.28.210,CRL1e,2023.2.3,MacIntel,74.07407407,65dbad3905fde4fe1981dc61,65dccf7101b13e59954b8f94,,,,,,,,,,,515.3286,1,516.3283,516.3283,516.8756,left,1,0.5402,,516.8756,517.8757,2,5,21,0,1,partial,1,images/Ex13.jpg,left,training,easy,5,,,,,
,,,,,60d2c59451b12e36fb281477,001,29,Male,United Kingdom,Master,2024-02-26_17h51.28.210,CRL1e,2023.2.3,MacIntel,74.07407407,65dbad3905fde4fe1981dc61,65dccf7101b13e59954b8f94,,,,,,,,,,,517.8759,1.3,519.1686,519.1686,520.1554,right,1,0.9858,,520.1554,521.1564,2,6,22,7,1,partial,1,images/Ex16.jpg,right,training,easy,5,,,,,
,,,,,60d2c59451b12e36fb281477,001,29,Male,United Kingdom,Master,2024-02-26_17h51.28.210,CRL1e,2023.2.3,MacIntel,74.07407407,65dbad3905fde4fe1981dc61,65dccf7101b13e59954b8f94,,,,,,,,,,,521.1565,0.6,521.7559,521.7559,522.276,right,1,0.5133,,522.276,523.2769,2,7,23,6,1,partial,1,images/Ex16.jpg,right,training,easy,5,,,,,
,,,,,60d2c59451b12e36fb281477,001,29,Male,United Kingdom,Master,2024-02-26_17h51.28.210,CRL1e,2023.2.3,MacIntel,74.07407407,65dbad3905fde4fe1981dc61,65dccf7101b13e59954b8f94,,,,,,,,,,,523.2771,0.8,524.0768,524.0768,524.7968,left,1,0.7169,,524.7968,525.7966,3,0,24,3,1,partial,1,images/Ex14.jpg,left,training,easy,5,,,,,
,,,,,60d2c59451b12e36fb281477,001,29,Male,United Kingdom,Master,2024-02-26_17h51.28.210,CRL1e,2023.2.3,MacIntel,74.07407407,65dbad3905fde4fe1981dc61,65dccf7101b13e59954b8f94,,,,,,,,,,,525.7969,1,526.7967,526.7967,527.4912,right,1,0.6938,,527.4912,528.4912,3,1,25,7,1,partial,1,images/Ex16.jpg,right,training,easy,5,,,,,
,,,,,60d2c59451b12e36fb281477,001,29,Male,United Kingdom,Master,2024-02-26_17h51.28.210,CRL1e,2023.2.3,MacIntel,74.07407407,65dbad3905fde4fe1981dc61,65dccf7101b13e59954b8f94,,,,,,,,,,,528.4913,1,529.4908,529.4909,530.3314,right,1,0.8331,,530.3314,531.332,3,2,26,6,1,partial,1,images/Ex16.jpg,right,training,easy,5,,,,,
,,,,,60d2c59451b12e36fb281477,001,29,Male,United Kingdom,Master,2024-02-26_17h51.28.210,CRL1e,2023.2.3,MacIntel,74.07407407,65dbad3905fde4fe1981dc61,65dccf7101b13e59954b8f94,,,,,,,,,,,531.3323,1.1,532.4256,532.4256,533.5458,right,1,1.1178,,533.5458,534.546,3,3,27,4,1,partial,1,images/Ex15.jpg,right,training,easy,5,,,,,
,,,,,60d2c59451b12e36fb281477,001,29,Male,United Kingdom,Master,2024-02-26_17h51.28.210,CRL1e,2023.2.3,MacIntel,74.07407407,65dbad3905fde4fe1981dc61,65dccf7101b13e59954b8f94,,,,,,,,,,,534.5504,0.6,535.1462,535.1462,535.6927,left,1,0.5355,,535.6927,536.6923,3,4,28,2,1,partial,1,images/Ex14.jpg,left,training,easy,5,,,,,
,,,,,60d2c59451b12e36fb281477,001,29,Male,United Kingdom,Master,2024-02-26_17h51.28.210,CRL1e,2023.2.3,MacIntel,74.07407407,65dbad3905fde4fe1981dc61,65dccf7101b13e59954b8f94,,,,,,,,,,,536.6924,1.4,538.0928,538.0928,538.6404,left,1,0.5459,,538.6404,539.6396,3,5,29,0,1,partial,1,images/Ex13.jpg,left,training,easy,5,,,,,
,,,,,60d2c59451b12e36fb281477,001,29,Male,United Kingdom,Master,2024-02-26_17h51.28.210,CRL1e,2023.2.3,MacIntel,74.07407407,65dbad3905fde4fe1981dc61,65dccf7101b13e59954b8f94,,,,,,,,,,,539.6398,0.7,540.3331,540.3331,540.8137,left,1,0.4769,,540.8137,541.8141,3,6,30,1,1,partial,1,images/Ex13.jpg,left,training,easy,5,,,,,
,,,,,60d2c59451b12e36fb281477,001,29,Male,United Kingdom,Master,2024-02-26_17h51.28.210,CRL1e,2023.2.3,MacIntel,74.07407407,65dbad3905fde4fe1981dc61,65dccf7101b13e59954b8f94,,,,,,,,,,,541.8143,1,542.8143,542.8144,543.3213,right,1,0.4952,,543.3213,544.3209,3,7,31,5,1,partial,1,images/Ex15.jpg,right,training,easy,5,,,,,
,,,,,60d2c59451b12e36fb281477,001,29,Male,United Kingdom,Master,2024-02-26_17h51.28.210,CRL1e,2023.2.3,MacIntel,74.07407407,65dbad3905fde4fe1981dc61,65dccf7101b13e59954b8f94,,,,,,,,,,,544.3211,1.1,545.4153,545.4153,545.8819,right,1,0.4563,,545.8819,546.8814,4,0,32,4,1,partial,1,images/Ex15.jpg,right,training,easy,5,,,,,
,,,,,60d2c59451b12e36fb281477,001,29,Male,United Kingdom,Master,2024-02-26_17h51.28.210,CRL1e,2023.2.3,MacIntel,74.07407407,65dbad3905fde4fe1981dc61,65dccf7101b13e59954b8f94,,,,,,,,,,,546.8815,1.4,548.2823,548.2824,548.7095,left,1,0.4245,,548.7095,549.7095,4,1,33,0,1,partial,1,images/Ex13.jpg,left,training,easy,5,,,,,
,,,,,60d2c59451b12e36fb281477,001,29,Male,United Kingdom,Master,2024-02-26_17h51.28.210,CRL1e,2023.2.3,MacIntel,74.07407407,65dbad3905fde4fe1981dc61,65dccf7101b13e59954b8f94,,,,,,,,,,,549.7097,1.3,551.0029,551.003,551.5893,right,1,0.585,,551.5893,552.59,4,2,34,5,1,partial,1,images/Ex15.jpg,right,training,easy,5,,,,,
,,,,,60d2c59451b12e36fb281477,001,29,Male,United Kingdom,Master,2024-02-26_17h51.28.210,CRL1e,2023.2.3,MacIntel,74.07407407,65dbad3905fde4fe1981dc61,65dccf7101b13e59954b8f94,,,,,,,,,,,552.5902,1.4,553.9898,553.9899,554.5635,left,1,0.5661,,554.5635,555.5641,4,3,35,2,1,partial,1,images/Ex14.jpg,left,training,easy,5,,,,,
,,,,,60d2c59451b12e36fb281477,001,29,Male,United Kingdom,Master,2024-02-26_17h51.28.210,CRL1e,2023.2.3,MacIntel,74.07407407,65dbad3905fde4fe1981dc61,65dccf7101b13e59954b8f94,,,,,,,,,,,555.5643,0.6,556.1641,556.1641,556.7645,right,1,0.5881,,556.7645,557.7642,4,4,36,6,1,partial,1,images/Ex16.jpg,right,training,easy,5,,,,,
,,,,,60d2c59451b12e36fb281477,001,29,Male,United Kingdom,Master,2024-02-26_17h51.28.210,CRL1e,2023.2.3,MacIntel,74.07407407,65dbad3905fde4fe1981dc61,65dccf7101b13e59954b8f94,,,,,,,,,,,557.7643,1.5,559.2582,559.2582,559.8184,right,1,0.5526,,559.8184,560.8181,4,5,37,7,1,partial,1,images/Ex16.jpg,right,training,easy,5,,,,,
,,,,,60d2c59451b12e36fb281477,001,29,Male,United Kingdom,Master,2024-02-26_17h51.28.210,CRL1e,2023.2.3,MacIntel,74.07407407,65dbad3905fde4fe1981dc61,65dccf7101b13e59954b8f94,,,,,,,,,,,560.8182,0.6,561.4176,561.4176,561.9253,left,1,0.4969,,561.9254,562.9252,4,6,38,1,1,partial,1,images/Ex13.jpg,left,training,easy,5,,,,,
,,,,,60d2c59451b12e36fb281477,001,29,Male,United Kingdom,Master,2024-02-26_17h51.28.210,CRL1e,2023.2.3,MacIntel,74.07407407,65dbad3905fde4fe1981dc61,65dccf7101b13e59954b8f94,,,,,,,,,,,562.9254,1.1,564.0185,564.0185,564.4853,left,1,0.4608,,564.4854,565.4855,4,7,39,3,1,partial,1,images/Ex14.jpg,left,training,easy,5,,,,,
,,,,,60d2c59451b12e36fb281477,001,29,Male,United Kingdom,Master,2024-02-26_17h51.28.210,CRL1e,2023.2.3,MacIntel,74.07407407,65dbad3905fde4fe1981dc61,65dccf7101b13e59954b8f94,,,,,,,,,,,565.4858,0.6,566.0864,566.0864,566.5393,right,1,0.441,,566.5393,567.5394,5,0,40,7,1,partial,1,images/Ex16.jpg,right,training,easy,5,,,,,
,,,,,60d2c59451b12e36fb281477,001,29,Male,United Kingdom,Master,2024-02-26_17h51.28.210,CRL1e,2023.2.3,MacIntel,74.07407407,65dbad3905fde4fe1981dc61,65dccf7101b13e59954b8f94,,,,,,,,,,,567.5395,0.7,568.2332,568.2333,568.8335,left,1,0.5886,,568.8335,569.8339,5,1,41,3,1,partial,1,images/Ex14.jpg,left,training,easy,5,,,,,
,,,,,60d2c59451b12e36fb281477,001,29,Male,United Kingdom,Master,2024-02-26_17h51.28.210,CRL1e,2023.2.3,MacIntel,74.07407407,65dbad3905fde4fe1981dc61,65dccf7101b13e59954b8f94,,,,,,,,,,,569.8341,1,570.8332,570.8332,571.3273,right,1,0.4854,,571.3273,572.3268,5,2,42,6,1,partial,1,images/Ex16.jpg,right,training,easy,5,,,,,
,,,,,60d2c59451b12e36fb281477,001,29,Male,United Kingdom,Master,2024-02-26_17h51.28.210,CRL1e,2023.2.3,MacIntel,74.07407407,65dbad3905fde4fe1981dc61,65dccf7101b13e59954b8f94,,,,,,,,,,,572.3271,1.2,573.528,573.528,573.9815,left,1,0.4458,,573.9815,574.9807,5,3,43,1,1,partial,1,images/Ex13.jpg,left,training,easy,5,,,,,
,,,,,60d2c59451b12e36fb281477,001,29,Male,United Kingdom,Master,2024-02-26_17h51.28.210,CRL1e,2023.2.3,MacIntel,74.07407407,65dbad3905fde4fe1981dc61,65dccf7101b13e59954b8f94,,,,,,,,,,,574.9809,0.7,575.6744,575.6744,576.1679,right,1,0.4832,,576.1679,577.1679,5,4,44,4,1,partial,1,images/Ex15.jpg,right,training,easy,5,,,,,
,,,,,60d2c59451b12e36fb281477,001,29,Male,United Kingdom,Master,2024-02-26_17h51.28.210,CRL1e,2023.2.3,MacIntel,74.07407407,65dbad3905fde4fe1981dc61,65dccf7101b13e59954b8f94,,,,,,,,,,,577.1681,1.3,578.4616,578.4616,578.9553,right,1,0.4858,,578.9553,579.9561,5,5,45,5,1,partial,1,images/Ex15.jpg,right,training,easy,5,,,,,
,,,,,60d2c59451b12e36fb281477,001,29,Male,United Kingdom,Master,2024-02-26_17h51.28.210,CRL1e,2023.2.3,MacIntel,74.07407407,65dbad3905fde4fe1981dc61,65dccf7101b13e59954b8f94,,,,,,,,,,,579.9561,1.3,581.2496,581.2496,581.7032,left,1,0.4425,,581.7033,582.7028,5,6,46,0,1,partial,1,images/Ex13.jpg,left,training,easy,5,,,,,
,,,,,60d2c59451b12e36fb281477,001,29,Male,United Kingdom,Master,2024-02-26_17h51.28.210,CRL1e,2023.2.3,MacIntel,74.07407407,65dbad3905fde4fe1981dc61,65dccf7101b13e59954b8f94,,,,,,,,,,,582.703,0.9,583.5964,583.5964,584.0104,left,1,0.4131,,584.0104,585.0105,5,7,47,2,1,partial,1,images/Ex14.jpg,left,training,easy,5,,,,,
,,,,,60d2c59451b12e36fb281477,001,29,Male,United Kingdom,Master,2024-02-26_17h51.28.210,CRL1e,2023.2.3,MacIntel,74.07407407,65dbad3905fde4fe1981dc61,65dccf7101b13e59954b8f94,,,,,,,,,,,585.013,0.5,585.5036,585.5036,586.0235,right,1,0.5087,,586.0235,587.0245,0,0,0,4,1,partial,2,images/Ex15.jpg,right,nonreversed,easy,5,,,,,
,,,,,60d2c59451b12e36fb281477,001,29,Male,United Kingdom,Master,2024-02-26_17h51.28.210,CRL1e,2023.2.3,MacIntel,74.07407407,65dbad3905fde4fe1981dc61,65dccf7101b13e59954b8f94,,,,,,,,,,,587.0246,0.6,587.6244,587.6244,588.2513,left,0,0.6156,,588.2513,589.2515,0,1,1,5,1,partial,2,images/Ex15.jpg,right,nonreversed,easy,5,,,,,
,,,,,60d2c59451b12e36fb281477,001,29,Male,United Kingdom,Master,2024-02-26_17h51.28.210,CRL1e,2023.2.3,MacIntel,74.07407407,65dbad3905fde4fe1981dc61,65dccf7101b13e59954b8f94,,,,,,,,,,,589.2517,1,590.2512,590.2512,590.7712,right,0,0.5092,,590.7712,591.7713,0,2,2,7,1,partial,2,images/Ex16.jpg,left,reversed,easy,5,,,,,
,,,,,60d2c59451b12e36fb281477,001,29,Male,United Kingdom,Master,2024-02-26_17h51.28.210,CRL1e,2023.2.3,MacIntel,74.07407407,65dbad3905fde4fe1981dc61,65dccf7101b13e59954b8f94,,,,,,,,,,,591.7716,0.7,592.4656,592.4656,592.9583,right,0,0.4813,,592.9583,593.9586,0,3,3,6,1,partial,2,images/Ex16.jpg,left,reversed,easy,5,,,,,
,,,,,60d2c59451b12e36fb281477,001,29,Male,United Kingdom,Master,2024-02-26_17h51.28.210,CRL1e,2023.2.3,MacIntel,74.07407407,65dbad3905fde4fe1981dc61,65dccf7101b13e59954b8f94,,,,,,,,,,,593.9588,0.8,594.7586,594.7586,595.733,left,1,0.972,,595.733,596.7324,0,4,4,1,1,partial,2,images/Ex13.jpg,left,nonreversed,easy,5,,,,,
,,,,,60d2c59451b12e36fb281477,001,29,Male,United Kingdom,Master,2024-02-26_17h51.28.210,CRL1e,2023.2.3,MacIntel,74.07407407,65dbad3905fde4fe1981dc61,65dccf7101b13e59954b8f94,,,,,,,,,,,596.7326,1.3,598.0258,598.0258,598.5996,left,0,0.5634,,598.5996,599.5997,0,5,5,3,1,partial,2,images/Ex14.jpg,right,reversed,easy,5,,,,,
,,,,,60d2c59451b12e36fb281477,001,29,Male,United Kingdom,Master,2024-02-26_17h51.28.210,CRL1e,2023.2.3,MacIntel,74.07407407,65dbad3905fde4fe1981dc61,65dccf7101b13e59954b8f94,,,,,,,,,,,599.5999,0.9,600.4934,600.4934,600.9599,right,1,0.4582,,600.96,601.9602,0,6,6,2,1,partial,2,images/Ex14.jpg,right,reversed,easy,5,,,,,
,,,,,60d2c59451b12e36fb281477,001,29,Male,United Kingdom,Master,2024-02-26_17h51.28.210,CRL1e,2023.2.3,MacIntel,74.07407407,65dbad3905fde4fe1981dc61,65dccf7101b13e59954b8f94,,,,,,,,,,,601.9604,1.2,603.1604,603.1604,603.8414,left,1,0.6718,,603.8414,604.8417,0,7,7,0,1,partial,2,images/Ex13.jpg,left,nonreversed,easy,5,,,,,
,,,,,60d2c59451b12e36fb281477,001,29,Male,United Kingdom,Master,2024-02-26_17h51.28.210,CRL1e,2023.2.3,MacIntel,74.07407407,65dbad3905fde4fe1981dc61,65dccf7101b13e59954b8f94,,,,,,,,,,,604.8419,1.2,606.041,606.041,606.6022,right,0,0.5588,,606.6022,607.6018,1,0,8,6,1,partial,2,images/Ex16.jpg,left,reversed,easy,5,,,,,
,,,,,60d2c59451b12e36fb281477,001,29,Male,United Kingdom,Master,2024-02-26_17h51.28.210,CRL1e,2023.2.3,MacIntel,74.07407407,65dbad3905fde4fe1981dc61,65dccf7101b13e59954b8f94,,,,,,,,,,,607.602,1.1,608.6953,608.6953,609.3353,left,1,0.6291,,609.3353,610.3359,1,1,9,1,1,partial,2,images/Ex13.jpg,left,nonreversed,easy,5,,,,,
,,,,,60d2c59451b12e36fb281477,001,29,Male,United Kingdom,Master,2024-02-26_17h51.28.210,CRL1e,2023.2.3,MacIntel,74.07407407,65dbad3905fde4fe1981dc61,65dccf7101b13e59954b8f94,,,,,,,,,,,610.3361,1.4,611.7356,611.7356,612.5897,right,1,0.8505,,612.5897,613.5899,1,2,10,2,1,partial,2,images/Ex14.jpg,right,reversed,easy,5,,,,,
,,,,,60d2c59451b12e36fb281477,001,29,Male,United Kingdom,Master,2024-02-26_17h51.28.210,CRL1e,2023.2.3,MacIntel,74.07407407,65dbad3905fde4fe1981dc61,65dccf7101b13e59954b8f94,,,,,,,,,,,613.5901,0.5,614.0827,614.0827,614.6438,right,1,0.5492,,614.6439,615.6434,1,3,11,3,1,partial,2,images/Ex14.jpg,right,reversed,easy,5,,,,,
,,,,,60d2c59451b12e36fb281477,001,29,Male,United Kingdom,Master,2024-02-26_17h51.28.210,CRL1e,2023.2.3,MacIntel,74.07407407,65dbad3905fde4fe1981dc61,65dccf7101b13e59954b8f94,,,,,,,,,,,615.6436,1,616.6436,616.6436,617.2441,left,1,0.598,,617.2441,618.2444,1,4,12,0,1,partial,2,images/Ex13.jpg,left,nonreversed,easy,5,,,,,
,,,,,60d2c59451b12e36fb281477,001,29,Male,United Kingdom,Master,2024-02-26_17h51.28.210,CRL1e,2023.2.3,MacIntel,74.07407407,65dbad3905fde4fe1981dc61,65dccf7101b13e59954b8f94,,,,,,,,,,,618.2445,1.5,619.738,619.7381,620.4985,right,1,0.7585,,620.4985,621.4987,1,5,13,5,1,partial,2,images/Ex15.jpg,right,nonreversed,easy,5,,,,,
,,,,,60d2c59451b12e36fb281477,001,29,Male,United Kingdom,Master,2024-02-26_17h51.28.210,CRL1e,2023.2.3,MacIntel,74.07407407,65dbad3905fde4fe1981dc61,65dccf7101b13e59954b8f94,,,,,,,,,,,621.4989,1,622.4989,622.499,623.1256,left,1,0.6157,,623.1257,624.126,1,6,14,7,1,partial,2,images/Ex16.jpg,left,reversed,easy,5,,,,,
,,,,,60d2c59451b12e36fb281477,001,29,Male,United Kingdom,Master,2024-02-26_17h51.28.210,CRL1e,2023.2.3,MacIntel,74.07407407,65dbad3905fde4fe1981dc61,65dccf7101b13e59954b8f94,,,,,,,,,,,624.1262,1.2,625.3257,625.3257,626.4459,right,1,1.1188,,626.4459,627.4458,1,7,15,4,1,partial,2,images/Ex15.jpg,right,nonreversed,easy,5,,,,,
,,,,,60d2c59451b12e36fb281477,001,29,Male,United Kingdom,Master,2024-02-26_17h51.28.210,CRL1e,2023.2.3,MacIntel,74.07407407,65dbad3905fde4fe1981dc61,65dccf7101b13e59954b8f94,,,,,,,,,,,627.446,1,628.4464,628.4464,628.9661,left,1,0.519,,628.9661,629.9664,2,0,16,6,1,partial,2,images/Ex16.jpg,left,reversed,easy,5,,,,,
,,,,,60d2c59451b12e36fb281477,001,29,Male,United Kingdom,Master,2024-02-26_17h51.28.210,CRL1e,2023.2.3,MacIntel,74.07407407,65dbad3905fde4fe1981dc61,65dccf7101b13e59954b8f94,,,,,,,,,,,629.9666,1.3,631.2608,631.2608,631.8745,left,1,0.6072,,631.8745,632.8745,2,1,17,7,1,partial,2,images/Ex16.jpg,left,reversed,easy,5,,,,,
,,,,,60d2c59451b12e36fb281477,001,29,Male,United Kingdom,Master,2024-02-26_17h51.28.210,CRL1e,2023.2.3,MacIntel,74.07407407,65dbad3905fde4fe1981dc61,65dccf7101b13e59954b8f94,,,,,,,,,,,632.8748,0.6,633.474,633.474,633.9949,left,1,0.5089,,633.9949,634.9947,2,2,18,1,1,partial,2,images/Ex13.jpg,left,nonreversed,easy,5,,,,,
,,,,,60d2c59451b12e36fb281477,001,29,Male,United Kingdom,Master,2024-02-26_17h51.28.210,CRL1e,2023.2.3,MacIntel,74.07407407,65dbad3905fde4fe1981dc61,65dccf7101b13e59954b8f94,,,,,,,,,,,634.9949,1.2,636.1944,636.1944,636.9956,right,1,0.7968,,636.9956,637.9957,2,3,19,3,1,partial,2,images/Ex14.jpg,right,reversed,easy,5,,,,,
,,,,,60d2c59451b12e36fb281477,001,29,Male,United Kingdom,Master,2024-02-26_17h51.28.210,CRL1e,2023.2.3,MacIntel,74.07407407,65dbad3905fde4fe1981dc61,65dccf7101b13e59954b8f94,,,,,,,,,,,637.9959,1.2,639.1955,639.1955,639.6761,left,1,0.4783,,639.6761,640.6755,2,4,20,0,1,partial,2,images/Ex13.jpg,left,nonreversed,easy,5,,,,,
,,,,,60d2c59451b12e36fb281477,001,29,Male,United Kingdom,Master,2024-02-26_17h51.28.210,CRL1e,2023.2.3,MacIntel,74.07407407,65dbad3905fde4fe1981dc61,65dccf7101b13e59954b8f94,,,,,,,,,,,640.6757,0.6,641.2764,641.2764,641.8366,right,1,0.5575,,641.8366,642.8364,2,5,21,5,1,partial,2,images/Ex15.jpg,right,nonreversed,easy,5,,,,,
,,,,,60d2c59451b12e36fb281477,001,29,Male,United Kingdom,Master,2024-02-26_17h51.28.210,CRL1e,2023.2.3,MacIntel,74.07407407,65dbad3905fde4fe1981dc61,65dccf7101b13e59954b8f94,,,,,,,,,,,642.8365,1.5,644.3301,644.3301,644.8367,right,1,0.4972,,644.8368,645.8365,2,6,22,4,1,partial,2,images/Ex15.jpg,right,nonreversed,easy,5,,,,,
,,,,,60d2c59451b12e36fb281477,001,29,Male,United Kingdom,Master,2024-02-26_17h51.28.210,CRL1e,2023.2.3,MacIntel,74.07407407,65dbad3905fde4fe1981dc61,65dccf7101b13e59954b8f94,,,,,,,,,,,645.8366,0.9,646.7301,646.7301,647.2376,left,0,0.5055,,647.2376,648.2379,2,7,23,2,1,partial,2,images/Ex14.jpg,right,reversed,easy,5,,,,,
,,,,,60d2c59451b12e36fb281477,001,29,Male,United Kingdom,Master,2024-02-26_17h51.28.210,CRL1e,2023.2.3,MacIntel,74.07407407,65dbad3905fde4fe1981dc61,65dccf7101b13e59954b8f94,,,,,,,,,,,648.2381,1.2,649.4374,649.4374,649.9718,left,1,0.5244,,649.9718,650.9711,3,0,24,1,1,partial,2,images/Ex13.jpg,left,nonreversed,easy,5,,,,,
,,,,,60d2c59451b12e36fb281477,001,29,Male,United Kingdom,Master,2024-02-26_17h51.28.210,CRL1e,2023.2.3,MacIntel,74.07407407,65dbad3905fde4fe1981dc61,65dccf7101b13e59954b8f94,,,,,,,,,,,650.9713,1.4,652.3714,652.3714,652.8918,left,1,0.5112,,652.8918,653.8925,3,1,25,0,1,partial,2,images/Ex13.jpg,left,nonreversed,easy,5,,,,,
,,,,,60d2c59451b12e36fb281477,001,29,Male,United Kingdom,Master,2024-02-26_17h51.28.210,CRL1e,2023.2.3,MacIntel,74.07407407,65dbad3905fde4fe1981dc61,65dccf7101b13e59954b8f94,,,,,,,,,,,653.8927,1.3,655.1858,655.1858,655.7064,right,1,0.5091,,655.7064,656.7065,3,2,26,5,1,partial,2,images/Ex15.jpg,right,nonreversed,easy,5,,,,,
,,,,,60d2c59451b12e36fb281477,001,29,Male,United Kingdom,Master,2024-02-26_17h51.28.210,CRL1e,2023.2.3,MacIntel,74.07407407,65dbad3905fde4fe1981dc61,65dccf7101b13e59954b8f94,,,,,,,,,,,656.7067,0.6,657.3057,657.3057,657.867,right,1,0.5497,,657.867,658.8669,3,3,27,4,1,partial,2,images/Ex15.jpg,right,nonreversed,easy,5,,,,,
,,,,,60d2c59451b12e36fb281477,001,29,Male,United Kingdom,Master,2024-02-26_17h51.28.210,CRL1e,2023.2.3,MacIntel,74.07407407,65dbad3905fde4fe1981dc61,65dccf7101b13e59954b8f94,,,,,,,,,,,658.867,0.5,659.3604,659.3605,659.9736,left,1,0.6089,,659.9737,660.9732,3,4,28,6,1,partial,2,images/Ex16.jpg,left,reversed,easy,5,,,,,
,,,,,60d2c59451b12e36fb281477,001,29,Male,United Kingdom,Master,2024-02-26_17h51.28.210,CRL1e,2023.2.3,MacIntel,74.07407407,65dbad3905fde4fe1981dc61,65dccf7101b13e59954b8f94,,,,,,,,,,,660.9734,1.1,662.0668,662.0668,662.7073,left,1,0.6368,,662.7073,663.7076,3,5,29,7,1,partial,2,images/Ex16.jpg,left,reversed,easy,5,,,,,
,,,,,60d2c59451b12e36fb281477,001,29,Male,United Kingdom,Master,2024-02-26_17h51.28.210,CRL1e,2023.2.3,MacIntel,74.07407407,65dbad3905fde4fe1981dc61,65dccf7101b13e59954b8f94,,,,,,,,,,,663.7077,1.1,664.8012,664.8013,665.4418,right,1,0.6363,,665.4419,666.4416,3,6,30,3,1,partial,2,images/Ex14.jpg,right,reversed,easy,5,,,,,
,,,,,60d2c59451b12e36fb281477,001,29,Male,United Kingdom,Master,2024-02-26_17h51.28.210,CRL1e,2023.2.3,MacIntel,74.07407407,65dbad3905fde4fe1981dc61,65dccf7101b13e59954b8f94,,,,,,,,,,,666.4419,1.2,667.6423,667.6423,668.2284,right,1,0.5848,,668.2284,669.2289,3,7,31,2,1,partial,2,images/Ex14.jpg,right,reversed,easy,5,,,,,
,,,,,60d2c59451b12e36fb281477,001,29,Male,United Kingdom,Master,2024-02-26_17h51.28.210,CRL1e,2023.2.3,MacIntel,74.07407407,65dbad3905fde4fe1981dc61,65dccf7101b13e59954b8f94,,,,,,,,,,,669.2291,0.9,670.1228,670.1228,670.6157,left,1,0.492,,670.6157,671.6162,4,0,32,0,1,partial,2,images/Ex13.jpg,left,nonreversed,easy,5,,,,,
,,,,,60d2c59451b12e36fb281477,001,29,Male,United Kingdom,Master,2024-02-26_17h51.28.210,CRL1e,2023.2.3,MacIntel,74.07407407,65dbad3905fde4fe1981dc61,65dccf7101b13e59954b8f94,,,,,,,,,,,671.6163,1.5,673.1098,673.1098,673.5627,left,1,0.4514,,673.5628,674.5637,4,1,33,1,1,partial,2,images/Ex13.jpg,left,nonreversed,easy,5,,,,,
,,,,,60d2c59451b12e36fb281477,001,29,Male,United Kingdom,Master,2024-02-26_17h51.28.210,CRL1e,2023.2.3,MacIntel,74.07407407,65dbad3905fde4fe1981dc61,65dccf7101b13e59954b8f94,,,,,,,,,,,674.5639,1.2,675.7633,675.7633,676.3505,right,1,0.5862,,676.3505,677.351,4,2,34,3,1,partial,2,images/Ex14.jpg,right,reversed,easy,5,,,,,
,,,,,60d2c59451b12e36fb281477,001,29,Male,United Kingdom,Master,2024-02-26_17h51.28.210,CRL1e,2023.2.3,MacIntel,74.07407407,65dbad3905fde4fe1981dc61,65dccf7101b13e59954b8f94,,,,,,,,,,,677.3511,0.8,678.1505,678.1505,678.6708,left,1,0.5173,,678.6708,679.6714,4,3,35,6,1,partial,2,images/Ex16.jpg,left,reversed,easy,5,,,,,
,,,,,60d2c59451b12e36fb281477,001,29,Male,United Kingdom,Master,2024-02-26_17h51.28.210,CRL1e,2023.2.3,MacIntel,74.07407407,65dbad3905fde4fe1981dc61,65dccf7101b13e59954b8f94,,,,,,,,,,,679.6715,0.8,680.471,680.471,681.0585,right,1,0.5804,,681.0585,682.0581,4,4,36,5,1,partial,2,images/Ex15.jpg,right,nonreversed,easy,5,,,,,
,,,,,60d2c59451b12e36fb281477,001,29,Male,United Kingdom,Master,2024-02-26_17h51.28.210,CRL1e,2023.2.3,MacIntel,74.07407407,65dbad3905fde4fe1981dc61,65dccf7101b13e59954b8f94,,,,,,,,,,,682.0582,1.1,683.1523,683.1524,683.6718,right,1,0.5103,,683.6718,684.6725,4,5,37,4,1,partial,2,images/Ex15.jpg,right,nonreversed,easy,5,,,,,
,,,,,60d2c59451b12e36fb281477,001,29,Male,United Kingdom,Master,2024-02-26_17h51.28.210,CRL1e,2023.2.3,MacIntel,74.07407407,65dbad3905fde4fe1981dc61,65dccf7101b13e59954b8f94,,,,,,,,,,,684.6727,1.3,685.9655,685.9656,686.5523,right,1,0.5764,,686.5523,687.5526,4,6,38,2,1,partial,2,images/Ex14.jpg,right,reversed,easy,5,,,,,
,,,,,60d2c59451b12e36fb281477,001,29,Male,United Kingdom,Master,2024-02-26_17h51.28.210,CRL1e,2023.2.3,MacIntel,74.07407407,65dbad3905fde4fe1981dc61,65dccf7101b13e59954b8f94,,,,,,,,,,,687.5528,0.9,688.4463,688.4463,689.0063,left,1,0.549,,689.0063,690.0069,4,7,39,7,1,partial,2,images/Ex16.jpg,left,reversed,easy,5,,,,,
,,,,,60d2c59451b12e36fb281477,001,29,Male,United Kingdom,Master,2024-02-26_17h51.28.210,CRL1e,2023.2.3,MacIntel,74.07407407,65dbad3905fde4fe1981dc61,65dccf7101b13e59954b8f94,,,,,,,,,,,690.0071,0.8,690.8066,690.8066,691.2732,left,1,0.4606,,691.2732,692.2737,5,0,40,1,1,partial,2,images/Ex13.jpg,left,nonreversed,easy,5,,,,,
,,,,,60d2c59451b12e36fb281477,001,29,Male,United Kingdom,Master,2024-02-26_17h51.28.210,CRL1e,2023.2.3,MacIntel,74.07407407,65dbad3905fde4fe1981dc61,65dccf7101b13e59954b8f94,,,,,,,,,,,692.2739,0.6,692.8743,692.8743,693.4071,left,1,0.5311,,693.4071,694.4079,5,1,41,0,1,partial,2,images/Ex13.jpg,left,nonreversed,easy,5,,,,,
,,,,,60d2c59451b12e36fb281477,001,29,Male,United Kingdom,Master,2024-02-26_17h51.28.210,CRL1e,2023.2.3,MacIntel,74.07407407,65dbad3905fde4fe1981dc61,65dccf7101b13e59954b8f94,,,,,,,,,,,694.408,0.7,695.1017,695.1017,695.6616,right,1,0.5531,,695.6616,696.6616,5,2,42,3,1,partial,2,images/Ex14.jpg,right,reversed,easy,5,,,,,
,,,,,60d2c59451b12e36fb281477,001,29,Male,United Kingdom,Master,2024-02-26_17h51.28.210,CRL1e,2023.2.3,MacIntel,74.07407407,65dbad3905fde4fe1981dc61,65dccf7101b13e59954b8f94,,,,,,,,,,,696.6618,1.2,697.8623,697.8623,698.3687,left,1,0.4957,,698.3687,699.3694,5,3,43,6,1,partial,2,images/Ex16.jpg,left,reversed,easy,5,,,,,
,,,,,60d2c59451b12e36fb281477,001,29,Male,United Kingdom,Master,2024-02-26_17h51.28.210,CRL1e,2023.2.3,MacIntel,74.07407407,65dbad3905fde4fe1981dc61,65dccf7101b13e59954b8f94,,,,,,,,,,,699.3695,0.6,699.9684,699.9684,700.529,left,1,0.5492,,700.529,701.5291,5,4,44,7,1,partial,2,images/Ex16.jpg,left,reversed,easy,5,,,,,
,,,,,60d2c59451b12e36fb281477,001,29,Male,United Kingdom,Master,2024-02-26_17h51.28.210,CRL1e,2023.2.3,MacIntel,74.07407407,65dbad3905fde4fe1981dc61,65dccf7101b13e59954b8f94,,,,,,,,,,,701.5293,0.6,702.129,702.129,702.7025,right,1,0.5701,,702.7026,703.7035,5,5,45,4,1,partial,2,images/Ex15.jpg,right,nonreversed,easy,5,,,,,
,,,,,60d2c59451b12e36fb281477,001,29,Male,United Kingdom,Master,2024-02-26_17h51.28.210,CRL1e,2023.2.3,MacIntel,74.07407407,65dbad3905fde4fe1981dc61,65dccf7101b13e59954b8f94,,,,,,,,,,,703.7037,1.5,705.1964,705.1965,705.9037,right,1,0.6972,,705.9038,706.9035,5,6,46,2,1,partial,2,images/Ex14.jpg,right,reversed,easy,5,,,,,
,,,,,60d2c59451b12e36fb281477,001,29,Male,United Kingdom,Master,2024-02-26_17h51.28.210,CRL1e,2023.2.3,MacIntel,74.07407407,65dbad3905fde4fe1981dc61,65dccf7101b13e59954b8f94,,,,,,,,,,,706.9036,0.8,707.7041,707.7041,708.2639,right,1,0.5504,,708.264,709.2646,5,7,47,5,1,partial,2,images/Ex15.jpg,right,nonreversed,easy,5,,,,,
,,,,,60d2c59451b12e36fb281477,001,29,Male,United Kingdom,Master,2024-02-26_17h51.28.210,CRL1e,2023.2.3,MacIntel,74.07407407,65dbad3905fde4fe1981dc61,65dccf7101b13e59954b8f94,,,,,,709.2661,791.9625,space,82.6911,,791.9641,0.5,792.4557,792.4558,793.3101,left,1,0.8521,,793.3102,794.3103,0,0,0,3,1,total,1,images/Ex10.jpg,left,training,easy,5,,,,,
,,,,,60d2c59451b12e36fb281477,001,29,Male,United Kingdom,Master,2024-02-26_17h51.28.210,CRL1e,2023.2.3,MacIntel,74.07407407,65dbad3905fde4fe1981dc61,65dccf7101b13e59954b8f94,,,,,,,,,,,794.3106,1.3,795.604,795.604,796.484,left,0,0.8726,,796.4841,797.4836,0,1,1,7,1,total,1,images/Ex12.jpg,right,training,easy,5,,,,,
,,,,,60d2c59451b12e36fb281477,001,29,Male,United Kingdom,Master,2024-02-26_17h51.28.210,CRL1e,2023.2.3,MacIntel,74.07407407,65dbad3905fde4fe1981dc61,65dccf7101b13e59954b8f94,,,,,,,,,,,797.4838,1.3,798.778,798.778,799.4715,left,1,0.6916,,799.4715,800.4715,0,2,2,1,1,total,1,images/Ex9.jpg,left,training,easy,5,,,,,
,,,,,60d2c59451b12e36fb281477,001,29,Male,United Kingdom,Master,2024-02-26_17h51.28.210,CRL1e,2023.2.3,MacIntel,74.07407407,65dbad3905fde4fe1981dc61,65dccf7101b13e59954b8f94,,,,,,,,,,,800.4717,1,801.4709,801.4709,802.1913,left,0,0.71,,802.1914,803.1921,0,3,3,5,1,total,1,images/Ex11.jpg,right,training,easy,5,,,,,
,,,,,60d2c59451b12e36fb281477,001,29,Male,United Kingdom,Master,2024-02-26_17h51.28.210,CRL1e,2023.2.3,MacIntel,74.07407407,65dbad3905fde4fe1981dc61,65dccf7101b13e59954b8f94,,,,,,,,,,,803.1923,1.2,804.3919,804.392,805.0051,left,1,0.6121,,805.0051,806.0059,0,4,4,2,1,total,1,images/Ex10.jpg,left,training,easy,5,,,,,
,,,,,60d2c59451b12e36fb281477,001,29,Male,United Kingdom,Master,2024-02-26_17h51.28.210,CRL1e,2023.2.3,MacIntel,74.07407407,65dbad3905fde4fe1981dc61,65dccf7101b13e59954b8f94,,,,,,,,,,,806.006,0.9,806.8994,806.8994,807.5927,right,1,0.6928,,807.5927,808.5933,0,5,5,4,1,total,1,images/Ex11.jpg,right,training,easy,5,,,,,
,,,,,60d2c59451b12e36fb281477,001,29,Male,United Kingdom,Master,2024-02-26_17h51.28.210,CRL1e,2023.2.3,MacIntel,74.07407407,65dbad3905fde4fe1981dc61,65dccf7101b13e59954b8f94,,,,,,,,,,,808.5936,1.2,809.7931,809.7931,810.4063,left,1,0.6115,,810.4063,811.4066,0,6,6,0,1,total,1,images/Ex9.jpg,left,training,easy,5,,,,,
,,,,,60d2c59451b12e36fb281477,001,29,Male,United Kingdom,Master,2024-02-26_17h51.28.210,CRL1e,2023.2.3,MacIntel,74.07407407,65dbad3905fde4fe1981dc61,65dccf7101b13e59954b8f94,,,,,,,,,,,811.4069,1.4,812.8072,812.8072,813.3675,right,1,0.55,,813.3675,814.3676,0,7,7,6,1,total,1,images/Ex12.jpg,right,training,easy,5,,,,,
,,,,,60d2c59451b12e36fb281477,001,29,Male,United Kingdom,Master,2024-02-26_17h51.28.210,CRL1e,2023.2.3,MacIntel,74.07407407,65dbad3905fde4fe1981dc61,65dccf7101b13e59954b8f94,,,,,,,,,,,814.3679,0.9,815.2615,815.2616,815.7676,right,1,0.4978,,815.7676,816.7687,1,0,8,6,1,total,1,images/Ex12.jpg,right,training,easy,5,,,,,
,,,,,60d2c59451b12e36fb281477,001,29,Male,United Kingdom,Master,2024-02-26_17h51.28.210,CRL1e,2023.2.3,MacIntel,74.07407407,65dbad3905fde4fe1981dc61,65dccf7101b13e59954b8f94,,,,,,,,,,,816.7689,1.4,818.1682,818.1682,818.6754,right,1,0.4959,,818.6754,819.6752,1,1,9,7,1,total,1,images/Ex12.jpg,right,training,easy,5,,,,,
,,,,,60d2c59451b12e36fb281477,001,29,Male,United Kingdom,Master,2024-02-26_17h51.28.210,CRL1e,2023.2.3,MacIntel,74.07407407,65dbad3905fde4fe1981dc61,65dccf7101b13e59954b8f94,,,,,,,,,,,819.6754,1.4,821.0753,821.0754,821.9293,right,1,0.8505,,821.9293,822.9294,1,2,10,5,1,total,1,images/Ex11.jpg,right,training,easy,5,,,,,
,,,,,60d2c59451b12e36fb281477,001,29,Male,United Kingdom,Master,2024-02-26_17h51.28.210,CRL1e,2023.2.3,MacIntel,74.07407407,65dbad3905fde4fe1981dc61,65dccf7101b13e59954b8f94,,,,,,,,,,,822.9296,0.8,823.7292,823.7292,824.5038,right,0,0.7634,,824.5038,825.5034,1,3,11,0,1,total,1,images/Ex9.jpg,left,training,easy,5,,,,,
,,,,,60d2c59451b12e36fb281477,001,29,Male,United Kingdom,Master,2024-02-26_17h51.28.210,CRL1e,2023.2.3,MacIntel,74.07407407,65dbad3905fde4fe1981dc61,65dccf7101b13e59954b8f94,,,,,,,,,,,825.5036,0.9,826.3965,826.3965,827.2234,left,1,0.8167,,827.2234,828.2243,1,4,12,1,1,total,1,images/Ex9.jpg,left,training,easy,5,,,,,
,,,,,60d2c59451b12e36fb281477,001,29,Male,United Kingdom,Master,2024-02-26_17h51.28.210,CRL1e,2023.2.3,MacIntel,74.07407407,65dbad3905fde4fe1981dc61,65dccf7101b13e59954b8f94,,,,,,,,,,,828.2244,0.6,828.8245,828.8245,829.4508,right,1,0.6151,,829.4508,830.4514,1,5,13,4,1,total,1,images/Ex11.jpg,right,training,easy,5,,,,,
,,,,,60d2c59451b12e36fb281477,001,29,Male,United Kingdom,Master,2024-02-26_17h51.28.210,CRL1e,2023.2.3,MacIntel,74.07407407,65dbad3905fde4fe1981dc61,65dccf7101b13e59954b8f94,,,,,,,,,,,830.4516,1.3,831.7453,831.7453,832.2787,left,1,0.5304,,832.2788,833.2782,1,6,14,3,1,total,1,images/Ex10.jpg,left,training,easy,5,,,,,
,,,,,60d2c59451b12e36fb281477,001,29,Male,United Kingdom,Master,2024-02-26_17h51.28.210,CRL1e,2023.2.3,MacIntel,74.07407407,65dbad3905fde4fe1981dc61,65dccf7101b13e59954b8f94,,,,,,,,,,,833.2783,1.1,834.3724,834.3725,834.9184,left,1,0.5357,,834.9185,835.9192,1,7,15,2,1,total,1,images/Ex10.jpg,left,training,easy,5,,,,,
,,,,,60d2c59451b12e36fb281477,001,29,Male,United Kingdom,Master,2024-02-26_17h51.28.210,CRL1e,2023.2.3,MacIntel,74.07407407,65dbad3905fde4fe1981dc61,65dccf7101b13e59954b8f94,,,,,,,,,,,835.9194,1.2,837.1198,837.1198,837.6657,right,1,0.5447,,837.6657,838.6658,2,0,16,4,1,total,1,images/Ex11.jpg,right,training,easy,5,,,,,
,,,,,60d2c59451b12e36fb281477,001,29,Male,United Kingdom,Master,2024-02-26_17h51.28.210,CRL1e,2023.2.3,MacIntel,74.07407407,65dbad3905fde4fe1981dc61,65dccf7101b13e59954b8f94,,,,,,,,,,,838.6661,0.5,839.1594,839.1594,839.6395,left,1,0.4727,,839.6395,840.6405,2,1,17,2,1,total,1,images/Ex10.jpg,left,training,easy,5,,,,,
,,,,,60d2c59451b12e36fb281477,001,29,Male,United Kingdom,Master,2024-02-26_17h51.28.210,CRL1e,2023.2.3,MacIntel,74.07407407,65dbad3905fde4fe1981dc61,65dccf7101b13e59954b8f94,,,,,,,,,,,840.6406,0.6,841.2398,841.2399,841.7468,right,1,0.5064,,841.7468,842.747,2,2,18,6,1,total,1,images/Ex12.jpg,right,training,easy,5,,,,,
,,,,,60d2c59451b12e36fb281477,001,29,Male,United Kingdom,Master,2024-02-26_17h51.28.210,CRL1e,2023.2.3,MacIntel,74.07407407,65dbad3905fde4fe1981dc61,65dccf7101b13e59954b8f94,,,,,,,,,,,842.7472,0.7,843.4405,843.4405,844.0143,left,1,0.5713,,844.0144,845.014,2,3,19,1,1,total,1,images/Ex9.jpg,left,training,easy,5,,,,,
,,,,,60d2c59451b12e36fb281477,001,29,Male,United Kingdom,Master,2024-02-26_17h51.28.210,CRL1e,2023.2.3,MacIntel,74.07407407,65dbad3905fde4fe1981dc61,65dccf7101b13e59954b8f94,,,,,,,,,,,845.0141,1,846.0146,846.0147,846.521,left,1,0.5044,,846.5211,847.5212,2,4,20,3,1,total,1,images/Ex10.jpg,left,training,easy,5,,,,,
,,,,,60d2c59451b12e36fb281477,001,29,Male,United Kingdom,Master,2024-02-26_17h51.28.210,CRL1e,2023.2.3,MacIntel,74.07407407,65dbad3905fde4fe1981dc61,65dccf7101b13e59954b8f94,,,,,,,,,,,847.5215,1.1,848.6153,848.6153,849.2421,left,1,0.6245,,849.2423,850.242,2,5,21,0,1,total,1,images/Ex9.jpg,left,training,easy,5,,,,,
,,,,,60d2c59451b12e36fb281477,001,29,Male,United Kingdom,Master,2024-02-26_17h51.28.210,CRL1e,2023.2.3,MacIntel,74.07407407,65dbad3905fde4fe1981dc61,65dccf7101b13e59954b8f94,,,,,,,,,,,850.2421,0.7,850.9362,850.9362,851.4561,right,1,0.5087,,851.4561,852.4556,2,6,22,7,1,total,1,images/Ex12.jpg,right,training,easy,5,,,,,
,,,,,60d2c59451b12e36fb281477,001,29,Male,United Kingdom,Master,2024-02-26_17h51.28.210,CRL1e,2023.2.3,MacIntel,74.07407407,65dbad3905fde4fe1981dc61,65dccf7101b13e59954b8f94,,,,,,,,,,,852.4558,0.6,853.0563,853.0563,853.5625,right,1,0.5047,,853.5625,854.5631,2,7,23,5,1,total,1,images/Ex11.jpg,right,training,easy,5,,,,,
,,,,,60d2c59451b12e36fb281477,001,29,Male,United Kingdom,Master,2024-02-26_17h51.28.210,CRL1e,2023.2.3,MacIntel,74.07407407,65dbad3905fde4fe1981dc61,65dccf7101b13e59954b8f94,,,,,,,,,,,854.5633,1.1,855.6572,855.6572,856.2174,left,1,0.5577,,856.2174,857.2168,3,0,24,1,1,total,1,images/Ex9.jpg,left,training,easy,5,,,,,
,,,,,60d2c59451b12e36fb281477,001,29,Male,United Kingdom,Master,2024-02-26_17h51.28.210,CRL1e,2023.2.3,MacIntel,74.07407407,65dbad3905fde4fe1981dc61,65dccf7101b13e59954b8f94,,,,,,,,,,,857.217,1.3,858.5106,858.5106,859.0314,left,1,0.5183,,859.0314,860.0311,3,1,25,2,1,total,1,images/Ex10.jpg,left,training,easy,5,,,,,
,,,,,60d2c59451b12e36fb281477,001,29,Male,United Kingdom,Master,2024-02-26_17h51.28.210,CRL1e,2023.2.3,MacIntel,74.07407407,65dbad3905fde4fe1981dc61,65dccf7101b13e59954b8f94,,,,,,,,,,,860.0313,0.9,860.9244,860.9244,861.4443,right,1,0.5099,,861.4443,862.4444,3,2,26,5,1,total,1,images/Ex11.jpg,right,training,easy,5,,,,,
,,,,,60d2c59451b12e36fb281477,001,29,Male,United Kingdom,Master,2024-02-26_17h51.28.210,CRL1e,2023.2.3,MacIntel,74.07407407,65dbad3905fde4fe1981dc61,65dccf7101b13e59954b8f94,,,,,,,,,,,862.4446,0.9,863.3388,863.3388,863.8985,right,1,0.5498,,863.8985,864.8984,3,3,27,7,1,total,1,images/Ex12.jpg,right,training,easy,5,,,,,
,,,,,60d2c59451b12e36fb281477,001,29,Male,United Kingdom,Master,2024-02-26_17h51.28.210,CRL1e,2023.2.3,MacIntel,74.07407407,65dbad3905fde4fe1981dc61,65dccf7101b13e59954b8f94,,,,,,,,,,,864.8987,0.7,865.5919,865.5919,866.1391,right,1,0.5463,,866.1391,867.1389,3,4,28,6,1,total,1,images/Ex12.jpg,right,training,easy,5,,,,,
,,,,,60d2c59451b12e36fb281477,001,29,Male,United Kingdom,Master,2024-02-26_17h51.28.210,CRL1e,2023.2.3,MacIntel,74.07407407,65dbad3905fde4fe1981dc61,65dccf7101b13e59954b8f94,,,,,,,,,,,867.139,1.5,868.6334,868.6334,869.1396,right,1,0.496,,869.1396,870.1395,3,5,29,4,1,total,1,images/Ex11.jpg,right,training,easy,5,,,,,
,,,,,60d2c59451b12e36fb281477,001,29,Male,United Kingdom,Master,2024-02-26_17h51.28.210,CRL1e,2023.2.3,MacIntel,74.07407407,65dbad3905fde4fe1981dc61,65dccf7101b13e59954b8f94,,,,,,,,,,,870.1397,0.9,871.034,871.034,871.5399,left,1,0.5054,,871.5399,872.54,3,6,30,3,1,total,1,images/Ex10.jpg,left,training,easy,5,,,,,
,,,,,60d2c59451b12e36fb281477,001,29,Male,United Kingdom,Master,2024-02-26_17h51.28.210,CRL1e,2023.2.3,MacIntel,74.07407407,65dbad3905fde4fe1981dc61,65dccf7101b13e59954b8f94,,,,,,,,,,,872.5402,1.3,873.834,873.834,874.4205,left,1,0.5851,,874.4205,875.4209,3,7,31,0,1,total,1,images/Ex9.jpg,left,training,easy,5,,,,,
,,,,,60d2c59451b12e36fb281477,001,29,Male,United Kingdom,Master,2024-02-26_17h51.28.210,CRL1e,2023.2.3,MacIntel,74.07407407,65dbad3905fde4fe1981dc61,65dccf7101b13e59954b8f94,,,,,,,,,,,875.4211,0.8,876.2214,876.2214,876.7012,right,1,0.4695,,876.7012,877.7013,4,0,32,4,1,total,1,images/Ex11.jpg,right,training,easy,5,,,,,
,,,,,60d2c59451b12e36fb281477,001,29,Male,United Kingdom,Master,2024-02-26_17h51.28.210,CRL1e,2023.2.3,MacIntel,74.07407407,65dbad3905fde4fe1981dc61,65dccf7101b13e59954b8f94,,,,,,,,,,,877.7015,0.6,878.3019,878.3019,878.9288,left,1,0.6155,,878.9288,879.9287,4,1,33,1,1,total,1,images/Ex9.jpg,left,training,easy,5,,,,,
,,,,,60d2c59451b12e36fb281477,001,29,Male,United Kingdom,Master,2024-02-26_17h51.28.210,CRL1e,2023.2.3,MacIntel,74.07407407,65dbad3905fde4fe1981dc61,65dccf7101b13e59954b8f94,,,,,,,,,,,879.9288,0.8,880.7294,880.7294,881.1963,right,1,0.4643,,881.1963,882.1956,4,2,34,5,1,total,1,images/Ex11.jpg,right,training,easy,5,,,,,
,,,,,60d2c59451b12e36fb281477,001,29,Male,United Kingdom,Master,2024-02-26_17h51.28.210,CRL1e,2023.2.3,MacIntel,74.07407407,65dbad3905fde4fe1981dc61,65dccf7101b13e59954b8f94,,,,,,,,,,,882.1958,0.7,882.8894,882.8894,883.3567,left,1,0.4594,,883.3568,884.3567,4,3,35,2,1,total,1,images/Ex10.jpg,left,training,easy,5,,,,,
,,,,,60d2c59451b12e36fb281477,001,29,Male,United Kingdom,Master,2024-02-26_17h51.28.210,CRL1e,2023.2.3,MacIntel,74.07407407,65dbad3905fde4fe1981dc61,65dccf7101b13e59954b8f94,,,,,,,,,,,884.3569,1.2,885.5566,885.5566,886.0499,right,1,0.4924,,886.0499,887.0504,4,4,36,7,1,total,1,images/Ex12.jpg,right,training,easy,5,,,,,
,,,,,60d2c59451b12e36fb281477,001,29,Male,United Kingdom,Master,2024-02-26_17h51.28.210,CRL1e,2023.2.3,MacIntel,74.07407407,65dbad3905fde4fe1981dc61,65dccf7101b13e59954b8f94,,,,,,,,,,,887.0506,1.2,888.2505,888.2505,888.7836,left,1,0.523,,888.7836,889.7841,4,5,37,0,1,total,1,images/Ex9.jpg,left,training,easy,5,,,,,
,,,,,60d2c59451b12e36fb281477,001,29,Male,United Kingdom,Master,2024-02-26_17h51.28.210,CRL1e,2023.2.3,MacIntel,74.07407407,65dbad3905fde4fe1981dc61,65dccf7101b13e59954b8f94,,,,,,,,,,,889.7842,1.4,891.1849,891.1849,891.7053,right,1,0.513,,891.7053,892.7051,4,6,38,6,1,total,1,images/Ex12.jpg,right,training,easy,5,,,,,
,,,,,60d2c59451b12e36fb281477,001,29,Male,United Kingdom,Master,2024-02-26_17h51.28.210,CRL1e,2023.2.3,MacIntel,74.07407407,65dbad3905fde4fe1981dc61,65dccf7101b13e59954b8f94,,,,,,,,,,,892.7053,0.6,893.3046,893.3046,893.7985,left,1,0.4856,,893.7986,894.7991,4,7,39,3,1,total,1,images/Ex10.jpg,left,training,easy,5,,,,,
,,,,,60d2c59451b12e36fb281477,001,29,Male,United Kingdom,Master,2024-02-26_17h51.28.210,CRL1e,2023.2.3,MacIntel,74.07407407,65dbad3905fde4fe1981dc61,65dccf7101b13e59954b8f94,,,,,,,,,,,894.7994,0.6,895.399,895.399,895.8657,right,0,0.4632,,895.8657,896.8669,5,0,40,3,1,total,1,images/Ex10.jpg,left,training,easy,5,,,,,
,,,,,60d2c59451b12e36fb281477,001,29,Male,United Kingdom,Master,2024-02-26_17h51.28.210,CRL1e,2023.2.3,MacIntel,74.07407407,65dbad3905fde4fe1981dc61,65dccf7101b13e59954b8f94,,,,,,,,,,,896.8672,0.6,897.4662,897.4663,898.0259,right,1,0.5527,,898.0259,899.0264,5,1,41,6,1,total,1,images/Ex12.jpg,right,training,easy,5,,,,,
,,,,,60d2c59451b12e36fb281477,001,29,Male,United Kingdom,Master,2024-02-26_17h51.28.210,CRL1e,2023.2.3,MacIntel,74.07407407,65dbad3905fde4fe1981dc61,65dccf7101b13e59954b8f94,,,,,,,,,,,899.0266,0.6,899.6266,899.6266,900.1464,right,1,0.519,,900.1464,901.1467,5,2,42,5,1,total,1,images/Ex11.jpg,right,training,easy,5,,,,,
,,,,,60d2c59451b12e36fb281477,001,29,Male,United Kingdom,Master,2024-02-26_17h51.28.210,CRL1e,2023.2.3,MacIntel,74.07407407,65dbad3905fde4fe1981dc61,65dccf7101b13e59954b8f94,,,,,,,,,,,901.1469,1.3,902.4408,902.4408,902.9075,left,1,0.4642,,902.9076,903.9078,5,3,43,2,1,total,1,images/Ex10.jpg,left,training,easy,5,,,,,
,,,,,60d2c59451b12e36fb281477,001,29,Male,United Kingdom,Master,2024-02-26_17h51.28.210,CRL1e,2023.2.3,MacIntel,74.07407407,65dbad3905fde4fe1981dc61,65dccf7101b13e59954b8f94,,,,,,,,,,,903.908,0.8,904.708,904.708,905.2541,left,1,0.5357,,905.2542,906.2542,5,4,44,0,1,total,1,images/Ex9.jpg,left,training,easy,5,,,,,
,,,,,60d2c59451b12e36fb281477,001,29,Male,United Kingdom,Master,2024-02-26_17h51.28.210,CRL1e,2023.2.3,MacIntel,74.07407407,65dbad3905fde4fe1981dc61,65dccf7101b13e59954b8f94,,,,,,,,,,,906.2544,0.9,907.1476,907.1477,907.6284,left,1,0.4794,,907.6284,908.6287,5,5,45,1,1,total,1,images/Ex9.jpg,left,training,easy,5,,,,,
,,,,,60d2c59451b12e36fb281477,001,29,Male,United Kingdom,Master,2024-02-26_17h51.28.210,CRL1e,2023.2.3,MacIntel,74.07407407,65dbad3905fde4fe1981dc61,65dccf7101b13e59954b8f94,,,,,,,,,,,908.6289,0.9,909.5223,909.5223,910.0816,right,1,0.5585,,910.0817,911.0828,5,6,46,4,1,total,1,images/Ex11.jpg,right,training,easy,5,,,,,
,,,,,60d2c59451b12e36fb281477,001,29,Male,United Kingdom,Master,2024-02-26_17h51.28.210,CRL1e,2023.2.3,MacIntel,74.07407407,65dbad3905fde4fe1981dc61,65dccf7101b13e59954b8f94,,,,,,,,,,,911.0829,0.7,911.7763,911.7763,912.3097,right,1,0.5314,,912.3097,913.309,5,7,47,7,1,total,1,images/Ex12.jpg,right,training,easy,5,,,,,
,,,,,60d2c59451b12e36fb281477,001,29,Male,United Kingdom,Master,2024-02-26_17h51.28.210,CRL1e,2023.2.3,MacIntel,74.07407407,65dbad3905fde4fe1981dc61,65dccf7101b13e59954b8f94,,,,,,,,,,,913.3101,0.7,914.0026,914.0026,914.4698,right,0,0.4656,,914.4699,915.4703,0,0,0,6,1,total,2,images/Ex12.jpg,left,reversed,easy,5,,,,,
,,,,,60d2c59451b12e36fb281477,001,29,Male,United Kingdom,Master,2024-02-26_17h51.28.210,CRL1e,2023.2.3,MacIntel,74.07407407,65dbad3905fde4fe1981dc61,65dccf7101b13e59954b8f94,,,,,,,,,,,915.4705,1.4,916.8707,916.8708,917.31,left,0,0.4307,,917.31,918.311,0,1,1,2,1,total,2,images/Ex10.jpg,right,reversed,easy,5,,,,,
,,,,,60d2c59451b12e36fb281477,001,29,Male,United Kingdom,Master,2024-02-26_17h51.28.210,CRL1e,2023.2.3,MacIntel,74.07407407,65dbad3905fde4fe1981dc61,65dccf7101b13e59954b8f94,,,,,,,,,,,918.3112,0.9,919.2037,919.2037,919.9639,left,0,0.7527,,919.9639,920.9643,0,2,2,1,1,total,2,images/Ex9.jpg,right,reversed,easy,5,,,,,
,,,,,60d2c59451b12e36fb281477,001,29,Male,United Kingdom,Master,2024-02-26_17h51.28.210,CRL1e,2023.2.3,MacIntel,74.07407407,65dbad3905fde4fe1981dc61,65dccf7101b13e59954b8f94,,,,,,,,,,,920.9645,1,921.965,921.965,922.6454,right,1,0.6692,,922.6454,923.6456,0,3,3,3,1,total,2,images/Ex10.jpg,right,reversed,easy,5,,,,,
,,,,,60d2c59451b12e36fb281477,001,29,Male,United Kingdom,Master,2024-02-26_17h51.28.210,CRL1e,2023.2.3,MacIntel,74.07407407,65dbad3905fde4fe1981dc61,65dccf7101b13e59954b8f94,,,,,,,,,,,923.6459,1.4,925.0451,925.0451,925.8318,left,1,0.7856,,925.8318,926.8326,0,4,4,4,1,total,2,images/Ex11.jpg,left,reversed,easy,5,,,,,
,,,,,60d2c59451b12e36fb281477,001,29,Male,United Kingdom,Master,2024-02-26_17h51.28.210,CRL1e,2023.2.3,MacIntel,74.07407407,65dbad3905fde4fe1981dc61,65dccf7101b13e59954b8f94,,,,,,,,,,,926.8327,1,927.833,927.8331,928.6735,left,1,0.831,,928.6736,929.6725,0,5,5,7,1,total,2,images/Ex12.jpg,left,reversed,easy,5,,,,,
,,,,,60d2c59451b12e36fb281477,001,29,Male,United Kingdom,Master,2024-02-26_17h51.28.210,CRL1e,2023.2.3,MacIntel,74.07407407,65dbad3905fde4fe1981dc61,65dccf7101b13e59954b8f94,,,,,,,,,,,929.6728,1.3,930.9667,930.9667,931.7137,right,1,0.7373,,931.7137,932.7133,0,6,6,0,1,total,2,images/Ex9.jpg,right,reversed,easy,5,,,,,
,,,,,60d2c59451b12e36fb281477,001,29,Male,United Kingdom,Master,2024-02-26_17h51.28.210,CRL1e,2023.2.3,MacIntel,74.07407407,65dbad3905fde4fe1981dc61,65dccf7101b13e59954b8f94,,,,,,,,,,,932.7135,0.9,933.6071,933.6071,934.301,left,1,0.683,,934.301,935.3005,0,7,7,5,1,total,2,images/Ex11.jpg,left,reversed,easy,5,,,,,
,,,,,60d2c59451b12e36fb281477,001,29,Male,United Kingdom,Master,2024-02-26_17h51.28.210,CRL1e,2023.2.3,MacIntel,74.07407407,65dbad3905fde4fe1981dc61,65dccf7101b13e59954b8f94,,,,,,,,,,,935.3006,0.9,936.195,936.1951,936.9551,right,1,0.7503,,936.9552,937.9554,1,0,8,0,1,total,2,images/Ex9.jpg,right,reversed,easy,5,,,,,
,,,,,60d2c59451b12e36fb281477,001,29,Male,United Kingdom,Master,2024-02-26_17h51.28.210,CRL1e,2023.2.3,MacIntel,74.07407407,65dbad3905fde4fe1981dc61,65dccf7101b13e59954b8f94,,,,,,,,,,,937.9556,1,938.9553,938.9553,939.6088,right,1,0.6442,,939.6088,940.6085,1,1,9,2,1,total,2,images/Ex10.jpg,right,reversed,easy,5,,,,,
,,,,,60d2c59451b12e36fb281477,001,29,Male,United Kingdom,Master,2024-02-26_17h51.28.210,CRL1e,2023.2.3,MacIntel,74.07407407,65dbad3905fde4fe1981dc61,65dccf7101b13e59954b8f94,,,,,,,,,,,940.6086,0.8,941.4085,941.4085,942.0621,left,1,0.6434,,942.0621,943.0632,1,2,10,5,1,total,2,images/Ex11.jpg,left,reversed,easy,5,,,,,
,,,,,60d2c59451b12e36fb281477,001,29,Male,United Kingdom,Master,2024-02-26_17h51.28.210,CRL1e,2023.2.3,MacIntel,74.07407407,65dbad3905fde4fe1981dc61,65dccf7101b13e59954b8f94,,,,,,,,,,,943.0634,1.2,944.2634,944.2634,945.0772,right,1,0.8031,,945.0772,946.0762,1,3,11,3,1,total,2,images/Ex10.jpg,right,reversed,easy,5,,,,,
,,,,,60d2c59451b12e36fb281477,001,29,Male,United Kingdom,Master,2024-02-26_17h51.28.210,CRL1e,2023.2.3,MacIntel,74.07407407,65dbad3905fde4fe1981dc61,65dccf7101b13e59954b8f94,,,,,,,,,,,946.0765,0.6,946.6773,946.6773,947.2773,left,1,0.5962,,947.2773,948.277,1,4,12,6,1,total,2,images/Ex12.jpg,left,reversed,easy,5,,,,,
,,,,,60d2c59451b12e36fb281477,001,29,Male,United Kingdom,Master,2024-02-26_17h51.28.210,CRL1e,2023.2.3,MacIntel,74.07407407,65dbad3905fde4fe1981dc61,65dccf7101b13e59954b8f94,,,,,,,,,,,948.2771,0.5,948.77,948.77,949.4515,right,1,0.68,,949.4515,950.4508,1,5,13,1,1,total,2,images/Ex9.jpg,right,reversed,easy,5,,,,,
,,,,,60d2c59451b12e36fb281477,001,29,Male,United Kingdom,Master,2024-02-26_17h51.28.210,CRL1e,2023.2.3,MacIntel,74.07407407,65dbad3905fde4fe1981dc61,65dccf7101b13e59954b8f94,,,,,,,,,,,950.451,1.5,951.9445,951.9445,952.5718,left,1,0.6157,,952.5719,953.5716,1,6,14,4,1,total,2,images/Ex11.jpg,left,reversed,easy,5,,,,,
,,,,,60d2c59451b12e36fb281477,001,29,Male,United Kingdom,Master,2024-02-26_17h51.28.210,CRL1e,2023.2.3,MacIntel,74.07407407,65dbad3905fde4fe1981dc61,65dccf7101b13e59954b8f94,,,,,,,,,,,953.5718,0.6,954.1722,954.1723,954.8924,left,1,0.7172,,954.8924,955.8926,1,7,15,7,1,total,2,images/Ex12.jpg,left,reversed,easy,5,,,,,
,,,,,60d2c59451b12e36fb281477,001,29,Male,United Kingdom,Master,2024-02-26_17h51.28.210,CRL1e,2023.2.3,MacIntel,74.07407407,65dbad3905fde4fe1981dc61,65dccf7101b13e59954b8f94,,,,,,,,,,,955.8928,1.1,956.9863,956.9863,957.6126,right,1,0.6246,,957.6127,958.6133,2,0,16,3,1,total,2,images/Ex10.jpg,right,reversed,easy,5,,,,,
,,,,,60d2c59451b12e36fb281477,001,29,Male,United Kingdom,Master,2024-02-26_17h51.28.210,CRL1e,2023.2.3,MacIntel,74.07407407,65dbad3905fde4fe1981dc61,65dccf7101b13e59954b8f94,,,,,,,,,,,958.6135,1.5,960.1067,960.1067,960.7738,left,1,0.6656,,960.7738,961.7731,2,1,17,5,1,total,2,images/Ex11.jpg,left,reversed,easy,5,,,,,
,,,,,60d2c59451b12e36fb281477,001,29,Male,United Kingdom,Master,2024-02-26_17h51.28.210,CRL1e,2023.2.3,MacIntel,74.07407407,65dbad3905fde4fe1981dc61,65dccf7101b13e59954b8f94,,,,,,,,,,,961.7733,0.7,962.4665,962.4665,963.0678,left,0,0.6008,,963.0678,964.0675,2,2,18,1,1,total,2,images/Ex9.jpg,right,reversed,easy,5,,,,,
,,,,,60d2c59451b12e36fb281477,001,29,Male,United Kingdom,Master,2024-02-26_17h51.28.210,CRL1e,2023.2.3,MacIntel,74.07407407,65dbad3905fde4fe1981dc61,65dccf7101b13e59954b8f94,,,,,,,,,,,964.0677,1.3,965.3614,965.3614,966.0674,left,1,0.6979,,966.0674,967.0684,2,3,19,6,1,total,2,images/Ex12.jpg,left,reversed,easy,5,,,,,
,,,,,60d2c59451b12e36fb281477,001,29,Male,United Kingdom,Master,2024-02-26_17h51.28.210,CRL1e,2023.2.3,MacIntel,74.07407407,65dbad3905fde4fe1981dc61,65dccf7101b13e59954b8f94,,,,,,,,,,,967.0686,1.4,968.4689,968.4689,969.1487,left,1,0.6758,,969.1487,970.1483,2,4,20,7,1,total,2,images/Ex12.jpg,left,reversed,easy,5,,,,,
,,,,,60d2c59451b12e36fb281477,001,29,Male,United Kingdom,Master,2024-02-26_17h51.28.210,CRL1e,2023.2.3,MacIntel,74.07407407,65dbad3905fde4fe1981dc61,65dccf7101b13e59954b8f94,,,,,,,,,,,970.1485,0.9,971.0418,971.0419,971.6021,left,1,0.554,,971.6022,972.602,2,5,21,4,1,total,2,images/Ex11.jpg,left,reversed,easy,5,,,,,
,,,,,60d2c59451b12e36fb281477,001,29,Male,United Kingdom,Master,2024-02-26_17h51.28.210,CRL1e,2023.2.3,MacIntel,74.07407407,65dbad3905fde4fe1981dc61,65dccf7101b13e59954b8f94,,,,,,,,,,,972.6023,0.7,973.2956,973.2956,974.0031,right,1,0.7066,,974.0032,975.0031,2,6,22,2,1,total,2,images/Ex10.jpg,right,reversed,easy,5,,,,,
,,,,,60d2c59451b12e36fb281477,001,29,Male,United Kingdom,Master,2024-02-26_17h51.28.210,CRL1e,2023.2.3,MacIntel,74.07407407,65dbad3905fde4fe1981dc61,65dccf7101b13e59954b8f94,,,,,,,,,,,975.0032,1.4,976.403,976.403,976.9367,left,0,0.5266,,976.9367,977.937,2,7,23,0,1,total,2,images/Ex9.jpg,right,reversed,easy,5,,,,,
,,,,,60d2c59451b12e36fb281477,001,29,Male,United Kingdom,Master,2024-02-26_17h51.28.210,CRL1e,2023.2.3,MacIntel,74.07407407,65dbad3905fde4fe1981dc61,65dccf7101b13e59954b8f94,,,,,,,,,,,977.9371,1.5,979.431,979.4311,980.0447,right,1,0.6023,,980.0447,981.044,3,0,24,2,1,total,2,images/Ex10.jpg,right,reversed,easy,5,,,,,
,,,,,60d2c59451b12e36fb281477,001,29,Male,United Kingdom,Master,2024-02-26_17h51.28.210,CRL1e,2023.2.3,MacIntel,74.07407407,65dbad3905fde4fe1981dc61,65dccf7101b13e59954b8f94,,,,,,,,,,,981.0441,0.6,981.6445,981.6445,982.2452,right,1,0.5944,,982.2452,983.2454,3,1,25,1,1,total,2,images/Ex9.jpg,right,reversed,easy,5,,,,,
,,,,,60d2c59451b12e36fb281477,001,29,Male,United Kingdom,Master,2024-02-26_17h51.28.210,CRL1e,2023.2.3,MacIntel,74.07407407,65dbad3905fde4fe1981dc61,65dccf7101b13e59954b8f94,,,,,,,,,,,983.2456,1,984.245,984.245,984.8991,left,1,0.6503,,984.8991,985.8985,3,2,26,7,1,total,2,images/Ex12.jpg,left,reversed,easy,5,,,,,
,,,,,60d2c59451b12e36fb281477,001,29,Male,United Kingdom,Master,2024-02-26_17h51.28.210,CRL1e,2023.2.3,MacIntel,74.07407407,65dbad3905fde4fe1981dc61,65dccf7101b13e59954b8f94,,,,,,,,,,,985.8986,1.1,986.9922,986.9922,987.6463,left,1,0.6467,,987.6463,988.646,3,3,27,6,1,total,2,images/Ex12.jpg,left,reversed,easy,5,,,,,
,,,,,60d2c59451b12e36fb281477,001,29,Male,United Kingdom,Master,2024-02-26_17h51.28.210,CRL1e,2023.2.3,MacIntel,74.07407407,65dbad3905fde4fe1981dc61,65dccf7101b13e59954b8f94,,,,,,,,,,,988.6462,0.6,989.2467,989.2467,989.9129,left,1,0.6646,,989.913,990.9128,3,4,28,5,1,total,2,images/Ex11.jpg,left,reversed,easy,5,,,,,
,,,,,60d2c59451b12e36fb281477,001,29,Male,United Kingdom,Master,2024-02-26_17h51.28.210,CRL1e,2023.2.3,MacIntel,74.07407407,65dbad3905fde4fe1981dc61,65dccf7101b13e59954b8f94,,,,,,,,,,,990.913,1.2,992.1141,992.1141,992.7803,left,1,0.655,,992.7803,993.7811,3,5,29,4,1,total,2,images/Ex11.jpg,left,reversed,easy,5,,,,,
,,,,,60d2c59451b12e36fb281477,001,29,Male,United Kingdom,Master,2024-02-26_17h51.28.210,CRL1e,2023.2.3,MacIntel,74.07407407,65dbad3905fde4fe1981dc61,65dccf7101b13e59954b8f94,,,,,,,,,,,993.7813,0.9,994.6739,994.6739,995.2472,left,0,0.5699,,995.2472,996.2482,3,6,30,0,1,total,2,images/Ex9.jpg,right,reversed,easy,5,,,,,
,,,,,60d2c59451b12e36fb281477,001,29,Male,United Kingdom,Master,2024-02-26_17h51.28.210,CRL1e,2023.2.3,MacIntel,74.07407407,65dbad3905fde4fe1981dc61,65dccf7101b13e59954b8f94,,,,,,,,,,,996.2484,1.4,997.6479,997.6479,998.2619,right,1,0.612,,998.2619,999.2623,3,7,31,3,1,total,2,images/Ex10.jpg,right,reversed,easy,5,,,,,
,,,,,60d2c59451b12e36fb281477,001,29,Male,United Kingdom,Master,2024-02-26_17h51.28.210,CRL1e,2023.2.3,MacIntel,74.07407407,65dbad3905fde4fe1981dc61,65dccf7101b13e59954b8f94,,,,,,,,,,,999.2624,1,1000.262,1000.262,1001.0489,right,1,0.786,,1001.0489,1002.0495,4,0,32,2,1,total,2,images/Ex10.jpg,right,reversed,easy,5,,,,,
,,,,,60d2c59451b12e36fb281477,001,29,Male,United Kingdom,Master,2024-02-26_17h51.28.210,CRL1e,2023.2.3,MacIntel,74.07407407,65dbad3905fde4fe1981dc61,65dccf7101b13e59954b8f94,,,,,,,,,,,1002.0497,0.6,1002.6488,1002.6488,1003.2892,left,1,0.6288,,1003.2892,1004.2891,4,1,33,4,1,total,2,images/Ex11.jpg,left,reversed,easy,5,,,,,
,,,,,60d2c59451b12e36fb281477,001,29,Male,United Kingdom,Master,2024-02-26_17h51.28.210,CRL1e,2023.2.3,MacIntel,74.07407407,65dbad3905fde4fe1981dc61,65dccf7101b13e59954b8f94,,,,,,,,,,,1004.2893,0.7,1004.9835,1004.9835,1005.6632,right,1,0.678,,1005.6632,1006.664,4,2,34,0,1,total,2,images/Ex9.jpg,right,reversed,easy,5,,,,,
,,,,,60d2c59451b12e36fb281477,001,29,Male,United Kingdom,Master,2024-02-26_17h51.28.210,CRL1e,2023.2.3,MacIntel,74.07407407,65dbad3905fde4fe1981dc61,65dccf7101b13e59954b8f94,,,,,,,,,,,1006.6642,0.6,1007.2633,1007.2633,1007.8502,right,1,0.5792,,1007.8503,1008.8502,4,3,35,3,1,total,2,images/Ex10.jpg,right,reversed,easy,5,,,,,
,,,,,60d2c59451b12e36fb281477,001,29,Male,United Kingdom,Master,2024-02-26_17h51.28.210,CRL1e,2023.2.3,MacIntel,74.07407407,65dbad3905fde4fe1981dc61,65dccf7101b13e59954b8f94,,,,,,,,,,,1008.8505,1,1009.8507,1009.8508,1010.4105,left,1,0.5581,,1010.4105,1011.4107,4,4,36,5,1,total,2,images/Ex11.jpg,left,reversed,easy,5,,,,,
,,,,,60d2c59451b12e36fb281477,001,29,Male,United Kingdom,Master,2024-02-26_17h51.28.210,CRL1e,2023.2.3,MacIntel,74.07407407,65dbad3905fde4fe1981dc61,65dccf7101b13e59954b8f94,,,,,,,,,,,1011.4109,1.4,1012.8114,1012.8114,1013.4522,right,1,0.6328,,1013.4523,1014.4518,4,5,37,1,1,total,2,images/Ex9.jpg,right,reversed,easy,5,,,,,
,,,,,60d2c59451b12e36fb281477,001,29,Male,United Kingdom,Master,2024-02-26_17h51.28.210,CRL1e,2023.2.3,MacIntel,74.07407407,65dbad3905fde4fe1981dc61,65dccf7101b13e59954b8f94,,,,,,,,,,,1014.452,0.5,1014.9456,1014.9457,1016.1327,left,1,1.1773,,1016.1327,1017.1325,4,6,38,7,1,total,2,images/Ex12.jpg,left,reversed,easy,5,,,,,
,,,,,60d2c59451b12e36fb281477,001,29,Male,United Kingdom,Master,2024-02-26_17h51.28.210,CRL1e,2023.2.3,MacIntel,74.07407407,65dbad3905fde4fe1981dc61,65dccf7101b13e59954b8f94,,,,,,,,,,,1017.1326,1.3,1018.4264,1018.4264,1019.2791,left,1,0.8456,,1019.2792,1020.2795,4,7,39,6,1,total,2,images/Ex12.jpg,left,reversed,easy,5,,,,,
,,,,,60d2c59451b12e36fb281477,001,29,Male,United Kingdom,Master,2024-02-26_17h51.28.210,CRL1e,2023.2.3,MacIntel,74.07407407,65dbad3905fde4fe1981dc61,65dccf7101b13e59954b8f94,,,,,,,,,,,1020.2797,1.1,1021.3729,1021.373,1021.9605,left,1,0.5773,,1021.9606,1022.9607,5,0,40,6,1,total,2,images/Ex12.jpg,left,reversed,easy,5,,,,,
,,,,,60d2c59451b12e36fb281477,001,29,Male,United Kingdom,Master,2024-02-26_17h51.28.210,CRL1e,2023.2.3,MacIntel,74.07407407,65dbad3905fde4fe1981dc61,65dccf7101b13e59954b8f94,,,,,,,,,,,1022.9608,0.7,1023.6537,1023.6537,1024.4812,left,0,0.8173,,1024.4812,1025.4813,5,1,41,0,1,total,2,images/Ex9.jpg,right,reversed,easy,5,,,,,
,,,,,60d2c59451b12e36fb281477,001,29,Male,United Kingdom,Master,2024-02-26_17h51.28.210,CRL1e,2023.2.3,MacIntel,74.07407407,65dbad3905fde4fe1981dc61,65dccf7101b13e59954b8f94,,,,,,,,,,,1025.4815,0.8,1026.2806,1026.2806,1026.8943,right,1,0.61,,1026.8943,1027.8953,5,2,42,1,1,total,2,images/Ex9.jpg,right,reversed,easy,5,,,,,
,,,,,60d2c59451b12e36fb281477,001,29,Male,United Kingdom,Master,2024-02-26_17h51.28.210,CRL1e,2023.2.3,MacIntel,74.07407407,65dbad3905fde4fe1981dc61,65dccf7101b13e59954b8f94,,,,,,,,,,,1027.8955,1.3,1029.1889,1029.1889,1029.8817,left,1,0.6828,,1029.8817,1030.8817,5,3,43,4,1,total,2,images/Ex11.jpg,left,reversed,easy,5,,,,,
,,,,,60d2c59451b12e36fb281477,001,29,Male,United Kingdom,Master,2024-02-26_17h51.28.210,CRL1e,2023.2.3,MacIntel,74.07407407,65dbad3905fde4fe1981dc61,65dccf7101b13e59954b8f94,,,,,,,,,,,1030.8818,1.1,1031.9761,1031.9761,1032.9091,left,1,0.9315,,1032.9091,1033.9096,5,4,44,7,1,total,2,images/Ex12.jpg,left,reversed,easy,5,,,,,
,,,,,60d2c59451b12e36fb281477,001,29,Male,United Kingdom,Master,2024-02-26_17h51.28.210,CRL1e,2023.2.3,MacIntel,74.07407407,65dbad3905fde4fe1981dc61,65dccf7101b13e59954b8f94,,,,,,,,,,,1033.9097,1.3,1035.2035,1035.2036,1036.2701,right,1,1.056,,1036.2701,1037.2702,5,5,45,3,1,total,2,images/Ex10.jpg,right,reversed,easy,5,,,,,
,,,,,60d2c59451b12e36fb281477,001,29,Male,United Kingdom,Master,2024-02-26_17h51.28.210,CRL1e,2023.2.3,MacIntel,74.07407407,65dbad3905fde4fe1981dc61,65dccf7101b13e59954b8f94,,,,,,,,,,,1037.2703,1,1038.2709,1038.271,1038.9504,right,1,0.6688,,1038.9504,1039.9505,5,6,46,2,1,total,2,images/Ex10.jpg,right,reversed,easy,5,,,,,
,,,,,60d2c59451b12e36fb281477,001,29,Male,United Kingdom,Master,2024-02-26_17h51.28.210,CRL1e,2023.2.3,MacIntel,74.07407407,65dbad3905fde4fe1981dc61,65dccf7101b13e59954b8f94,,,,,,,,,,,1039.9507,1.4,1041.3507,1041.3507,1041.9115,left,1,0.5584,,1041.9115,1042.9113,5,7,47,5,1,total,2,images/Ex11.jpg,left,reversed,easy,5,,,,,
,,,,,60d2c59451b12e36fb281477,001,29,Male,United Kingdom,Master,2024-02-26_17h51.28.210,CRL1e,2023.2.3,MacIntel,74.07407407,65dbad3905fde4fe1981dc61,65dccf7101b13e59954b8f94,,,,,,,,,,,,,,,,,,,,,,,,,,,,,,,,,,1042.9127,1085.0284,space,42.095,