infCons.started,infCons.stopped,resp_consent.keys,resp_consent.rt,resp_consent.duration,participant,session,Age?,Gender?,Nationality?,Highest Educational Degree?,date,expName,psychopyVersion,OS,frameRate,STUDY_ID,SESSION_ID,instructions.started,instructions.stopped,resp_instructions.keys,resp_instructions.rt,resp_instructions.duration,nextTask.started,nextTask.stopped,ready_task.keys,ready_task.rt,ready_task.duration,fixation.started,ITI,fixation.stopped,stim.started,stim.stopped,response.keys,response.corr,response.rt,response.duration,feedback.started,feedback.stopped,trials.thisRepN,trials.thisTrialN,trials.thisN,trials.thisIndex,trials.ran,task,phase,Exemplars,r_correct,condition,difficulty,set,end.started,end.stopped,resp_end.keys,resp_end.rt,resp_end.duration
0.0003,4.7545,space,4.7446,,60e3b450cc89a0046b21c5bc,001,42,male,British,BA (Hons),2024-02-26_15h38.46.236,CRL1e,2023.2.3,Win32,163.9344262,65dbad3905fde4fe1981dc61,65dcb0653076d70c85c23205,,,,,,,,,,,,,,,,,,,,,,,,,,,,,,,,,,,,,,
,,,,,60e3b450cc89a0046b21c5bc,001,42,male,British,BA (Hons),2024-02-26_15h38.46.236,CRL1e,2023.2.3,Win32,163.9344262,65dbad3905fde4fe1981dc61,65dcb0653076d70c85c23205,4.7546,33.1794,space,28.4163,,,,,,,,,,,,,,,,,,,,,,,,,,,,,,,,,,
,,,,,60e3b450cc89a0046b21c5bc,001,42,male,British,BA (Hons),2024-02-26_15h38.46.236,CRL1e,2023.2.3,Win32,163.9344262,65dbad3905fde4fe1981dc61,65dcb0653076d70c85c23205,,,,,,33.1816,38.2583,space,5.0685,,38.2603,0.5,38.7624,38.7626,40.9076,right,0,2.1382,,40.9077,41.9077,0,0,0,0,1,partial,1,images/Ex5.jpg,left,training,easy,2,,,,,
,,,,,60e3b450cc89a0046b21c5bc,001,42,male,British,BA (Hons),2024-02-26_15h38.46.236,CRL1e,2023.2.3,Win32,163.9344262,65dbad3905fde4fe1981dc61,65dcb0653076d70c85c23205,,,,,,,,,,,41.9082,1.3,43.2048,43.2048,44.7204,left,0,1.51,,44.7204,45.7206,0,1,1,6,1,partial,1,images/Ex8.jpg,right,training,easy,2,,,,,
,,,,,60e3b450cc89a0046b21c5bc,001,42,male,British,BA (Hons),2024-02-26_15h38.46.236,CRL1e,2023.2.3,Win32,163.9344262,65dbad3905fde4fe1981dc61,65dcb0653076d70c85c23205,,,,,,,,,,,45.721,1.3,47.0188,47.019,48.097,right,0,1.0737,,48.0971,49.0973,0,2,2,2,1,partial,1,images/Ex6.jpg,left,training,easy,2,,,,,
,,,,,60e3b450cc89a0046b21c5bc,001,42,male,British,BA (Hons),2024-02-26_15h38.46.236,CRL1e,2023.2.3,Win32,163.9344262,65dbad3905fde4fe1981dc61,65dcb0653076d70c85c23205,,,,,,,,,,,49.0977,1.1,50.1946,50.1946,51.2495,right,0,1.0516,,51.2495,52.2497,0,3,3,1,1,partial,1,images/Ex5.jpg,left,training,easy,2,,,,,
,,,,,60e3b450cc89a0046b21c5bc,001,42,male,British,BA (Hons),2024-02-26_15h38.46.236,CRL1e,2023.2.3,Win32,163.9344262,65dbad3905fde4fe1981dc61,65dcb0653076d70c85c23205,,,,,,,,,,,52.2499,1.1,53.3469,53.3469,54.3001,right,1,0.9526,,54.3001,55.299,0,4,4,5,1,partial,1,images/Ex7.jpg,right,training,easy,2,,,,,
,,,,,60e3b450cc89a0046b21c5bc,001,42,male,British,BA (Hons),2024-02-26_15h38.46.236,CRL1e,2023.2.3,Win32,163.9344262,65dbad3905fde4fe1981dc61,65dcb0653076d70c85c23205,,,,,,,,,,,55.2992,0.8,56.0991,56.0991,57.6147,right,1,1.5126,,57.6147,58.6149,0,5,5,7,1,partial,1,images/Ex8.jpg,right,training,easy,2,,,,,
,,,,,60e3b450cc89a0046b21c5bc,001,42,male,British,BA (Hons),2024-02-26_15h38.46.236,CRL1e,2023.2.3,Win32,163.9344262,65dbad3905fde4fe1981dc61,65dcb0653076d70c85c23205,,,,,,,,,,,58.6195,0.5,59.118,59.118,59.9061,left,1,0.7847,,59.9062,60.9064,0,6,6,3,1,partial,1,images/Ex6.jpg,left,training,easy,2,,,,,
,,,,,60e3b450cc89a0046b21c5bc,001,42,male,British,BA (Hons),2024-02-26_15h38.46.236,CRL1e,2023.2.3,Win32,163.9344262,65dbad3905fde4fe1981dc61,65dcb0653076d70c85c23205,,,,,,,,,,,60.9066,0.8,61.7069,61.7069,63.0827,left,0,1.3706,,63.0828,64.084,0,7,7,4,1,partial,1,images/Ex7.jpg,right,training,easy,2,,,,,
,,,,,60e3b450cc89a0046b21c5bc,001,42,male,British,BA (Hons),2024-02-26_15h38.46.236,CRL1e,2023.2.3,Win32,163.9344262,65dbad3905fde4fe1981dc61,65dcb0653076d70c85c23205,,,,,,,,,,,64.0842,1.2,65.2842,65.2842,67.1686,right,1,1.8802,,67.1687,68.1689,1,0,8,5,1,partial,1,images/Ex7.jpg,right,training,easy,2,,,,,
,,,,,60e3b450cc89a0046b21c5bc,001,42,male,British,BA (Hons),2024-02-26_15h38.46.236,CRL1e,2023.2.3,Win32,163.9344262,65dbad3905fde4fe1981dc61,65dcb0653076d70c85c23205,,,,,,,,,,,68.1691,0.8,68.9691,68.9691,70.333,left,1,1.3625,,70.3331,71.3334,1,1,9,1,1,partial,1,images/Ex5.jpg,left,training,easy,2,,,,,
,,,,,60e3b450cc89a0046b21c5bc,001,42,male,British,BA (Hons),2024-02-26_15h38.46.236,CRL1e,2023.2.3,Win32,163.9344262,65dbad3905fde4fe1981dc61,65dcb0653076d70c85c23205,,,,,,,,,,,71.3335,1.1,72.4306,72.4306,73.8613,left,1,1.4272,,73.8614,74.8616,1,2,10,2,1,partial,1,images/Ex6.jpg,left,training,easy,2,,,,,
,,,,,60e3b450cc89a0046b21c5bc,001,42,male,British,BA (Hons),2024-02-26_15h38.46.236,CRL1e,2023.2.3,Win32,163.9344262,65dbad3905fde4fe1981dc61,65dcb0653076d70c85c23205,,,,,,,,,,,74.8666,0.7,75.5647,75.5647,76.7893,right,1,1.2196,,76.7894,77.7897,1,3,11,7,1,partial,1,images/Ex8.jpg,right,training,easy,2,,,,,
,,,,,60e3b450cc89a0046b21c5bc,001,42,male,British,BA (Hons),2024-02-26_15h38.46.236,CRL1e,2023.2.3,Win32,163.9344262,65dbad3905fde4fe1981dc61,65dcb0653076d70c85c23205,,,,,,,,,,,77.7901,1.3,79.0868,79.0868,79.755,right,1,0.6677,,79.755,80.7539,1,4,12,6,1,partial,1,images/Ex8.jpg,right,training,easy,2,,,,,
,,,,,60e3b450cc89a0046b21c5bc,001,42,male,British,BA (Hons),2024-02-26_15h38.46.236,CRL1e,2023.2.3,Win32,163.9344262,65dbad3905fde4fe1981dc61,65dcb0653076d70c85c23205,,,,,,,,,,,80.7543,0.9,81.6522,81.6522,82.2574,left,1,0.6008,,82.2575,83.2577,1,5,13,0,1,partial,1,images/Ex5.jpg,left,training,easy,2,,,,,
,,,,,60e3b450cc89a0046b21c5bc,001,42,male,British,BA (Hons),2024-02-26_15h38.46.236,CRL1e,2023.2.3,Win32,163.9344262,65dbad3905fde4fe1981dc61,65dcb0653076d70c85c23205,,,,,,,,,,,83.258,1.5,84.7561,84.7562,85.8766,right,0,1.1179,,85.8766,86.8777,1,6,14,3,1,partial,1,images/Ex6.jpg,left,training,easy,2,,,,,
,,,,,60e3b450cc89a0046b21c5bc,001,42,male,British,BA (Hons),2024-02-26_15h38.46.236,CRL1e,2023.2.3,Win32,163.9344262,65dbad3905fde4fe1981dc61,65dcb0653076d70c85c23205,,,,,,,,,,,86.878,0.7,87.574,87.574,88.6166,right,1,1.0379,,88.6166,89.6169,1,7,15,4,1,partial,1,images/Ex7.jpg,right,training,easy,2,,,,,
,,,,,60e3b450cc89a0046b21c5bc,001,42,male,British,BA (Hons),2024-02-26_15h38.46.236,CRL1e,2023.2.3,Win32,163.9344262,65dbad3905fde4fe1981dc61,65dcb0653076d70c85c23205,,,,,,,,,,,89.6171,1.4,91.0174,91.0174,91.8479,right,1,0.8261,,91.8479,92.8492,2,0,16,5,1,partial,1,images/Ex7.jpg,right,training,easy,2,,,,,
,,,,,60e3b450cc89a0046b21c5bc,001,42,male,British,BA (Hons),2024-02-26_15h38.46.236,CRL1e,2023.2.3,Win32,163.9344262,65dbad3905fde4fe1981dc61,65dcb0653076d70c85c23205,,,,,,,,,,,92.8495,0.7,93.5452,93.5452,94.2863,left,1,0.7405,,94.2863,95.2852,2,1,17,0,1,partial,1,images/Ex5.jpg,left,training,easy,2,,,,,
,,,,,60e3b450cc89a0046b21c5bc,001,42,male,British,BA (Hons),2024-02-26_15h38.46.236,CRL1e,2023.2.3,Win32,163.9344262,65dbad3905fde4fe1981dc61,65dcb0653076d70c85c23205,,,,,,,,,,,95.2855,0.9,96.1822,96.1823,97.328,left,1,1.1444,,97.328,98.3282,2,2,18,3,1,partial,1,images/Ex6.jpg,left,training,easy,2,,,,,
,,,,,60e3b450cc89a0046b21c5bc,001,42,male,British,BA (Hons),2024-02-26_15h38.46.236,CRL1e,2023.2.3,Win32,163.9344262,65dbad3905fde4fe1981dc61,65dcb0653076d70c85c23205,,,,,,,,,,,98.3284,0.5,98.826,98.826,99.4922,right,1,0.662,,99.4922,100.4924,2,3,19,7,1,partial,1,images/Ex8.jpg,right,training,easy,2,,,,,
,,,,,60e3b450cc89a0046b21c5bc,001,42,male,British,BA (Hons),2024-02-26_15h38.46.236,CRL1e,2023.2.3,Win32,163.9344262,65dbad3905fde4fe1981dc61,65dcb0653076d70c85c23205,,,,,,,,,,,100.4926,0.6,101.0926,101.0926,101.5352,right,1,0.4393,,101.5353,102.5354,2,4,20,6,1,partial,1,images/Ex8.jpg,right,training,easy,2,,,,,
,,,,,60e3b450cc89a0046b21c5bc,001,42,male,British,BA (Hons),2024-02-26_15h38.46.236,CRL1e,2023.2.3,Win32,163.9344262,65dbad3905fde4fe1981dc61,65dcb0653076d70c85c23205,,,,,,,,,,,102.5357,1.4,103.9358,103.9358,104.536,left,1,0.595,,104.5361,105.5372,2,5,21,1,1,partial,1,images/Ex5.jpg,left,training,easy,2,,,,,
,,,,,60e3b450cc89a0046b21c5bc,001,42,male,British,BA (Hons),2024-02-26_15h38.46.236,CRL1e,2023.2.3,Win32,163.9344262,65dbad3905fde4fe1981dc61,65dcb0653076d70c85c23205,,,,,,,,,,,105.5375,1.4,106.9365,106.9365,107.949,left,1,1.0103,,107.9491,108.9492,2,6,22,2,1,partial,1,images/Ex6.jpg,left,training,easy,2,,,,,
,,,,,60e3b450cc89a0046b21c5bc,001,42,male,British,BA (Hons),2024-02-26_15h38.46.236,CRL1e,2023.2.3,Win32,163.9344262,65dbad3905fde4fe1981dc61,65dcb0653076d70c85c23205,,,,,,,,,,,108.9495,1.2,110.1505,110.1505,111.2347,right,1,1.0805,,111.2347,112.2348,2,7,23,4,1,partial,1,images/Ex7.jpg,right,training,easy,2,,,,,
,,,,,60e3b450cc89a0046b21c5bc,001,42,male,British,BA (Hons),2024-02-26_15h38.46.236,CRL1e,2023.2.3,Win32,163.9344262,65dbad3905fde4fe1981dc61,65dcb0653076d70c85c23205,,,,,,,,,,,112.235,0.7,112.932,112.9321,113.5807,left,1,0.6437,,113.5807,114.5809,3,0,24,1,1,partial,1,images/Ex5.jpg,left,training,easy,2,,,,,
,,,,,60e3b450cc89a0046b21c5bc,001,42,male,British,BA (Hons),2024-02-26_15h38.46.236,CRL1e,2023.2.3,Win32,163.9344262,65dbad3905fde4fe1981dc61,65dcb0653076d70c85c23205,,,,,,,,,,,114.5811,0.9,115.4781,115.4782,116.4239,left,0,0.9426,,116.4239,117.424,3,1,25,5,1,partial,1,images/Ex7.jpg,right,training,easy,2,,,,,
,,,,,60e3b450cc89a0046b21c5bc,001,42,male,British,BA (Hons),2024-02-26_15h38.46.236,CRL1e,2023.2.3,Win32,163.9344262,65dbad3905fde4fe1981dc61,65dcb0653076d70c85c23205,,,,,,,,,,,117.4243,1.3,118.7213,118.7214,119.8065,right,1,1.0826,,119.8065,120.8068,3,2,26,7,1,partial,1,images/Ex8.jpg,right,training,easy,2,,,,,
,,,,,60e3b450cc89a0046b21c5bc,001,42,male,British,BA (Hons),2024-02-26_15h38.46.236,CRL1e,2023.2.3,Win32,163.9344262,65dbad3905fde4fe1981dc61,65dcb0653076d70c85c23205,,,,,,,,,,,120.807,0.9,121.704,121.704,122.6436,right,0,0.9347,,122.6436,123.6438,3,3,27,3,1,partial,1,images/Ex6.jpg,left,training,easy,2,,,,,
,,,,,60e3b450cc89a0046b21c5bc,001,42,male,British,BA (Hons),2024-02-26_15h38.46.236,CRL1e,2023.2.3,Win32,163.9344262,65dbad3905fde4fe1981dc61,65dcb0653076d70c85c23205,,,,,,,,,,,123.6441,0.9,124.5411,124.5411,125.214,left,1,0.6696,,125.2141,126.2148,3,4,28,0,1,partial,1,images/Ex5.jpg,left,training,easy,2,,,,,
,,,,,60e3b450cc89a0046b21c5bc,001,42,male,British,BA (Hons),2024-02-26_15h38.46.236,CRL1e,2023.2.3,Win32,163.9344262,65dbad3905fde4fe1981dc61,65dcb0653076d70c85c23205,,,,,,,,,,,126.215,1.3,127.5115,127.5116,128.0208,left,0,0.5045,,128.0208,129.021,3,5,29,4,1,partial,1,images/Ex7.jpg,right,training,easy,2,,,,,
,,,,,60e3b450cc89a0046b21c5bc,001,42,male,British,BA (Hons),2024-02-26_15h38.46.236,CRL1e,2023.2.3,Win32,163.9344262,65dbad3905fde4fe1981dc61,65dcb0653076d70c85c23205,,,,,,,,,,,129.0212,0.9,129.9184,129.9184,130.5609,right,1,0.6398,,130.5609,131.561,3,6,30,6,1,partial,1,images/Ex8.jpg,right,training,easy,2,,,,,
,,,,,60e3b450cc89a0046b21c5bc,001,42,male,British,BA (Hons),2024-02-26_15h38.46.236,CRL1e,2023.2.3,Win32,163.9344262,65dbad3905fde4fe1981dc61,65dcb0653076d70c85c23205,,,,,,,,,,,131.5613,0.6,132.1612,132.1612,132.7503,right,0,0.5884,,132.7503,133.7496,3,7,31,2,1,partial,1,images/Ex6.jpg,left,training,easy,2,,,,,
,,,,,60e3b450cc89a0046b21c5bc,001,42,male,British,BA (Hons),2024-02-26_15h38.46.236,CRL1e,2023.2.3,Win32,163.9344262,65dbad3905fde4fe1981dc61,65dcb0653076d70c85c23205,,,,,,,,,,,133.7497,0.7,134.448,134.4481,135.3562,left,1,0.903,,135.3563,136.3566,4,0,32,3,1,partial,1,images/Ex6.jpg,left,training,easy,2,,,,,
,,,,,60e3b450cc89a0046b21c5bc,001,42,male,British,BA (Hons),2024-02-26_15h38.46.236,CRL1e,2023.2.3,Win32,163.9344262,65dbad3905fde4fe1981dc61,65dcb0653076d70c85c23205,,,,,,,,,,,136.3568,1.3,137.6535,137.6535,138.4248,left,1,0.7708,,138.4248,139.4238,4,1,33,0,1,partial,1,images/Ex5.jpg,left,training,easy,2,,,,,
,,,,,60e3b450cc89a0046b21c5bc,001,42,male,British,BA (Hons),2024-02-26_15h38.46.236,CRL1e,2023.2.3,Win32,163.9344262,65dbad3905fde4fe1981dc61,65dcb0653076d70c85c23205,,,,,,,,,,,139.424,0.6,140.024,140.024,140.5937,right,1,0.5667,,140.5937,141.5939,4,2,34,7,1,partial,1,images/Ex8.jpg,right,training,easy,2,,,,,
,,,,,60e3b450cc89a0046b21c5bc,001,42,male,British,BA (Hons),2024-02-26_15h38.46.236,CRL1e,2023.2.3,Win32,163.9344262,65dbad3905fde4fe1981dc61,65dcb0653076d70c85c23205,,,,,,,,,,,141.5942,0.9,142.4912,142.4912,142.8974,left,1,0.4046,,142.8975,143.8977,4,3,35,1,1,partial,1,images/Ex5.jpg,left,training,easy,2,,,,,
,,,,,60e3b450cc89a0046b21c5bc,001,42,male,British,BA (Hons),2024-02-26_15h38.46.236,CRL1e,2023.2.3,Win32,163.9344262,65dbad3905fde4fe1981dc61,65dcb0653076d70c85c23205,,,,,,,,,,,143.8979,0.7,144.5948,144.5948,145.1466,right,1,0.5511,,145.1467,146.1467,4,4,36,4,1,partial,1,images/Ex7.jpg,right,training,easy,2,,,,,
,,,,,60e3b450cc89a0046b21c5bc,001,42,male,British,BA (Hons),2024-02-26_15h38.46.236,CRL1e,2023.2.3,Win32,163.9344262,65dbad3905fde4fe1981dc61,65dcb0653076d70c85c23205,,,,,,,,,,,146.1469,0.8,146.9469,146.9469,147.5847,right,1,0.6372,,147.5847,148.5836,4,5,37,5,1,partial,1,images/Ex7.jpg,right,training,easy,2,,,,,
,,,,,60e3b450cc89a0046b21c5bc,001,42,male,British,BA (Hons),2024-02-26_15h38.46.236,CRL1e,2023.2.3,Win32,163.9344262,65dbad3905fde4fe1981dc61,65dcb0653076d70c85c23205,,,,,,,,,,,148.5838,0.9,149.4809,149.481,150.0023,left,1,0.5171,,150.0023,151.0025,4,6,38,2,1,partial,1,images/Ex6.jpg,left,training,easy,2,,,,,
,,,,,60e3b450cc89a0046b21c5bc,001,42,male,British,BA (Hons),2024-02-26_15h38.46.236,CRL1e,2023.2.3,Win32,163.9344262,65dbad3905fde4fe1981dc61,65dcb0653076d70c85c23205,,,,,,,,,,,151.0028,0.9,151.9009,151.901,152.5423,right,1,0.6398,,152.5423,153.5425,4,7,39,6,1,partial,1,images/Ex8.jpg,right,training,easy,2,,,,,
,,,,,60e3b450cc89a0046b21c5bc,001,42,male,British,BA (Hons),2024-02-26_15h38.46.236,CRL1e,2023.2.3,Win32,163.9344262,65dbad3905fde4fe1981dc61,65dcb0653076d70c85c23205,,,,,,,,,,,153.5427,1.4,154.9429,154.9429,155.3976,left,1,0.4528,,155.3976,156.3978,5,0,40,0,1,partial,1,images/Ex5.jpg,left,training,easy,2,,,,,
,,,,,60e3b450cc89a0046b21c5bc,001,42,male,British,BA (Hons),2024-02-26_15h38.46.236,CRL1e,2023.2.3,Win32,163.9344262,65dbad3905fde4fe1981dc61,65dcb0653076d70c85c23205,,,,,,,,,,,156.3981,1.3,157.6951,157.6952,158.1559,left,1,0.4567,,158.1559,159.1561,5,1,41,3,1,partial,1,images/Ex6.jpg,left,training,easy,2,,,,,
,,,,,60e3b450cc89a0046b21c5bc,001,42,male,British,BA (Hons),2024-02-26_15h38.46.236,CRL1e,2023.2.3,Win32,163.9344262,65dbad3905fde4fe1981dc61,65dcb0653076d70c85c23205,,,,,,,,,,,159.1565,1.1,160.2547,160.2547,160.8414,right,1,0.5844,,160.8414,161.8416,5,2,42,6,1,partial,1,images/Ex8.jpg,right,training,easy,2,,,,,
,,,,,60e3b450cc89a0046b21c5bc,001,42,male,British,BA (Hons),2024-02-26_15h38.46.236,CRL1e,2023.2.3,Win32,163.9344262,65dbad3905fde4fe1981dc61,65dcb0653076d70c85c23205,,,,,,,,,,,161.8419,0.8,162.6418,162.6419,163.139,left,1,0.4929,,163.139,164.1404,5,3,43,2,1,partial,1,images/Ex6.jpg,left,training,easy,2,,,,,
,,,,,60e3b450cc89a0046b21c5bc,001,42,male,British,BA (Hons),2024-02-26_15h38.46.236,CRL1e,2023.2.3,Win32,163.9344262,65dbad3905fde4fe1981dc61,65dcb0653076d70c85c23205,,,,,,,,,,,164.1407,0.6,164.7394,164.7394,165.2196,right,1,0.4797,,165.2196,166.2186,5,4,44,7,1,partial,1,images/Ex8.jpg,right,training,easy,2,,,,,
,,,,,60e3b450cc89a0046b21c5bc,001,42,male,British,BA (Hons),2024-02-26_15h38.46.236,CRL1e,2023.2.3,Win32,163.9344262,65dbad3905fde4fe1981dc61,65dcb0653076d70c85c23205,,,,,,,,,,,166.2188,0.5,166.7167,166.7167,167.2553,left,0,0.533,,167.2555,168.2564,5,5,45,5,1,partial,1,images/Ex7.jpg,right,training,easy,2,,,,,
,,,,,60e3b450cc89a0046b21c5bc,001,42,male,British,BA (Hons),2024-02-26_15h38.46.236,CRL1e,2023.2.3,Win32,163.9344262,65dbad3905fde4fe1981dc61,65dcb0653076d70c85c23205,,,,,,,,,,,168.2567,0.6,168.8556,168.8556,169.2436,right,0,0.386,,169.2436,170.2439,5,6,46,1,1,partial,1,images/Ex5.jpg,left,training,easy,2,,,,,
,,,,,60e3b450cc89a0046b21c5bc,001,42,male,British,BA (Hons),2024-02-26_15h38.46.236,CRL1e,2023.2.3,Win32,163.9344262,65dbad3905fde4fe1981dc61,65dcb0653076d70c85c23205,,,,,,,,,,,170.2441,0.6,170.844,170.844,171.3716,left,0,0.5238,,171.3716,172.3716,5,7,47,4,1,partial,1,images/Ex7.jpg,right,training,easy,2,,,,,
,,,,,60e3b450cc89a0046b21c5bc,001,42,male,British,BA (Hons),2024-02-26_15h38.46.236,CRL1e,2023.2.3,Win32,163.9344262,65dbad3905fde4fe1981dc61,65dcb0653076d70c85c23205,,,,,,,,,,,172.3738,0.8,173.1719,173.1719,173.772,right,1,0.5959,,173.772,174.7724,0,0,0,6,1,partial,2,images/Ex8.jpg,right,nonreversed,easy,2,,,,,
,,,,,60e3b450cc89a0046b21c5bc,001,42,male,British,BA (Hons),2024-02-26_15h38.46.236,CRL1e,2023.2.3,Win32,163.9344262,65dbad3905fde4fe1981dc61,65dcb0653076d70c85c23205,,,,,,,,,,,174.7726,1.4,176.1727,176.1727,176.6819,left,0,0.505,,176.6819,177.6822,0,1,1,1,1,partial,2,images/Ex5.jpg,right,reversed,easy,2,,,,,
,,,,,60e3b450cc89a0046b21c5bc,001,42,male,British,BA (Hons),2024-02-26_15h38.46.236,CRL1e,2023.2.3,Win32,163.9344262,65dbad3905fde4fe1981dc61,65dcb0653076d70c85c23205,,,,,,,,,,,177.6824,1.5,179.1795,179.1796,179.6463,left,0,0.4622,,179.6463,180.6465,0,2,2,0,1,partial,2,images/Ex5.jpg,right,reversed,easy,2,,,,,
,,,,,60e3b450cc89a0046b21c5bc,001,42,male,British,BA (Hons),2024-02-26_15h38.46.236,CRL1e,2023.2.3,Win32,163.9344262,65dbad3905fde4fe1981dc61,65dcb0653076d70c85c23205,,,,,,,,,,,180.6467,0.7,181.3438,181.3438,182.1439,left,1,0.7969,,182.1439,183.1442,0,3,3,3,1,partial,2,images/Ex6.jpg,left,nonreversed,easy,2,,,,,
,,,,,60e3b450cc89a0046b21c5bc,001,42,male,British,BA (Hons),2024-02-26_15h38.46.236,CRL1e,2023.2.3,Win32,163.9344262,65dbad3905fde4fe1981dc61,65dcb0653076d70c85c23205,,,,,,,,,,,183.1444,1.2,184.3446,184.3446,184.9024,right,1,0.5528,,184.9024,185.9024,0,4,4,7,1,partial,2,images/Ex8.jpg,right,nonreversed,easy,2,,,,,
,,,,,60e3b450cc89a0046b21c5bc,001,42,male,British,BA (Hons),2024-02-26_15h38.46.236,CRL1e,2023.2.3,Win32,163.9344262,65dbad3905fde4fe1981dc61,65dcb0653076d70c85c23205,,,,,,,,,,,185.9026,1.1,186.9997,186.9997,187.6061,left,1,0.6049,,187.6062,188.6074,0,5,5,2,1,partial,2,images/Ex6.jpg,left,nonreversed,easy,2,,,,,
,,,,,60e3b450cc89a0046b21c5bc,001,42,male,British,BA (Hons),2024-02-26_15h38.46.236,CRL1e,2023.2.3,Win32,163.9344262,65dbad3905fde4fe1981dc61,65dcb0653076d70c85c23205,,,,,,,,,,,188.6077,0.5,189.1039,189.1039,189.7519,right,0,0.6458,,189.7519,190.7522,0,6,6,5,1,partial,2,images/Ex7.jpg,left,reversed,easy,2,,,,,
,,,,,60e3b450cc89a0046b21c5bc,001,42,male,British,BA (Hons),2024-02-26_15h38.46.236,CRL1e,2023.2.3,Win32,163.9344262,65dbad3905fde4fe1981dc61,65dcb0653076d70c85c23205,,,,,,,,,,,190.7524,0.7,191.4504,191.4504,191.9768,left,1,0.5237,,191.9769,192.977,0,7,7,4,1,partial,2,images/Ex7.jpg,left,reversed,easy,2,,,,,
,,,,,60e3b450cc89a0046b21c5bc,001,42,male,British,BA (Hons),2024-02-26_15h38.46.236,CRL1e,2023.2.3,Win32,163.9344262,65dbad3905fde4fe1981dc61,65dcb0653076d70c85c23205,,,,,,,,,,,192.9772,1,193.9772,193.9773,194.5716,right,1,0.5936,,194.5716,195.5716,1,0,8,6,1,partial,2,images/Ex8.jpg,right,nonreversed,easy,2,,,,,
,,,,,60e3b450cc89a0046b21c5bc,001,42,male,British,BA (Hons),2024-02-26_15h38.46.236,CRL1e,2023.2.3,Win32,163.9344262,65dbad3905fde4fe1981dc61,65dcb0653076d70c85c23205,,,,,,,,,,,195.5718,1.2,196.772,196.772,197.2085,left,0,0.4338,,197.2085,198.2088,1,1,9,1,1,partial,2,images/Ex5.jpg,right,reversed,easy,2,,,,,
,,,,,60e3b450cc89a0046b21c5bc,001,42,male,British,BA (Hons),2024-02-26_15h38.46.236,CRL1e,2023.2.3,Win32,163.9344262,65dbad3905fde4fe1981dc61,65dcb0653076d70c85c23205,,,,,,,,,,,198.209,1.1,199.3059,199.3059,199.7607,right,0,0.4503,,199.7607,200.7609,1,2,10,4,1,partial,2,images/Ex7.jpg,left,reversed,easy,2,,,,,
,,,,,60e3b450cc89a0046b21c5bc,001,42,male,British,BA (Hons),2024-02-26_15h38.46.236,CRL1e,2023.2.3,Win32,163.9344262,65dbad3905fde4fe1981dc61,65dcb0653076d70c85c23205,,,,,,,,,,,200.7611,1.2,201.9611,201.9611,202.5674,right,1,0.6025,,202.5675,203.5685,1,3,11,7,1,partial,2,images/Ex8.jpg,right,nonreversed,easy,2,,,,,
,,,,,60e3b450cc89a0046b21c5bc,001,42,male,British,BA (Hons),2024-02-26_15h38.46.236,CRL1e,2023.2.3,Win32,163.9344262,65dbad3905fde4fe1981dc61,65dcb0653076d70c85c23205,,,,,,,,,,,203.5687,0.8,204.3679,204.3679,205.3332,left,1,0.9646,,205.3333,206.332,1,4,12,3,1,partial,2,images/Ex6.jpg,left,nonreversed,easy,2,,,,,
,,,,,60e3b450cc89a0046b21c5bc,001,42,male,British,BA (Hons),2024-02-26_15h38.46.236,CRL1e,2023.2.3,Win32,163.9344262,65dbad3905fde4fe1981dc61,65dcb0653076d70c85c23205,,,,,,,,,,,206.3322,1.1,207.4292,207.4292,207.7871,right,1,0.3551,,207.7871,208.7873,1,5,13,0,1,partial,2,images/Ex5.jpg,right,reversed,easy,2,,,,,
,,,,,60e3b450cc89a0046b21c5bc,001,42,male,British,BA (Hons),2024-02-26_15h38.46.236,CRL1e,2023.2.3,Win32,163.9344262,65dbad3905fde4fe1981dc61,65dcb0653076d70c85c23205,,,,,,,,,,,208.7877,1.4,210.1875,210.1875,210.8666,right,0,0.6738,,210.8666,211.8667,1,6,14,5,1,partial,2,images/Ex7.jpg,left,reversed,easy,2,,,,,
,,,,,60e3b450cc89a0046b21c5bc,001,42,male,British,BA (Hons),2024-02-26_15h38.46.236,CRL1e,2023.2.3,Win32,163.9344262,65dbad3905fde4fe1981dc61,65dcb0653076d70c85c23205,,,,,,,,,,,211.8672,0.5,212.3639,212.3639,213.5839,left,1,1.2194,,213.5839,214.5826,1,7,15,2,1,partial,2,images/Ex6.jpg,left,nonreversed,easy,2,,,,,
,,,,,60e3b450cc89a0046b21c5bc,001,42,male,British,BA (Hons),2024-02-26_15h38.46.236,CRL1e,2023.2.3,Win32,163.9344262,65dbad3905fde4fe1981dc61,65dcb0653076d70c85c23205,,,,,,,,,,,214.5828,0.8,215.3828,215.3828,215.8677,right,1,0.4829,,215.8678,216.8682,2,0,16,1,1,partial,2,images/Ex5.jpg,right,reversed,easy,2,,,,,
,,,,,60e3b450cc89a0046b21c5bc,001,42,male,British,BA (Hons),2024-02-26_15h38.46.236,CRL1e,2023.2.3,Win32,163.9344262,65dbad3905fde4fe1981dc61,65dcb0653076d70c85c23205,,,,,,,,,,,216.8686,0.5,217.3651,217.3651,218.1168,right,0,0.7508,,218.1168,219.1181,2,1,17,4,1,partial,2,images/Ex7.jpg,left,reversed,easy,2,,,,,
,,,,,60e3b450cc89a0046b21c5bc,001,42,male,British,BA (Hons),2024-02-26_15h38.46.236,CRL1e,2023.2.3,Win32,163.9344262,65dbad3905fde4fe1981dc61,65dcb0653076d70c85c23205,,,,,,,,,,,219.1184,0.6,219.7183,219.7184,220.2326,right,1,0.5089,,220.2326,221.2327,2,2,18,0,1,partial,2,images/Ex5.jpg,right,reversed,easy,2,,,,,
,,,,,60e3b450cc89a0046b21c5bc,001,42,male,British,BA (Hons),2024-02-26_15h38.46.236,CRL1e,2023.2.3,Win32,163.9344262,65dbad3905fde4fe1981dc61,65dcb0653076d70c85c23205,,,,,,,,,,,221.2329,0.9,222.13,222.13,222.7909,right,1,0.6568,,222.7909,223.7911,2,3,19,6,1,partial,2,images/Ex8.jpg,right,nonreversed,easy,2,,,,,
,,,,,60e3b450cc89a0046b21c5bc,001,42,male,British,BA (Hons),2024-02-26_15h38.46.236,CRL1e,2023.2.3,Win32,163.9344262,65dbad3905fde4fe1981dc61,65dcb0653076d70c85c23205,,,,,,,,,,,223.7915,0.9,224.6893,224.6893,225.428,left,1,0.7368,,225.428,226.4281,2,4,20,3,1,partial,2,images/Ex6.jpg,left,nonreversed,easy,2,,,,,
,,,,,60e3b450cc89a0046b21c5bc,001,42,male,British,BA (Hons),2024-02-26_15h38.46.236,CRL1e,2023.2.3,Win32,163.9344262,65dbad3905fde4fe1981dc61,65dcb0653076d70c85c23205,,,,,,,,,,,226.4284,1.3,227.7263,227.7263,228.1754,left,0,0.4486,,228.1755,229.1742,2,5,21,7,1,partial,2,images/Ex8.jpg,right,nonreversed,easy,2,,,,,
,,,,,60e3b450cc89a0046b21c5bc,001,42,male,British,BA (Hons),2024-02-26_15h38.46.236,CRL1e,2023.2.3,Win32,163.9344262,65dbad3905fde4fe1981dc61,65dcb0653076d70c85c23205,,,,,,,,,,,229.1746,0.6,229.7745,229.7745,230.6777,left,1,0.8984,,230.6778,231.6779,2,6,22,5,1,partial,2,images/Ex7.jpg,left,reversed,easy,2,,,,,
,,,,,60e3b450cc89a0046b21c5bc,001,42,male,British,BA (Hons),2024-02-26_15h38.46.236,CRL1e,2023.2.3,Win32,163.9344262,65dbad3905fde4fe1981dc61,65dcb0653076d70c85c23205,,,,,,,,,,,231.6782,0.6,232.2781,232.2781,233.1086,right,0,0.8288,,233.1087,234.1042,2,7,23,2,1,partial,2,images/Ex6.jpg,left,nonreversed,easy,2,,,,,
,,,,,60e3b450cc89a0046b21c5bc,001,42,male,British,BA (Hons),2024-02-26_15h38.46.236,CRL1e,2023.2.3,Win32,163.9344262,65dbad3905fde4fe1981dc61,65dcb0653076d70c85c23205,,,,,,,,,,,234.1044,0.8,234.9031,234.9031,235.679,right,0,0.7747,,235.679,236.6795,3,0,24,5,1,partial,2,images/Ex7.jpg,left,reversed,easy,2,,,,,
,,,,,60e3b450cc89a0046b21c5bc,001,42,male,British,BA (Hons),2024-02-26_15h38.46.236,CRL1e,2023.2.3,Win32,163.9344262,65dbad3905fde4fe1981dc61,65dcb0653076d70c85c23205,,,,,,,,,,,236.6799,0.5,237.1764,237.1764,238.4859,right,0,1.3054,,238.4859,239.4861,3,1,25,2,1,partial,2,images/Ex6.jpg,left,nonreversed,easy,2,,,,,
,,,,,60e3b450cc89a0046b21c5bc,001,42,male,British,BA (Hons),2024-02-26_15h38.46.236,CRL1e,2023.2.3,Win32,163.9344262,65dbad3905fde4fe1981dc61,65dcb0653076d70c85c23205,,,,,,,,,,,239.4863,0.8,240.2863,240.2863,240.8453,right,1,0.5584,,240.8453,241.8442,3,2,26,6,1,partial,2,images/Ex8.jpg,right,nonreversed,easy,2,,,,,
,,,,,60e3b450cc89a0046b21c5bc,001,42,male,British,BA (Hons),2024-02-26_15h38.46.236,CRL1e,2023.2.3,Win32,163.9344262,65dbad3905fde4fe1981dc61,65dcb0653076d70c85c23205,,,,,,,,,,,241.8445,0.9,242.7426,242.7426,243.2327,left,0,0.4861,,243.2327,244.2327,3,3,27,0,1,partial,2,images/Ex5.jpg,right,reversed,easy,2,,,,,
,,,,,60e3b450cc89a0046b21c5bc,001,42,male,British,BA (Hons),2024-02-26_15h38.46.236,CRL1e,2023.2.3,Win32,163.9344262,65dbad3905fde4fe1981dc61,65dcb0653076d70c85c23205,,,,,,,,,,,244.2329,1,245.233,245.233,245.7968,right,1,0.5627,,245.7968,246.797,3,4,28,1,1,partial,2,images/Ex5.jpg,right,reversed,easy,2,,,,,
,,,,,60e3b450cc89a0046b21c5bc,001,42,male,British,BA (Hons),2024-02-26_15h38.46.236,CRL1e,2023.2.3,Win32,163.9344262,65dbad3905fde4fe1981dc61,65dcb0653076d70c85c23205,,,,,,,,,,,246.7973,1.4,248.1973,248.1973,249.2401,left,1,1.0415,,249.2401,250.2403,3,5,29,3,1,partial,2,images/Ex6.jpg,left,nonreversed,easy,2,,,,,
,,,,,60e3b450cc89a0046b21c5bc,001,42,male,British,BA (Hons),2024-02-26_15h38.46.236,CRL1e,2023.2.3,Win32,163.9344262,65dbad3905fde4fe1981dc61,65dcb0653076d70c85c23205,,,,,,,,,,,250.2406,0.5,250.7384,250.7384,251.3392,right,1,0.6001,,251.3392,252.3391,3,6,30,7,1,partial,2,images/Ex8.jpg,right,nonreversed,easy,2,,,,,
,,,,,60e3b450cc89a0046b21c5bc,001,42,male,British,BA (Hons),2024-02-26_15h38.46.236,CRL1e,2023.2.3,Win32,163.9344262,65dbad3905fde4fe1981dc61,65dcb0653076d70c85c23205,,,,,,,,,,,252.3393,1,253.3381,253.3381,254.0234,right,0,0.6848,,254.0234,255.0235,3,7,31,4,1,partial,2,images/Ex7.jpg,left,reversed,easy,2,,,,,
,,,,,60e3b450cc89a0046b21c5bc,001,42,male,British,BA (Hons),2024-02-26_15h38.46.236,CRL1e,2023.2.3,Win32,163.9344262,65dbad3905fde4fe1981dc61,65dcb0653076d70c85c23205,,,,,,,,,,,255.0236,1.1,256.1207,256.1207,256.6554,left,1,0.5343,,256.6555,257.6545,4,0,32,5,1,partial,2,images/Ex7.jpg,left,reversed,easy,2,,,,,
,,,,,60e3b450cc89a0046b21c5bc,001,42,male,British,BA (Hons),2024-02-26_15h38.46.236,CRL1e,2023.2.3,Win32,163.9344262,65dbad3905fde4fe1981dc61,65dcb0653076d70c85c23205,,,,,,,,,,,257.6548,1,258.6546,258.6546,259.4428,right,0,0.7862,,259.4428,260.443,4,1,33,2,1,partial,2,images/Ex6.jpg,left,nonreversed,easy,2,,,,,
,,,,,60e3b450cc89a0046b21c5bc,001,42,male,British,BA (Hons),2024-02-26_15h38.46.236,CRL1e,2023.2.3,Win32,163.9344262,65dbad3905fde4fe1981dc61,65dcb0653076d70c85c23205,,,,,,,,,,,260.4431,0.6,261.0432,261.0432,261.6434,left,1,0.5998,,261.6434,262.6436,4,2,34,3,1,partial,2,images/Ex6.jpg,left,nonreversed,easy,2,,,,,
,,,,,60e3b450cc89a0046b21c5bc,001,42,male,British,BA (Hons),2024-02-26_15h38.46.236,CRL1e,2023.2.3,Win32,163.9344262,65dbad3905fde4fe1981dc61,65dcb0653076d70c85c23205,,,,,,,,,,,262.6438,1.3,263.9409,263.9409,264.8744,left,0,0.929,,264.8745,265.8747,4,3,35,0,1,partial,2,images/Ex5.jpg,right,reversed,easy,2,,,,,
,,,,,60e3b450cc89a0046b21c5bc,001,42,male,British,BA (Hons),2024-02-26_15h38.46.236,CRL1e,2023.2.3,Win32,163.9344262,65dbad3905fde4fe1981dc61,65dcb0653076d70c85c23205,,,,,,,,,,,265.875,1,266.876,266.8761,267.41,right,1,0.5336,,267.41,268.4087,4,4,36,1,1,partial,2,images/Ex5.jpg,right,reversed,easy,2,,,,,
,,,,,60e3b450cc89a0046b21c5bc,001,42,male,British,BA (Hons),2024-02-26_15h38.46.236,CRL1e,2023.2.3,Win32,163.9344262,65dbad3905fde4fe1981dc61,65dcb0653076d70c85c23205,,,,,,,,,,,268.4091,0.5,268.906,268.906,269.5561,right,1,0.6495,,269.5561,270.5548,4,5,37,6,1,partial,2,images/Ex8.jpg,right,nonreversed,easy,2,,,,,
,,,,,60e3b450cc89a0046b21c5bc,001,42,male,British,BA (Hons),2024-02-26_15h38.46.236,CRL1e,2023.2.3,Win32,163.9344262,65dbad3905fde4fe1981dc61,65dcb0653076d70c85c23205,,,,,,,,,,,270.555,1.3,271.852,271.852,272.4946,right,1,0.6412,,272.4947,273.4949,4,6,38,7,1,partial,2,images/Ex8.jpg,right,nonreversed,easy,2,,,,,
,,,,,60e3b450cc89a0046b21c5bc,001,42,male,British,BA (Hons),2024-02-26_15h38.46.236,CRL1e,2023.2.3,Win32,163.9344262,65dbad3905fde4fe1981dc61,65dcb0653076d70c85c23205,,,,,,,,,,,273.4951,1.3,274.792,274.7922,275.6107,left,1,0.8131,,275.6108,276.6108,4,7,39,4,1,partial,2,images/Ex7.jpg,left,reversed,easy,2,,,,,
,,,,,60e3b450cc89a0046b21c5bc,001,42,male,British,BA (Hons),2024-02-26_15h38.46.236,CRL1e,2023.2.3,Win32,163.9344262,65dbad3905fde4fe1981dc61,65dcb0653076d70c85c23205,,,,,,,,,,,276.6111,1,277.6111,277.6111,278.4841,right,1,0.8688,,278.4842,279.4844,5,0,40,0,1,partial,2,images/Ex5.jpg,right,reversed,easy,2,,,,,
,,,,,60e3b450cc89a0046b21c5bc,001,42,male,British,BA (Hons),2024-02-26_15h38.46.236,CRL1e,2023.2.3,Win32,163.9344262,65dbad3905fde4fe1981dc61,65dcb0653076d70c85c23205,,,,,,,,,,,279.4845,0.8,280.2855,280.2855,280.6846,right,1,0.3953,,280.6846,281.685,5,1,41,1,1,partial,2,images/Ex5.jpg,right,reversed,easy,2,,,,,
,,,,,60e3b450cc89a0046b21c5bc,001,42,male,British,BA (Hons),2024-02-26_15h38.46.236,CRL1e,2023.2.3,Win32,163.9344262,65dbad3905fde4fe1981dc61,65dcb0653076d70c85c23205,,,,,,,,,,,281.6853,0.9,282.582,282.582,283.1945,right,0,0.6088,,283.1945,284.1946,5,2,42,4,1,partial,2,images/Ex7.jpg,left,reversed,easy,2,,,,,
,,,,,60e3b450cc89a0046b21c5bc,001,42,male,British,BA (Hons),2024-02-26_15h38.46.236,CRL1e,2023.2.3,Win32,163.9344262,65dbad3905fde4fe1981dc61,65dcb0653076d70c85c23205,,,,,,,,,,,284.1949,0.9,285.0929,285.093,285.9042,left,1,0.8101,,285.9042,286.9056,5,3,43,3,1,partial,2,images/Ex6.jpg,left,nonreversed,easy,2,,,,,
,,,,,60e3b450cc89a0046b21c5bc,001,42,male,British,BA (Hons),2024-02-26_15h38.46.236,CRL1e,2023.2.3,Win32,163.9344262,65dbad3905fde4fe1981dc61,65dcb0653076d70c85c23205,,,,,,,,,,,286.9059,0.7,287.6016,287.6016,288.2077,right,0,0.6014,,288.2078,289.208,5,4,44,5,1,partial,2,images/Ex7.jpg,left,reversed,easy,2,,,,,
,,,,,60e3b450cc89a0046b21c5bc,001,42,male,British,BA (Hons),2024-02-26_15h38.46.236,CRL1e,2023.2.3,Win32,163.9344262,65dbad3905fde4fe1981dc61,65dcb0653076d70c85c23205,,,,,,,,,,,289.2082,1.2,290.4083,290.4083,290.9115,right,1,0.4996,,290.9115,291.912,5,5,45,6,1,partial,2,images/Ex8.jpg,right,nonreversed,easy,2,,,,,
,,,,,60e3b450cc89a0046b21c5bc,001,42,male,British,BA (Hons),2024-02-26_15h38.46.236,CRL1e,2023.2.3,Win32,163.9344262,65dbad3905fde4fe1981dc61,65dcb0653076d70c85c23205,,,,,,,,,,,291.9123,0.7,292.6089,292.6089,293.2697,left,1,0.657,,293.2698,294.27,5,6,46,2,1,partial,2,images/Ex6.jpg,left,nonreversed,easy,2,,,,,
,,,,,60e3b450cc89a0046b21c5bc,001,42,male,British,BA (Hons),2024-02-26_15h38.46.236,CRL1e,2023.2.3,Win32,163.9344262,65dbad3905fde4fe1981dc61,65dcb0653076d70c85c23205,,,,,,,,,,,294.2703,1.1,295.3672,295.3672,295.9129,right,1,0.5426,,295.9129,296.9141,5,7,47,7,1,partial,2,images/Ex8.jpg,right,nonreversed,easy,2,,,,,
,,,,,60e3b450cc89a0046b21c5bc,001,42,male,British,BA (Hons),2024-02-26_15h38.46.236,CRL1e,2023.2.3,Win32,163.9344262,65dbad3905fde4fe1981dc61,65dcb0653076d70c85c23205,,,,,,296.9146,301.2718,space,4.3513,,301.2778,0.7,301.9749,301.9749,303.2845,left,0,1.3048,,303.2846,304.2847,0,0,0,4,1,total,1,images/Ex3.jpg,right,training,easy,2,,,,,
,,,,,60e3b450cc89a0046b21c5bc,001,42,male,British,BA (Hons),2024-02-26_15h38.46.236,CRL1e,2023.2.3,Win32,163.9344262,65dbad3905fde4fe1981dc61,65dcb0653076d70c85c23205,,,,,,,,,,,304.2849,0.9,305.1818,305.1818,305.97,left,0,0.7838,,305.97,306.972,0,1,1,6,1,total,1,images/Ex4.jpg,right,training,easy,2,,,,,
,,,,,60e3b450cc89a0046b21c5bc,001,42,male,British,BA (Hons),2024-02-26_15h38.46.236,CRL1e,2023.2.3,Win32,163.9344262,65dbad3905fde4fe1981dc61,65dcb0653076d70c85c23205,,,,,,,,,,,306.9723,1.4,308.3718,308.3718,309.0859,left,1,0.7101,,309.0859,310.0862,0,2,2,3,1,total,1,images/Ex2.jpg,left,training,easy,2,,,,,
,,,,,60e3b450cc89a0046b21c5bc,001,42,male,British,BA (Hons),2024-02-26_15h38.46.236,CRL1e,2023.2.3,Win32,163.9344262,65dbad3905fde4fe1981dc61,65dcb0653076d70c85c23205,,,,,,,,,,,310.0864,1.3,311.3846,311.3846,312.0929,left,1,0.7045,,312.0929,313.0943,0,3,3,2,1,total,1,images/Ex2.jpg,left,training,easy,2,,,,,
,,,,,60e3b450cc89a0046b21c5bc,001,42,male,British,BA (Hons),2024-02-26_15h38.46.236,CRL1e,2023.2.3,Win32,163.9344262,65dbad3905fde4fe1981dc61,65dcb0653076d70c85c23205,,,,,,,,,,,313.0945,0.7,313.7901,313.7902,314.4934,right,0,0.7027,,314.4934,315.4946,0,4,4,0,1,total,1,images/Ex1.jpg,left,training,easy,2,,,,,
,,,,,60e3b450cc89a0046b21c5bc,001,42,male,British,BA (Hons),2024-02-26_15h38.46.236,CRL1e,2023.2.3,Win32,163.9344262,65dbad3905fde4fe1981dc61,65dcb0653076d70c85c23205,,,,,,,,,,,315.4948,1.3,316.7909,316.7909,317.8155,left,1,1.024,,317.8155,318.8157,0,5,5,1,1,total,1,images/Ex1.jpg,left,training,easy,2,,,,,
,,,,,60e3b450cc89a0046b21c5bc,001,42,male,British,BA (Hons),2024-02-26_15h38.46.236,CRL1e,2023.2.3,Win32,163.9344262,65dbad3905fde4fe1981dc61,65dcb0653076d70c85c23205,,,,,,,,,,,318.816,0.7,319.5128,319.5128,320.3433,right,1,0.83,,320.3434,321.3436,0,6,6,5,1,total,1,images/Ex3.jpg,right,training,easy,2,,,,,
,,,,,60e3b450cc89a0046b21c5bc,001,42,male,British,BA (Hons),2024-02-26_15h38.46.236,CRL1e,2023.2.3,Win32,163.9344262,65dbad3905fde4fe1981dc61,65dcb0653076d70c85c23205,,,,,,,,,,,321.3439,0.8,322.1439,322.1439,322.6712,right,1,0.526,,322.6713,323.6716,0,7,7,7,1,total,1,images/Ex4.jpg,right,training,easy,2,,,,,
,,,,,60e3b450cc89a0046b21c5bc,001,42,male,British,BA (Hons),2024-02-26_15h38.46.236,CRL1e,2023.2.3,Win32,163.9344262,65dbad3905fde4fe1981dc61,65dcb0653076d70c85c23205,,,,,,,,,,,323.6723,0.7,324.3699,324.3699,324.9943,right,1,0.6238,,324.9944,325.9933,1,0,8,5,1,total,1,images/Ex3.jpg,right,training,easy,2,,,,,
,,,,,60e3b450cc89a0046b21c5bc,001,42,male,British,BA (Hons),2024-02-26_15h38.46.236,CRL1e,2023.2.3,Win32,163.9344262,65dbad3905fde4fe1981dc61,65dcb0653076d70c85c23205,,,,,,,,,,,325.9936,1.4,327.3943,327.3943,327.9998,left,1,0.6016,,327.9999,329.0001,1,1,9,3,1,total,1,images/Ex2.jpg,left,training,easy,2,,,,,
,,,,,60e3b450cc89a0046b21c5bc,001,42,male,British,BA (Hons),2024-02-26_15h38.46.236,CRL1e,2023.2.3,Win32,163.9344262,65dbad3905fde4fe1981dc61,65dcb0653076d70c85c23205,,,,,,,,,,,329.0003,1.2,330.2008,330.2008,331.0383,right,1,0.8362,,331.0383,332.0373,1,2,10,4,1,total,1,images/Ex3.jpg,right,training,easy,2,,,,,
,,,,,60e3b450cc89a0046b21c5bc,001,42,male,British,BA (Hons),2024-02-26_15h38.46.236,CRL1e,2023.2.3,Win32,163.9344262,65dbad3905fde4fe1981dc61,65dcb0653076d70c85c23205,,,,,,,,,,,332.0376,1.1,333.1346,333.1346,333.7529,right,1,0.6154,,333.753,334.7531,1,3,11,6,1,total,1,images/Ex4.jpg,right,training,easy,2,,,,,
,,,,,60e3b450cc89a0046b21c5bc,001,42,male,British,BA (Hons),2024-02-26_15h38.46.236,CRL1e,2023.2.3,Win32,163.9344262,65dbad3905fde4fe1981dc61,65dcb0653076d70c85c23205,,,,,,,,,,,334.7534,0.7,335.4503,335.4503,336.3111,left,1,0.8594,,336.3111,337.3124,1,4,12,1,1,total,1,images/Ex1.jpg,left,training,easy,2,,,,,
,,,,,60e3b450cc89a0046b21c5bc,001,42,male,British,BA (Hons),2024-02-26_15h38.46.236,CRL1e,2023.2.3,Win32,163.9344262,65dbad3905fde4fe1981dc61,65dcb0653076d70c85c23205,,,,,,,,,,,337.3126,0.8,338.1116,338.1117,338.6513,left,1,0.5357,,338.6513,339.6514,1,5,13,0,1,total,1,images/Ex1.jpg,left,training,easy,2,,,,,
,,,,,60e3b450cc89a0046b21c5bc,001,42,male,British,BA (Hons),2024-02-26_15h38.46.236,CRL1e,2023.2.3,Win32,163.9344262,65dbad3905fde4fe1981dc61,65dcb0653076d70c85c23205,,,,,,,,,,,339.6516,0.9,340.5485,340.5485,341.2579,left,1,0.7072,,341.2579,342.2581,1,6,14,2,1,total,1,images/Ex2.jpg,left,training,easy,2,,,,,
,,,,,60e3b450cc89a0046b21c5bc,001,42,male,British,BA (Hons),2024-02-26_15h38.46.236,CRL1e,2023.2.3,Win32,163.9344262,65dbad3905fde4fe1981dc61,65dcb0653076d70c85c23205,,,,,,,,,,,342.2583,0.8,343.0584,343.0584,343.6768,right,1,0.6145,,343.6768,344.677,1,7,15,7,1,total,1,images/Ex4.jpg,right,training,easy,2,,,,,
,,,,,60e3b450cc89a0046b21c5bc,001,42,male,British,BA (Hons),2024-02-26_15h38.46.236,CRL1e,2023.2.3,Win32,163.9344262,65dbad3905fde4fe1981dc61,65dcb0653076d70c85c23205,,,,,,,,,,,344.6772,0.9,345.5741,345.5741,346.5017,right,0,0.924,,346.5018,347.5029,2,0,16,2,1,total,1,images/Ex2.jpg,left,training,easy,2,,,,,
,,,,,60e3b450cc89a0046b21c5bc,001,42,male,British,BA (Hons),2024-02-26_15h38.46.236,CRL1e,2023.2.3,Win32,163.9344262,65dbad3905fde4fe1981dc61,65dcb0653076d70c85c23205,,,,,,,,,,,347.503,1.2,348.7032,348.7032,349.26,right,1,0.5518,,349.26,350.2602,2,1,17,4,1,total,1,images/Ex3.jpg,right,training,easy,2,,,,,
,,,,,60e3b450cc89a0046b21c5bc,001,42,male,British,BA (Hons),2024-02-26_15h38.46.236,CRL1e,2023.2.3,Win32,163.9344262,65dbad3905fde4fe1981dc61,65dcb0653076d70c85c23205,,,,,,,,,,,350.2605,0.9,351.1574,351.1574,351.7213,right,1,0.5587,,351.7213,352.7225,2,2,18,5,1,total,1,images/Ex3.jpg,right,training,easy,2,,,,,
,,,,,60e3b450cc89a0046b21c5bc,001,42,male,British,BA (Hons),2024-02-26_15h38.46.236,CRL1e,2023.2.3,Win32,163.9344262,65dbad3905fde4fe1981dc61,65dcb0653076d70c85c23205,,,,,,,,,,,352.7227,0.7,353.4186,353.4186,354.1885,left,1,0.7652,,354.1886,355.1888,2,3,19,0,1,total,1,images/Ex1.jpg,left,training,easy,2,,,,,
,,,,,60e3b450cc89a0046b21c5bc,001,42,male,British,BA (Hons),2024-02-26_15h38.46.236,CRL1e,2023.2.3,Win32,163.9344262,65dbad3905fde4fe1981dc61,65dcb0653076d70c85c23205,,,,,,,,,,,355.189,0.9,356.086,356.086,356.6619,right,1,0.5741,,356.662,357.6622,2,4,20,7,1,total,1,images/Ex4.jpg,right,training,easy,2,,,,,
,,,,,60e3b450cc89a0046b21c5bc,001,42,male,British,BA (Hons),2024-02-26_15h38.46.236,CRL1e,2023.2.3,Win32,163.9344262,65dbad3905fde4fe1981dc61,65dcb0653076d70c85c23205,,,,,,,,,,,357.6626,0.5,358.1604,358.1604,358.6443,right,1,0.4805,,358.6443,359.6446,2,5,21,6,1,total,1,images/Ex4.jpg,right,training,easy,2,,,,,
,,,,,60e3b450cc89a0046b21c5bc,001,42,male,British,BA (Hons),2024-02-26_15h38.46.236,CRL1e,2023.2.3,Win32,163.9344262,65dbad3905fde4fe1981dc61,65dcb0653076d70c85c23205,,,,,,,,,,,359.645,1.3,360.9418,360.9418,361.6147,left,1,0.67,,361.6147,362.6159,2,6,22,1,1,total,1,images/Ex1.jpg,left,training,easy,2,,,,,
,,,,,60e3b450cc89a0046b21c5bc,001,42,male,British,BA (Hons),2024-02-26_15h38.46.236,CRL1e,2023.2.3,Win32,163.9344262,65dbad3905fde4fe1981dc61,65dcb0653076d70c85c23205,,,,,,,,,,,362.6161,0.5,363.113,363.113,363.7545,left,1,0.637,,363.7545,364.7549,2,7,23,3,1,total,1,images/Ex2.jpg,left,training,easy,2,,,,,
,,,,,60e3b450cc89a0046b21c5bc,001,42,male,British,BA (Hons),2024-02-26_15h38.46.236,CRL1e,2023.2.3,Win32,163.9344262,65dbad3905fde4fe1981dc61,65dcb0653076d70c85c23205,,,,,,,,,,,364.7552,0.9,365.6521,365.6521,366.1742,right,1,0.5215,,366.1742,367.1737,3,0,24,6,1,total,1,images/Ex4.jpg,right,training,easy,2,,,,,
,,,,,60e3b450cc89a0046b21c5bc,001,42,male,British,BA (Hons),2024-02-26_15h38.46.236,CRL1e,2023.2.3,Win32,163.9344262,65dbad3905fde4fe1981dc61,65dcb0653076d70c85c23205,,,,,,,,,,,367.1739,1.2,368.3739,368.3739,369.0347,right,0,0.6598,,369.0348,370.0361,3,1,25,0,1,total,1,images/Ex1.jpg,left,training,easy,2,,,,,
,,,,,60e3b450cc89a0046b21c5bc,001,42,male,British,BA (Hons),2024-02-26_15h38.46.236,CRL1e,2023.2.3,Win32,163.9344262,65dbad3905fde4fe1981dc61,65dcb0653076d70c85c23205,,,,,,,,,,,370.0363,0.6,370.6353,370.6354,371.1263,left,1,0.4895,,371.1263,372.1266,3,2,26,1,1,total,1,images/Ex1.jpg,left,training,easy,2,,,,,
,,,,,60e3b450cc89a0046b21c5bc,001,42,male,British,BA (Hons),2024-02-26_15h38.46.236,CRL1e,2023.2.3,Win32,163.9344262,65dbad3905fde4fe1981dc61,65dcb0653076d70c85c23205,,,,,,,,,,,372.1268,1.5,373.6238,373.6238,374.104,right,0,0.4798,,374.104,375.103,3,3,27,3,1,total,1,images/Ex2.jpg,left,training,easy,2,,,,,
,,,,,60e3b450cc89a0046b21c5bc,001,42,male,British,BA (Hons),2024-02-26_15h38.46.236,CRL1e,2023.2.3,Win32,163.9344262,65dbad3905fde4fe1981dc61,65dcb0653076d70c85c23205,,,,,,,,,,,375.1032,1.5,376.6004,376.6005,377.1521,right,0,0.5466,,377.1521,378.1536,3,4,28,2,1,total,1,images/Ex2.jpg,left,training,easy,2,,,,,
,,,,,60e3b450cc89a0046b21c5bc,001,42,male,British,BA (Hons),2024-02-26_15h38.46.236,CRL1e,2023.2.3,Win32,163.9344262,65dbad3905fde4fe1981dc61,65dcb0653076d70c85c23205,,,,,,,,,,,378.1538,0.8,378.9527,378.9527,379.5527,right,1,0.5991,,379.5527,380.5528,3,5,29,4,1,total,1,images/Ex3.jpg,right,training,easy,2,,,,,
,,,,,60e3b450cc89a0046b21c5bc,001,42,male,British,BA (Hons),2024-02-26_15h38.46.236,CRL1e,2023.2.3,Win32,163.9344262,65dbad3905fde4fe1981dc61,65dcb0653076d70c85c23205,,,,,,,,,,,380.5531,0.9,381.4501,381.4501,382.1473,right,1,0.695,,382.1474,383.1475,3,6,30,7,1,total,1,images/Ex4.jpg,right,training,easy,2,,,,,
,,,,,60e3b450cc89a0046b21c5bc,001,42,male,British,BA (Hons),2024-02-26_15h38.46.236,CRL1e,2023.2.3,Win32,163.9344262,65dbad3905fde4fe1981dc61,65dcb0653076d70c85c23205,,,,,,,,,,,383.1477,0.7,383.8447,383.8448,384.6024,right,1,0.7553,,384.6024,385.6027,3,7,31,5,1,total,1,images/Ex3.jpg,right,training,easy,2,,,,,
,,,,,60e3b450cc89a0046b21c5bc,001,42,male,British,BA (Hons),2024-02-26_15h38.46.236,CRL1e,2023.2.3,Win32,163.9344262,65dbad3905fde4fe1981dc61,65dcb0653076d70c85c23205,,,,,,,,,,,385.6031,0.7,386.2998,386.2998,386.7242,right,1,0.4201,,386.7243,387.7244,4,0,32,4,1,total,1,images/Ex3.jpg,right,training,easy,2,,,,,
,,,,,60e3b450cc89a0046b21c5bc,001,42,male,British,BA (Hons),2024-02-26_15h38.46.236,CRL1e,2023.2.3,Win32,163.9344262,65dbad3905fde4fe1981dc61,65dcb0653076d70c85c23205,,,,,,,,,,,387.7247,1,388.7247,388.7247,389.3614,right,1,0.6357,,389.3614,390.3615,4,1,33,7,1,total,1,images/Ex4.jpg,right,training,easy,2,,,,,
,,,,,60e3b450cc89a0046b21c5bc,001,42,male,British,BA (Hons),2024-02-26_15h38.46.236,CRL1e,2023.2.3,Win32,163.9344262,65dbad3905fde4fe1981dc61,65dcb0653076d70c85c23205,,,,,,,,,,,390.3618,1.3,391.659,391.659,392.2953,left,1,0.631,,392.2953,393.2958,4,2,34,3,1,total,1,images/Ex2.jpg,left,training,easy,2,,,,,
,,,,,60e3b450cc89a0046b21c5bc,001,42,male,British,BA (Hons),2024-02-26_15h38.46.236,CRL1e,2023.2.3,Win32,163.9344262,65dbad3905fde4fe1981dc61,65dcb0653076d70c85c23205,,,,,,,,,,,393.296,1.3,394.5929,394.5929,395.2416,left,1,0.6439,,395.2417,396.2435,4,3,35,1,1,total,1,images/Ex1.jpg,left,training,easy,2,,,,,
,,,,,60e3b450cc89a0046b21c5bc,001,42,male,British,BA (Hons),2024-02-26_15h38.46.236,CRL1e,2023.2.3,Win32,163.9344262,65dbad3905fde4fe1981dc61,65dcb0653076d70c85c23205,,,,,,,,,,,396.2437,1.5,397.7402,397.7403,398.3272,right,1,0.5837,,398.3273,399.3275,4,4,36,6,1,total,1,images/Ex4.jpg,right,training,easy,2,,,,,
,,,,,60e3b450cc89a0046b21c5bc,001,42,male,British,BA (Hons),2024-02-26_15h38.46.236,CRL1e,2023.2.3,Win32,163.9344262,65dbad3905fde4fe1981dc61,65dcb0653076d70c85c23205,,,,,,,,,,,399.3277,0.9,400.2249,400.2249,400.7764,left,1,0.5464,,400.7764,401.7768,4,5,37,2,1,total,1,images/Ex2.jpg,left,training,easy,2,,,,,
,,,,,60e3b450cc89a0046b21c5bc,001,42,male,British,BA (Hons),2024-02-26_15h38.46.236,CRL1e,2023.2.3,Win32,163.9344262,65dbad3905fde4fe1981dc61,65dcb0653076d70c85c23205,,,,,,,,,,,401.7769,0.7,402.4745,402.4745,402.9904,left,0,0.5153,,402.9904,403.9905,4,6,38,5,1,total,1,images/Ex3.jpg,right,training,easy,2,,,,,
,,,,,60e3b450cc89a0046b21c5bc,001,42,male,British,BA (Hons),2024-02-26_15h38.46.236,CRL1e,2023.2.3,Win32,163.9344262,65dbad3905fde4fe1981dc61,65dcb0653076d70c85c23205,,,,,,,,,,,403.9908,0.8,404.7896,404.7896,405.9231,left,1,1.1284,,405.9232,406.9246,4,7,39,0,1,total,1,images/Ex1.jpg,left,training,easy,2,,,,,
,,,,,60e3b450cc89a0046b21c5bc,001,42,male,British,BA (Hons),2024-02-26_15h38.46.236,CRL1e,2023.2.3,Win32,163.9344262,65dbad3905fde4fe1981dc61,65dcb0653076d70c85c23205,,,,,,,,,,,406.9248,1,407.9237,407.9237,408.73,left,1,0.802,,408.73,409.7302,5,0,40,3,1,total,1,images/Ex2.jpg,left,training,easy,2,,,,,
,,,,,60e3b450cc89a0046b21c5bc,001,42,male,British,BA (Hons),2024-02-26_15h38.46.236,CRL1e,2023.2.3,Win32,163.9344262,65dbad3905fde4fe1981dc61,65dcb0653076d70c85c23205,,,,,,,,,,,409.7305,1.2,410.9305,410.9305,411.5066,right,1,0.5756,,411.5067,412.5079,5,1,41,6,1,total,1,images/Ex4.jpg,right,training,easy,2,,,,,
,,,,,60e3b450cc89a0046b21c5bc,001,42,male,British,BA (Hons),2024-02-26_15h38.46.236,CRL1e,2023.2.3,Win32,163.9344262,65dbad3905fde4fe1981dc61,65dcb0653076d70c85c23205,,,,,,,,,,,412.5081,0.8,413.3068,413.3068,413.8706,left,1,0.562,,413.8706,414.871,5,2,42,2,1,total,1,images/Ex2.jpg,left,training,easy,2,,,,,
,,,,,60e3b450cc89a0046b21c5bc,001,42,male,British,BA (Hons),2024-02-26_15h38.46.236,CRL1e,2023.2.3,Win32,163.9344262,65dbad3905fde4fe1981dc61,65dcb0653076d70c85c23205,,,,,,,,,,,414.8712,1.2,416.0712,416.0712,416.5866,right,1,0.5107,,416.5866,417.5867,5,3,43,7,1,total,1,images/Ex4.jpg,right,training,easy,2,,,,,
,,,,,60e3b450cc89a0046b21c5bc,001,42,male,British,BA (Hons),2024-02-26_15h38.46.236,CRL1e,2023.2.3,Win32,163.9344262,65dbad3905fde4fe1981dc61,65dcb0653076d70c85c23205,,,,,,,,,,,417.587,0.8,418.3869,418.3869,418.9508,left,0,0.5631,,418.9508,419.951,5,4,44,4,1,total,1,images/Ex3.jpg,right,training,easy,2,,,,,
,,,,,60e3b450cc89a0046b21c5bc,001,42,male,British,BA (Hons),2024-02-26_15h38.46.236,CRL1e,2023.2.3,Win32,163.9344262,65dbad3905fde4fe1981dc61,65dcb0653076d70c85c23205,,,,,,,,,,,419.9512,0.6,420.5511,420.5511,421.4847,left,1,0.9287,,421.4847,422.4851,5,5,45,1,1,total,1,images/Ex1.jpg,left,training,easy,2,,,,,
,,,,,60e3b450cc89a0046b21c5bc,001,42,male,British,BA (Hons),2024-02-26_15h38.46.236,CRL1e,2023.2.3,Win32,163.9344262,65dbad3905fde4fe1981dc61,65dcb0653076d70c85c23205,,,,,,,,,,,422.4852,1.4,423.8812,423.8812,424.4188,left,1,0.5368,,424.4188,425.4191,5,6,46,0,1,total,1,images/Ex1.jpg,left,training,easy,2,,,,,
,,,,,60e3b450cc89a0046b21c5bc,001,42,male,British,BA (Hons),2024-02-26_15h38.46.236,CRL1e,2023.2.3,Win32,163.9344262,65dbad3905fde4fe1981dc61,65dcb0653076d70c85c23205,,,,,,,,,,,425.4192,0.8,426.2193,426.2193,426.754,right,1,0.5341,,426.754,427.753,5,7,47,5,1,total,1,images/Ex3.jpg,right,training,easy,2,,,,,
,,,,,60e3b450cc89a0046b21c5bc,001,42,male,British,BA (Hons),2024-02-26_15h38.46.236,CRL1e,2023.2.3,Win32,163.9344262,65dbad3905fde4fe1981dc61,65dcb0653076d70c85c23205,,,,,,,,,,,427.7544,1,428.7534,428.7534,429.2989,left,0,0.5444,,429.2989,430.2992,0,0,0,3,1,total,2,images/Ex2.jpg,right,reversed,easy,2,,,,,
,,,,,60e3b450cc89a0046b21c5bc,001,42,male,British,BA (Hons),2024-02-26_15h38.46.236,CRL1e,2023.2.3,Win32,163.9344262,65dbad3905fde4fe1981dc61,65dcb0653076d70c85c23205,,,,,,,,,,,430.2993,0.9,431.1965,431.1966,431.851,right,1,0.6496,,431.851,432.8515,0,1,1,0,1,total,2,images/Ex1.jpg,right,reversed,easy,2,,,,,
,,,,,60e3b450cc89a0046b21c5bc,001,42,male,British,BA (Hons),2024-02-26_15h38.46.236,CRL1e,2023.2.3,Win32,163.9344262,65dbad3905fde4fe1981dc61,65dcb0653076d70c85c23205,,,,,,,,,,,432.8517,0.5,433.3484,433.3484,434.0334,right,0,0.6822,,434.0335,435.0337,0,2,2,6,1,total,2,images/Ex4.jpg,left,reversed,easy,2,,,,,
,,,,,60e3b450cc89a0046b21c5bc,001,42,male,British,BA (Hons),2024-02-26_15h38.46.236,CRL1e,2023.2.3,Win32,163.9344262,65dbad3905fde4fe1981dc61,65dcb0653076d70c85c23205,,,,,,,,,,,435.034,0.6,435.6338,435.6339,436.5856,right,0,0.9491,,436.5856,437.5859,0,3,3,5,1,total,2,images/Ex3.jpg,left,reversed,easy,2,,,,,
,,,,,60e3b450cc89a0046b21c5bc,001,42,male,British,BA (Hons),2024-02-26_15h38.46.236,CRL1e,2023.2.3,Win32,163.9344262,65dbad3905fde4fe1981dc61,65dcb0653076d70c85c23205,,,,,,,,,,,437.586,1.4,438.9864,438.9864,439.7562,right,0,0.7674,,439.7562,440.7565,0,4,4,7,1,total,2,images/Ex4.jpg,left,reversed,easy,2,,,,,
,,,,,60e3b450cc89a0046b21c5bc,001,42,male,British,BA (Hons),2024-02-26_15h38.46.236,CRL1e,2023.2.3,Win32,163.9344262,65dbad3905fde4fe1981dc61,65dcb0653076d70c85c23205,,,,,,,,,,,440.7569,0.6,441.3575,441.3575,442.0355,left,0,0.6775,,442.0356,443.0357,0,5,5,2,1,total,2,images/Ex2.jpg,right,reversed,easy,2,,,,,
,,,,,60e3b450cc89a0046b21c5bc,001,42,male,British,BA (Hons),2024-02-26_15h38.46.236,CRL1e,2023.2.3,Win32,163.9344262,65dbad3905fde4fe1981dc61,65dcb0653076d70c85c23205,,,,,,,,,,,443.036,0.6,443.6359,443.636,444.7517,right,1,1.111,,444.7517,445.7516,0,6,6,1,1,total,2,images/Ex1.jpg,right,reversed,easy,2,,,,,
,,,,,60e3b450cc89a0046b21c5bc,001,42,male,British,BA (Hons),2024-02-26_15h38.46.236,CRL1e,2023.2.3,Win32,163.9344262,65dbad3905fde4fe1981dc61,65dcb0653076d70c85c23205,,,,,,,,,,,445.7519,1,446.7529,446.7529,447.2611,left,1,0.5041,,447.2611,448.2624,0,7,7,4,1,total,2,images/Ex3.jpg,left,reversed,easy,2,,,,,
,,,,,60e3b450cc89a0046b21c5bc,001,42,male,British,BA (Hons),2024-02-26_15h38.46.236,CRL1e,2023.2.3,Win32,163.9344262,65dbad3905fde4fe1981dc61,65dcb0653076d70c85c23205,,,,,,,,,,,448.2627,0.6,448.8622,448.8622,449.4264,left,1,0.5637,,449.4265,450.4268,1,0,8,7,1,total,2,images/Ex4.jpg,left,reversed,easy,2,,,,,
,,,,,60e3b450cc89a0046b21c5bc,001,42,male,British,BA (Hons),2024-02-26_15h38.46.236,CRL1e,2023.2.3,Win32,163.9344262,65dbad3905fde4fe1981dc61,65dcb0653076d70c85c23205,,,,,,,,,,,450.4271,0.8,451.2265,451.2265,451.9972,right,1,0.77,,451.9972,452.9959,1,1,9,0,1,total,2,images/Ex1.jpg,right,reversed,easy,2,,,,,
,,,,,60e3b450cc89a0046b21c5bc,001,42,male,British,BA (Hons),2024-02-26_15h38.46.236,CRL1e,2023.2.3,Win32,163.9344262,65dbad3905fde4fe1981dc61,65dcb0653076d70c85c23205,,,,,,,,,,,452.9961,1.4,454.3963,454.3964,454.9783,left,1,0.5769,,454.9785,455.9786,1,2,10,5,1,total,2,images/Ex3.jpg,left,reversed,easy,2,,,,,
,,,,,60e3b450cc89a0046b21c5bc,001,42,male,British,BA (Hons),2024-02-26_15h38.46.236,CRL1e,2023.2.3,Win32,163.9344262,65dbad3905fde4fe1981dc61,65dcb0653076d70c85c23205,,,,,,,,,,,455.9788,0.7,456.6758,456.6758,457.1074,left,1,0.4311,,457.1075,458.1065,1,3,11,4,1,total,2,images/Ex3.jpg,left,reversed,easy,2,,,,,
,,,,,60e3b450cc89a0046b21c5bc,001,42,male,British,BA (Hons),2024-02-26_15h38.46.236,CRL1e,2023.2.3,Win32,163.9344262,65dbad3905fde4fe1981dc61,65dcb0653076d70c85c23205,,,,,,,,,,,458.1067,0.6,458.7066,458.7066,459.6098,right,1,0.8982,,459.6099,460.61,1,4,12,2,1,total,2,images/Ex2.jpg,right,reversed,easy,2,,,,,
,,,,,60e3b450cc89a0046b21c5bc,001,42,male,British,BA (Hons),2024-02-26_15h38.46.236,CRL1e,2023.2.3,Win32,163.9344262,65dbad3905fde4fe1981dc61,65dcb0653076d70c85c23205,,,,,,,,,,,460.6103,1.1,461.7073,461.7073,462.3621,right,1,0.6514,,462.3621,463.3624,1,5,13,1,1,total,2,images/Ex1.jpg,right,reversed,easy,2,,,,,
,,,,,60e3b450cc89a0046b21c5bc,001,42,male,British,BA (Hons),2024-02-26_15h38.46.236,CRL1e,2023.2.3,Win32,163.9344262,65dbad3905fde4fe1981dc61,65dcb0653076d70c85c23205,,,,,,,,,,,463.3626,0.6,463.9634,463.9635,464.787,left,1,0.8185,,464.787,465.7872,1,6,14,6,1,total,2,images/Ex4.jpg,left,reversed,easy,2,,,,,
,,,,,60e3b450cc89a0046b21c5bc,001,42,male,British,BA (Hons),2024-02-26_15h38.46.236,CRL1e,2023.2.3,Win32,163.9344262,65dbad3905fde4fe1981dc61,65dcb0653076d70c85c23205,,,,,,,,,,,465.7874,0.8,466.5876,466.5877,467.1281,left,0,0.5397,,467.1281,468.1272,1,7,15,3,1,total,2,images/Ex2.jpg,right,reversed,easy,2,,,,,
,,,,,60e3b450cc89a0046b21c5bc,001,42,male,British,BA (Hons),2024-02-26_15h38.46.236,CRL1e,2023.2.3,Win32,163.9344262,65dbad3905fde4fe1981dc61,65dcb0653076d70c85c23205,,,,,,,,,,,468.1273,1.4,469.5283,469.5283,470.2368,left,1,0.7058,,470.2369,471.237,2,0,16,7,1,total,2,images/Ex4.jpg,left,reversed,easy,2,,,,,
,,,,,60e3b450cc89a0046b21c5bc,001,42,male,British,BA (Hons),2024-02-26_15h38.46.236,CRL1e,2023.2.3,Win32,163.9344262,65dbad3905fde4fe1981dc61,65dcb0653076d70c85c23205,,,,,,,,,,,471.2373,1.2,472.4374,472.4374,472.9891,right,1,0.5484,,472.9891,473.9892,2,1,17,3,1,total,2,images/Ex2.jpg,right,reversed,easy,2,,,,,
,,,,,60e3b450cc89a0046b21c5bc,001,42,male,British,BA (Hons),2024-02-26_15h38.46.236,CRL1e,2023.2.3,Win32,163.9344262,65dbad3905fde4fe1981dc61,65dcb0653076d70c85c23205,,,,,,,,,,,473.9897,0.7,474.6874,474.6875,475.4758,left,0,0.7876,,475.4758,476.4748,2,2,18,1,1,total,2,images/Ex1.jpg,right,reversed,easy,2,,,,,
,,,,,60e3b450cc89a0046b21c5bc,001,42,male,British,BA (Hons),2024-02-26_15h38.46.236,CRL1e,2023.2.3,Win32,163.9344262,65dbad3905fde4fe1981dc61,65dcb0653076d70c85c23205,,,,,,,,,,,476.4751,1.1,477.5721,477.5721,479.3848,left,1,1.8087,,479.3848,480.3859,2,3,19,4,1,total,2,images/Ex3.jpg,left,reversed,easy,2,,,,,
,,,,,60e3b450cc89a0046b21c5bc,001,42,male,British,BA (Hons),2024-02-26_15h38.46.236,CRL1e,2023.2.3,Win32,163.9344262,65dbad3905fde4fe1981dc61,65dcb0653076d70c85c23205,,,,,,,,,,,480.3862,1.3,481.6822,481.6822,482.537,right,1,0.8507,,482.537,483.5373,2,4,20,0,1,total,2,images/Ex1.jpg,right,reversed,easy,2,,,,,
,,,,,60e3b450cc89a0046b21c5bc,001,42,male,British,BA (Hons),2024-02-26_15h38.46.236,CRL1e,2023.2.3,Win32,163.9344262,65dbad3905fde4fe1981dc61,65dcb0653076d70c85c23205,,,,,,,,,,,483.5375,1,484.5385,484.5385,485.3755,left,1,0.8364,,485.3755,486.3756,2,5,21,6,1,total,2,images/Ex4.jpg,left,reversed,easy,2,,,,,
,,,,,60e3b450cc89a0046b21c5bc,001,42,male,British,BA (Hons),2024-02-26_15h38.46.236,CRL1e,2023.2.3,Win32,163.9344262,65dbad3905fde4fe1981dc61,65dcb0653076d70c85c23205,,,,,,,,,,,486.3758,1.5,487.8716,487.8716,488.5264,left,1,0.6497,,488.5264,489.5267,2,6,22,5,1,total,2,images/Ex3.jpg,left,reversed,easy,2,,,,,
,,,,,60e3b450cc89a0046b21c5bc,001,42,male,British,BA (Hons),2024-02-26_15h38.46.236,CRL1e,2023.2.3,Win32,163.9344262,65dbad3905fde4fe1981dc61,65dcb0653076d70c85c23205,,,,,,,,,,,489.5269,1.5,491.0239,491.024,491.8546,right,1,0.828,,491.8547,492.8547,2,7,23,2,1,total,2,images/Ex2.jpg,right,reversed,easy,2,,,,,
,,,,,60e3b450cc89a0046b21c5bc,001,42,male,British,BA (Hons),2024-02-26_15h38.46.236,CRL1e,2023.2.3,Win32,163.9344262,65dbad3905fde4fe1981dc61,65dcb0653076d70c85c23205,,,,,,,,,,,492.8551,0.6,493.4549,493.4549,494.3158,left,1,0.8581,,494.3158,495.3169,3,0,24,6,1,total,2,images/Ex4.jpg,left,reversed,easy,2,,,,,
,,,,,60e3b450cc89a0046b21c5bc,001,42,male,British,BA (Hons),2024-02-26_15h38.46.236,CRL1e,2023.2.3,Win32,163.9344262,65dbad3905fde4fe1981dc61,65dcb0653076d70c85c23205,,,,,,,,,,,495.3172,1.1,496.4144,496.4144,496.874,left,1,0.4566,,496.874,497.8754,3,1,25,7,1,total,2,images/Ex4.jpg,left,reversed,easy,2,,,,,
,,,,,60e3b450cc89a0046b21c5bc,001,42,male,British,BA (Hons),2024-02-26_15h38.46.236,CRL1e,2023.2.3,Win32,163.9344262,65dbad3905fde4fe1981dc61,65dcb0653076d70c85c23205,,,,,,,,,,,497.8757,1.4,499.2747,499.2747,499.699,left,1,0.422,,499.699,500.6993,3,2,26,4,1,total,2,images/Ex3.jpg,left,reversed,easy,2,,,,,
,,,,,60e3b450cc89a0046b21c5bc,001,42,male,British,BA (Hons),2024-02-26_15h38.46.236,CRL1e,2023.2.3,Win32,163.9344262,65dbad3905fde4fe1981dc61,65dcb0653076d70c85c23205,,,,,,,,,,,500.6994,1.1,501.7965,501.7965,502.4997,right,1,0.6979,,502.4997,503.5,3,3,27,2,1,total,2,images/Ex2.jpg,right,reversed,easy,2,,,,,
,,,,,60e3b450cc89a0046b21c5bc,001,42,male,British,BA (Hons),2024-02-26_15h38.46.236,CRL1e,2023.2.3,Win32,163.9344262,65dbad3905fde4fe1981dc61,65dcb0653076d70c85c23205,,,,,,,,,,,503.5003,0.5,503.9977,503.9977,504.4288,right,1,0.4306,,504.4288,505.4279,3,4,28,3,1,total,2,images/Ex2.jpg,right,reversed,easy,2,,,,,
,,,,,60e3b450cc89a0046b21c5bc,001,42,male,British,BA (Hons),2024-02-26_15h38.46.236,CRL1e,2023.2.3,Win32,163.9344262,65dbad3905fde4fe1981dc61,65dcb0653076d70c85c23205,,,,,,,,,,,505.4286,0.6,506.0279,506.0279,506.3797,right,0,0.3512,,506.3797,507.3797,3,5,29,5,1,total,2,images/Ex3.jpg,left,reversed,easy,2,,,,,
,,,,,60e3b450cc89a0046b21c5bc,001,42,male,British,BA (Hons),2024-02-26_15h38.46.236,CRL1e,2023.2.3,Win32,163.9344262,65dbad3905fde4fe1981dc61,65dcb0653076d70c85c23205,,,,,,,,,,,507.3801,1.3,508.677,508.677,509.8289,right,1,1.1468,,509.8289,510.8292,3,6,30,0,1,total,2,images/Ex1.jpg,right,reversed,easy,2,,,,,
,,,,,60e3b450cc89a0046b21c5bc,001,42,male,British,BA (Hons),2024-02-26_15h38.46.236,CRL1e,2023.2.3,Win32,163.9344262,65dbad3905fde4fe1981dc61,65dcb0653076d70c85c23205,,,,,,,,,,,510.8297,0.7,511.5264,511.5265,512.4297,right,1,0.9013,,512.4297,513.4298,3,7,31,1,1,total,2,images/Ex1.jpg,right,reversed,easy,2,,,,,
,,,,,60e3b450cc89a0046b21c5bc,001,42,male,British,BA (Hons),2024-02-26_15h38.46.236,CRL1e,2023.2.3,Win32,163.9344262,65dbad3905fde4fe1981dc61,65dcb0653076d70c85c23205,,,,,,,,,,,513.4301,1.3,514.7271,514.7271,515.3637,left,1,0.6358,,515.3637,516.3638,4,0,32,5,1,total,2,images/Ex3.jpg,left,reversed,easy,2,,,,,
,,,,,60e3b450cc89a0046b21c5bc,001,42,male,British,BA (Hons),2024-02-26_15h38.46.236,CRL1e,2023.2.3,Win32,163.9344262,65dbad3905fde4fe1981dc61,65dcb0653076d70c85c23205,,,,,,,,,,,516.3639,1.2,517.5641,517.5641,518.5342,right,1,0.9687,,518.5342,519.5344,4,1,33,1,1,total,2,images/Ex1.jpg,right,reversed,easy,2,,,,,
,,,,,60e3b450cc89a0046b21c5bc,001,42,male,British,BA (Hons),2024-02-26_15h38.46.236,CRL1e,2023.2.3,Win32,163.9344262,65dbad3905fde4fe1981dc61,65dcb0653076d70c85c23205,,,,,,,,,,,519.5347,0.5,520.0314,520.0315,521.1349,left,1,1.0992,,521.1349,522.1351,4,2,34,6,1,total,2,images/Ex4.jpg,left,reversed,easy,2,,,,,
,,,,,60e3b450cc89a0046b21c5bc,001,42,male,British,BA (Hons),2024-02-26_15h38.46.236,CRL1e,2023.2.3,Win32,163.9344262,65dbad3905fde4fe1981dc61,65dcb0653076d70c85c23205,,,,,,,,,,,522.1355,0.6,522.7353,522.7353,523.4506,left,1,0.7134,,523.4506,524.452,4,3,35,4,1,total,2,images/Ex3.jpg,left,reversed,easy,2,,,,,
,,,,,60e3b450cc89a0046b21c5bc,001,42,male,British,BA (Hons),2024-02-26_15h38.46.236,CRL1e,2023.2.3,Win32,163.9344262,65dbad3905fde4fe1981dc61,65dcb0653076d70c85c23205,,,,,,,,,,,524.4522,1.1,525.5481,525.5481,526.2514,left,0,0.698,,526.2514,527.2516,4,4,36,0,1,total,2,images/Ex1.jpg,right,reversed,easy,2,,,,,
,,,,,60e3b450cc89a0046b21c5bc,001,42,male,British,BA (Hons),2024-02-26_15h38.46.236,CRL1e,2023.2.3,Win32,163.9344262,65dbad3905fde4fe1981dc61,65dcb0653076d70c85c23205,,,,,,,,,,,527.2518,0.9,528.1487,528.1487,529.0157,right,1,0.8661,,529.0157,530.0159,4,5,37,3,1,total,2,images/Ex2.jpg,right,reversed,easy,2,,,,,
,,,,,60e3b450cc89a0046b21c5bc,001,42,male,British,BA (Hons),2024-02-26_15h38.46.236,CRL1e,2023.2.3,Win32,163.9344262,65dbad3905fde4fe1981dc61,65dcb0653076d70c85c23205,,,,,,,,,,,530.0162,0.6,530.6173,530.6173,531.5618,right,1,0.9437,,531.5618,532.5621,4,6,38,2,1,total,2,images/Ex2.jpg,right,reversed,easy,2,,,,,
,,,,,60e3b450cc89a0046b21c5bc,001,42,male,British,BA (Hons),2024-02-26_15h38.46.236,CRL1e,2023.2.3,Win32,163.9344262,65dbad3905fde4fe1981dc61,65dcb0653076d70c85c23205,,,,,,,,,,,532.5622,0.9,533.4592,533.4592,534.4489,right,0,0.9889,,534.4489,535.4487,4,7,39,7,1,total,2,images/Ex4.jpg,left,reversed,easy,2,,,,,
,,,,,60e3b450cc89a0046b21c5bc,001,42,male,British,BA (Hons),2024-02-26_15h38.46.236,CRL1e,2023.2.3,Win32,163.9344262,65dbad3905fde4fe1981dc61,65dcb0653076d70c85c23205,,,,,,,,,,,535.4489,1.2,536.6489,536.649,538.2675,right,1,1.6179,,538.2676,539.2668,5,0,40,0,1,total,2,images/Ex1.jpg,right,reversed,easy,2,,,,,
,,,,,60e3b450cc89a0046b21c5bc,001,42,male,British,BA (Hons),2024-02-26_15h38.46.236,CRL1e,2023.2.3,Win32,163.9344262,65dbad3905fde4fe1981dc61,65dcb0653076d70c85c23205,,,,,,,,,,,539.2715,1.3,540.5702,540.5702,541.4371,left,1,0.8625,,541.4372,542.4373,5,1,41,5,1,total,2,images/Ex3.jpg,left,reversed,easy,2,,,,,
,,,,,60e3b450cc89a0046b21c5bc,001,42,male,British,BA (Hons),2024-02-26_15h38.46.236,CRL1e,2023.2.3,Win32,163.9344262,65dbad3905fde4fe1981dc61,65dcb0653076d70c85c23205,,,,,,,,,,,542.4375,1,543.4375,543.4376,544.2198,left,0,0.7813,,544.2198,545.2199,5,2,42,1,1,total,2,images/Ex1.jpg,right,reversed,easy,2,,,,,
,,,,,60e3b450cc89a0046b21c5bc,001,42,male,British,BA (Hons),2024-02-26_15h38.46.236,CRL1e,2023.2.3,Win32,163.9344262,65dbad3905fde4fe1981dc61,65dcb0653076d70c85c23205,,,,,,,,,,,545.2201,1,546.2201,546.2202,546.881,left,1,0.6586,,546.881,547.8811,5,3,43,4,1,total,2,images/Ex3.jpg,left,reversed,easy,2,,,,,
,,,,,60e3b450cc89a0046b21c5bc,001,42,male,British,BA (Hons),2024-02-26_15h38.46.236,CRL1e,2023.2.3,Win32,163.9344262,65dbad3905fde4fe1981dc61,65dcb0653076d70c85c23205,,,,,,,,,,,547.8813,0.8,548.6813,548.6813,549.2331,right,1,0.5505,,549.2331,550.2333,5,4,44,3,1,total,2,images/Ex2.jpg,right,reversed,easy,2,,,,,
,,,,,60e3b450cc89a0046b21c5bc,001,42,male,British,BA (Hons),2024-02-26_15h38.46.236,CRL1e,2023.2.3,Win32,163.9344262,65dbad3905fde4fe1981dc61,65dcb0653076d70c85c23205,,,,,,,,,,,550.2335,1.4,551.6337,551.6337,552.4339,right,1,0.7955,,552.4339,553.4341,5,5,45,2,1,total,2,images/Ex2.jpg,right,reversed,easy,2,,,,,
,,,,,60e3b450cc89a0046b21c5bc,001,42,male,British,BA (Hons),2024-02-26_15h38.46.236,CRL1e,2023.2.3,Win32,163.9344262,65dbad3905fde4fe1981dc61,65dcb0653076d70c85c23205,,,,,,,,,,,553.4344,0.8,554.2344,554.2344,555.0165,left,1,0.7816,,555.0166,556.0171,5,6,46,7,1,total,2,images/Ex4.jpg,left,reversed,easy,2,,,,,
,,,,,60e3b450cc89a0046b21c5bc,001,42,male,British,BA (Hons),2024-02-26_15h38.46.236,CRL1e,2023.2.3,Win32,163.9344262,65dbad3905fde4fe1981dc61,65dcb0653076d70c85c23205,,,,,,,,,,,556.0177,0.9,556.9139,556.9139,557.4533,left,1,0.5381,,557.4533,558.4537,5,7,47,6,1,total,2,images/Ex4.jpg,left,reversed,easy,2,,,,,
,,,,,60e3b450cc89a0046b21c5bc,001,42,male,British,BA (Hons),2024-02-26_15h38.46.236,CRL1e,2023.2.3,Win32,163.9344262,65dbad3905fde4fe1981dc61,65dcb0653076d70c85c23205,,,,,,,,,,,,,,,,,,,,,,,,,,,,,,,,,,558.4542,607.885,space,49.4166,