infCons.started,infCons.stopped,resp_consent.keys,resp_consent.rt,resp_consent.duration,participant,session,Age?,Gender?,Nationality?,Highest Educational Degree?,date,expName,psychopyVersion,OS,frameRate,STUDY_ID,SESSION_ID,instructions.started,instructions.stopped,resp_instructions.keys,resp_instructions.rt,resp_instructions.duration,nextTask.started,nextTask.stopped,ready_task.keys,ready_task.rt,ready_task.duration,fixation.started,ITI,fixation.stopped,stim.started,stim.stopped,response.keys,response.corr,response.rt,response.duration,feedback.started,feedback.stopped,trials.thisRepN,trials.thisTrialN,trials.thisN,trials.thisIndex,trials.ran,task,phase,Exemplars,r_correct,condition,difficulty,set,end.started,end.stopped,resp_end.keys,resp_end.rt,resp_end.duration
0.0005,3.2833,space,3.2124,,629e1422d8de28b42ae1a214,001,,,,,2024-02-25_21h15.58.704,CRL1e,2023.2.3,Linux x86_64,59.88023952,65dbad3905fde4fe1981dc61,65dbae047ec91fe17a7148d3,,,,,,,,,,,,,,,,,,,,,,,,,,,,,,,,,,,,,,
,,,,,629e1422d8de28b42ae1a214,001,,,,,2024-02-25_21h15.58.704,CRL1e,2023.2.3,Linux x86_64,59.88023952,65dbad3905fde4fe1981dc61,65dbae047ec91fe17a7148d3,3.2837,31.9235,space,28.62,,,,,,,,,,,,,,,,,,,,,,,,,,,,,,,,,,
,,,,,629e1422d8de28b42ae1a214,001,,,,,2024-02-25_21h15.58.704,CRL1e,2023.2.3,Linux x86_64,59.88023952,65dbad3905fde4fe1981dc61,65dbae047ec91fe17a7148d3,,,,,,31.9298,34.7929,space,2.8408,,34.8005,0.5,35.293,35.2932,41.3159,left,1,6.0118,,41.3166,42.3156,0,0,0,3,1,partial,1,images/Ex6.jpg,left,training,easy,1,,,,,
,,,,,629e1422d8de28b42ae1a214,001,,,,,2024-02-25_21h15.58.704,CRL1e,2023.2.3,Linux x86_64,59.88023952,65dbad3905fde4fe1981dc61,65dbae047ec91fe17a7148d3,,,,,,,,,,,42.3167,1.4,43.7164,43.7165,45.2678,right,0,1.544,,45.2679,46.2685,0,1,1,1,1,partial,1,images/Ex5.jpg,left,training,easy,1,,,,,
,,,,,629e1422d8de28b42ae1a214,001,,,,,2024-02-25_21h15.58.704,CRL1e,2023.2.3,Linux x86_64,59.88023952,65dbad3905fde4fe1981dc61,65dbae047ec91fe17a7148d3,,,,,,,,,,,46.2691,0.8,47.069,47.069,48.2538,right,1,1.1777,,48.2538,49.2543,0,2,2,5,1,partial,1,images/Ex7.jpg,right,training,easy,1,,,,,
,,,,,629e1422d8de28b42ae1a214,001,,,,,2024-02-25_21h15.58.704,CRL1e,2023.2.3,Linux x86_64,59.88023952,65dbad3905fde4fe1981dc61,65dbae047ec91fe17a7148d3,,,,,,,,,,,49.2548,0.8,50.055,50.0551,50.8057,left,1,0.7422,,50.8057,51.8065,0,3,3,2,1,partial,1,images/Ex6.jpg,left,training,easy,1,,,,,
,,,,,629e1422d8de28b42ae1a214,001,,,,,2024-02-25_21h15.58.704,CRL1e,2023.2.3,Linux x86_64,59.88023952,65dbad3905fde4fe1981dc61,65dbae047ec91fe17a7148d3,,,,,,,,,,,51.8071,0.8,52.6075,52.6077,53.5581,right,0,0.9454,,53.5582,54.5632,0,4,4,0,1,partial,1,images/Ex5.jpg,left,training,easy,1,,,,,
,,,,,629e1422d8de28b42ae1a214,001,,,,,2024-02-25_21h15.58.704,CRL1e,2023.2.3,Linux x86_64,59.88023952,65dbad3905fde4fe1981dc61,65dbae047ec91fe17a7148d3,,,,,,,,,,,54.5636,0.8,55.3604,55.3605,56.3271,right,1,0.9619,,56.3274,57.3277,0,5,5,4,1,partial,1,images/Ex7.jpg,right,training,easy,1,,,,,
,,,,,629e1422d8de28b42ae1a214,001,,,,,2024-02-25_21h15.58.704,CRL1e,2023.2.3,Linux x86_64,59.88023952,65dbad3905fde4fe1981dc61,65dbae047ec91fe17a7148d3,,,,,,,,,,,57.3281,1,58.3286,58.3287,58.8961,left,0,0.5632,,58.8961,59.8968,0,6,6,6,1,partial,1,images/Ex8.jpg,right,training,easy,1,,,,,
,,,,,629e1422d8de28b42ae1a214,001,,,,,2024-02-25_21h15.58.704,CRL1e,2023.2.3,Linux x86_64,59.88023952,65dbad3905fde4fe1981dc61,65dbae047ec91fe17a7148d3,,,,,,,,,,,59.8974,0.6,60.4973,60.4974,61.2644,right,1,0.7633,,61.2645,62.2652,0,7,7,7,1,partial,1,images/Ex8.jpg,right,training,easy,1,,,,,
,,,,,629e1422d8de28b42ae1a214,001,,,,,2024-02-25_21h15.58.704,CRL1e,2023.2.3,Linux x86_64,59.88023952,65dbad3905fde4fe1981dc61,65dbae047ec91fe17a7148d3,,,,,,,,,,,62.2656,1.1,63.3661,63.3661,64.2671,right,0,0.8937,,64.2671,65.2679,1,0,8,3,1,partial,1,images/Ex6.jpg,left,training,easy,1,,,,,
,,,,,629e1422d8de28b42ae1a214,001,,,,,2024-02-25_21h15.58.704,CRL1e,2023.2.3,Linux x86_64,59.88023952,65dbad3905fde4fe1981dc61,65dbae047ec91fe17a7148d3,,,,,,,,,,,65.2685,1.4,66.6686,66.6687,67.6199,left,0,0.9449,,67.62,68.6206,1,1,9,7,1,partial,1,images/Ex8.jpg,right,training,easy,1,,,,,
,,,,,629e1422d8de28b42ae1a214,001,,,,,2024-02-25_21h15.58.704,CRL1e,2023.2.3,Linux x86_64,59.88023952,65dbad3905fde4fe1981dc61,65dbae047ec91fe17a7148d3,,,,,,,,,,,68.6212,0.8,69.4211,69.4211,70.0381,right,1,0.609,,70.0382,71.0391,1,2,10,6,1,partial,1,images/Ex8.jpg,right,training,easy,1,,,,,
,,,,,629e1422d8de28b42ae1a214,001,,,,,2024-02-25_21h15.58.704,CRL1e,2023.2.3,Linux x86_64,59.88023952,65dbad3905fde4fe1981dc61,65dbae047ec91fe17a7148d3,,,,,,,,,,,71.0397,0.7,71.7397,71.7398,72.574,right,0,0.8258,,72.574,73.5745,1,3,11,0,1,partial,1,images/Ex5.jpg,left,training,easy,1,,,,,
,,,,,629e1422d8de28b42ae1a214,001,,,,,2024-02-25_21h15.58.704,CRL1e,2023.2.3,Linux x86_64,59.88023952,65dbad3905fde4fe1981dc61,65dbae047ec91fe17a7148d3,,,,,,,,,,,73.5749,1.1,74.6753,74.6754,75.4429,left,1,0.7615,,75.4429,76.4437,1,4,12,2,1,partial,1,images/Ex6.jpg,left,training,easy,1,,,,,
,,,,,629e1422d8de28b42ae1a214,001,,,,,2024-02-25_21h15.58.704,CRL1e,2023.2.3,Linux x86_64,59.88023952,65dbad3905fde4fe1981dc61,65dbae047ec91fe17a7148d3,,,,,,,,,,,76.4442,1,77.4445,77.4445,78.2286,right,1,0.777,,78.2286,79.2293,1,5,13,5,1,partial,1,images/Ex7.jpg,right,training,easy,1,,,,,
,,,,,629e1422d8de28b42ae1a214,001,,,,,2024-02-25_21h15.58.704,CRL1e,2023.2.3,Linux x86_64,59.88023952,65dbad3905fde4fe1981dc61,65dbae047ec91fe17a7148d3,,,,,,,,,,,79.2302,1.4,80.6304,80.6305,81.2645,left,1,0.6306,,81.2646,82.2649,1,6,14,1,1,partial,1,images/Ex5.jpg,left,training,easy,1,,,,,
,,,,,629e1422d8de28b42ae1a214,001,,,,,2024-02-25_21h15.58.704,CRL1e,2023.2.3,Linux x86_64,59.88023952,65dbad3905fde4fe1981dc61,65dbae047ec91fe17a7148d3,,,,,,,,,,,82.2654,1.1,83.3659,83.3659,84.0167,right,1,0.646,,84.0168,85.0174,1,7,15,4,1,partial,1,images/Ex7.jpg,right,training,easy,1,,,,,
,,,,,629e1422d8de28b42ae1a214,001,,,,,2024-02-25_21h15.58.704,CRL1e,2023.2.3,Linux x86_64,59.88023952,65dbad3905fde4fe1981dc61,65dbae047ec91fe17a7148d3,,,,,,,,,,,85.0178,0.8,85.8181,85.8182,86.3519,left,1,0.5269,,86.352,87.3529,2,0,16,0,1,partial,1,images/Ex5.jpg,left,training,easy,1,,,,,
,,,,,629e1422d8de28b42ae1a214,001,,,,,2024-02-25_21h15.58.704,CRL1e,2023.2.3,Linux x86_64,59.88023952,65dbad3905fde4fe1981dc61,65dbae047ec91fe17a7148d3,,,,,,,,,,,87.3533,1.3,88.6537,88.6538,89.1377,left,0,0.477,,89.1378,90.1384,2,1,17,4,1,partial,1,images/Ex7.jpg,right,training,easy,1,,,,,
,,,,,629e1422d8de28b42ae1a214,001,,,,,2024-02-25_21h15.58.704,CRL1e,2023.2.3,Linux x86_64,59.88023952,65dbad3905fde4fe1981dc61,65dbae047ec91fe17a7148d3,,,,,,,,,,,90.1388,1.1,91.2391,91.2391,91.7065,left,1,0.4632,,91.7066,92.7072,2,2,18,2,1,partial,1,images/Ex6.jpg,left,training,easy,1,,,,,
,,,,,629e1422d8de28b42ae1a214,001,,,,,2024-02-25_21h15.58.704,CRL1e,2023.2.3,Linux x86_64,59.88023952,65dbad3905fde4fe1981dc61,65dbae047ec91fe17a7148d3,,,,,,,,,,,92.7076,0.8,93.5078,93.5079,94.0416,right,1,0.5284,,94.0416,95.0425,2,3,19,7,1,partial,1,images/Ex8.jpg,right,training,easy,1,,,,,
,,,,,629e1422d8de28b42ae1a214,001,,,,,2024-02-25_21h15.58.704,CRL1e,2023.2.3,Linux x86_64,59.88023952,65dbad3905fde4fe1981dc61,65dbae047ec91fe17a7148d3,,,,,,,,,,,95.043,1.4,96.4437,96.4438,97.261,left,1,0.8105,,97.261,98.2617,2,4,20,1,1,partial,1,images/Ex5.jpg,left,training,easy,1,,,,,
,,,,,629e1422d8de28b42ae1a214,001,,,,,2024-02-25_21h15.58.704,CRL1e,2023.2.3,Linux x86_64,59.88023952,65dbad3905fde4fe1981dc61,65dbae047ec91fe17a7148d3,,,,,,,,,,,98.2622,0.9,99.1625,99.1626,100.3471,right,0,1.1783,,100.3471,101.3486,2,5,21,3,1,partial,1,images/Ex6.jpg,left,training,easy,1,,,,,
,,,,,629e1422d8de28b42ae1a214,001,,,,,2024-02-25_21h15.58.704,CRL1e,2023.2.3,Linux x86_64,59.88023952,65dbad3905fde4fe1981dc61,65dbae047ec91fe17a7148d3,,,,,,,,,,,101.349,0.9,102.2486,102.2487,102.8823,left,0,0.6273,,102.8823,103.8831,2,6,22,6,1,partial,1,images/Ex8.jpg,right,training,easy,1,,,,,
,,,,,629e1422d8de28b42ae1a214,001,,,,,2024-02-25_21h15.58.704,CRL1e,2023.2.3,Linux x86_64,59.88023952,65dbad3905fde4fe1981dc61,65dbae047ec91fe17a7148d3,,,,,,,,,,,103.8836,1.2,105.0841,105.0841,105.7183,left,0,0.6321,,105.7183,106.7188,2,7,23,5,1,partial,1,images/Ex7.jpg,right,training,easy,1,,,,,
,,,,,629e1422d8de28b42ae1a214,001,,,,,2024-02-25_21h15.58.704,CRL1e,2023.2.3,Linux x86_64,59.88023952,65dbad3905fde4fe1981dc61,65dbae047ec91fe17a7148d3,,,,,,,,,,,106.7192,0.7,107.4194,107.4194,108.0199,right,0,0.5938,,108.0199,109.0208,3,0,24,1,1,partial,1,images/Ex5.jpg,left,training,easy,1,,,,,
,,,,,629e1422d8de28b42ae1a214,001,,,,,2024-02-25_21h15.58.704,CRL1e,2023.2.3,Linux x86_64,59.88023952,65dbad3905fde4fe1981dc61,65dbae047ec91fe17a7148d3,,,,,,,,,,,109.0213,1.5,110.5219,110.522,111.0059,right,0,0.4785,,111.006,112.0065,3,1,25,2,1,partial,1,images/Ex6.jpg,left,training,easy,1,,,,,
,,,,,629e1422d8de28b42ae1a214,001,,,,,2024-02-25_21h15.58.704,CRL1e,2023.2.3,Linux x86_64,59.88023952,65dbad3905fde4fe1981dc61,65dbae047ec91fe17a7148d3,,,,,,,,,,,112.0069,0.9,112.9072,112.9072,113.8581,right,1,0.9423,,113.8582,114.8589,3,2,26,5,1,partial,1,images/Ex7.jpg,right,training,easy,1,,,,,
,,,,,629e1422d8de28b42ae1a214,001,,,,,2024-02-25_21h15.58.704,CRL1e,2023.2.3,Linux x86_64,59.88023952,65dbad3905fde4fe1981dc61,65dbae047ec91fe17a7148d3,,,,,,,,,,,114.8593,1.3,116.1605,116.1605,116.5939,left,0,0.4294,,116.5939,117.5947,3,3,27,7,1,partial,1,images/Ex8.jpg,right,training,easy,1,,,,,
,,,,,629e1422d8de28b42ae1a214,001,,,,,2024-02-25_21h15.58.704,CRL1e,2023.2.3,Linux x86_64,59.88023952,65dbad3905fde4fe1981dc61,65dbae047ec91fe17a7148d3,,,,,,,,,,,117.5952,0.6,118.1952,118.1953,119.3461,left,1,1.1456,,119.3462,120.3468,3,4,28,3,1,partial,1,images/Ex6.jpg,left,training,easy,1,,,,,
,,,,,629e1422d8de28b42ae1a214,001,,,,,2024-02-25_21h15.58.704,CRL1e,2023.2.3,Linux x86_64,59.88023952,65dbad3905fde4fe1981dc61,65dbae047ec91fe17a7148d3,,,,,,,,,,,120.3472,1.4,121.7479,121.748,122.3319,right,0,0.5769,,122.332,123.3328,3,5,29,0,1,partial,1,images/Ex5.jpg,left,training,easy,1,,,,,
,,,,,629e1422d8de28b42ae1a214,001,,,,,2024-02-25_21h15.58.704,CRL1e,2023.2.3,Linux x86_64,59.88023952,65dbad3905fde4fe1981dc61,65dbae047ec91fe17a7148d3,,,,,,,,,,,123.3333,1.4,124.7338,124.7338,125.3013,left,0,0.5583,,125.3014,126.302,3,6,30,6,1,partial,1,images/Ex8.jpg,right,training,easy,1,,,,,
,,,,,629e1422d8de28b42ae1a214,001,,,,,2024-02-25_21h15.58.704,CRL1e,2023.2.3,Linux x86_64,59.88023952,65dbad3905fde4fe1981dc61,65dbae047ec91fe17a7148d3,,,,,,,,,,,126.3025,1.2,127.503,127.503,128.337,right,1,0.8274,,128.3371,129.3378,3,7,31,4,1,partial,1,images/Ex7.jpg,right,training,easy,1,,,,,
,,,,,629e1422d8de28b42ae1a214,001,,,,,2024-02-25_21h15.58.704,CRL1e,2023.2.3,Linux x86_64,59.88023952,65dbad3905fde4fe1981dc61,65dbae047ec91fe17a7148d3,,,,,,,,,,,129.3382,0.8,130.1383,130.1383,130.7387,left,0,0.594,,130.7387,131.7396,4,0,32,6,1,partial,1,images/Ex8.jpg,right,training,easy,1,,,,,
,,,,,629e1422d8de28b42ae1a214,001,,,,,2024-02-25_21h15.58.704,CRL1e,2023.2.3,Linux x86_64,59.88023952,65dbad3905fde4fe1981dc61,65dbae047ec91fe17a7148d3,,,,,,,,,,,131.7401,1.1,132.8405,132.8405,133.4081,right,1,0.5642,,133.4082,134.4085,4,1,33,4,1,partial,1,images/Ex7.jpg,right,training,easy,1,,,,,
,,,,,629e1422d8de28b42ae1a214,001,,,,,2024-02-25_21h15.58.704,CRL1e,2023.2.3,Linux x86_64,59.88023952,65dbad3905fde4fe1981dc61,65dbae047ec91fe17a7148d3,,,,,,,,,,,134.4089,1.4,135.8095,135.8096,136.3604,right,0,0.5452,,136.3605,137.3609,4,2,34,2,1,partial,1,images/Ex6.jpg,left,training,easy,1,,,,,
,,,,,629e1422d8de28b42ae1a214,001,,,,,2024-02-25_21h15.58.704,CRL1e,2023.2.3,Linux x86_64,59.88023952,65dbad3905fde4fe1981dc61,65dbae047ec91fe17a7148d3,,,,,,,,,,,137.3615,1.4,138.7625,138.7625,139.5462,right,1,0.7791,,139.5463,140.5469,4,3,35,5,1,partial,1,images/Ex7.jpg,right,training,easy,1,,,,,
,,,,,629e1422d8de28b42ae1a214,001,,,,,2024-02-25_21h15.58.704,CRL1e,2023.2.3,Linux x86_64,59.88023952,65dbad3905fde4fe1981dc61,65dbae047ec91fe17a7148d3,,,,,,,,,,,140.5473,0.7,141.2474,141.2475,141.8813,right,1,0.6307,,141.8813,142.8821,4,4,36,7,1,partial,1,images/Ex8.jpg,right,training,easy,1,,,,,
,,,,,629e1422d8de28b42ae1a214,001,,,,,2024-02-25_21h15.58.704,CRL1e,2023.2.3,Linux x86_64,59.88023952,65dbad3905fde4fe1981dc61,65dbae047ec91fe17a7148d3,,,,,,,,,,,142.8826,0.7,143.583,143.583,144.1832,left,1,0.5978,,144.1832,145.1843,4,5,37,0,1,partial,1,images/Ex5.jpg,left,training,easy,1,,,,,
,,,,,629e1422d8de28b42ae1a214,001,,,,,2024-02-25_21h15.58.704,CRL1e,2023.2.3,Linux x86_64,59.88023952,65dbad3905fde4fe1981dc61,65dbae047ec91fe17a7148d3,,,,,,,,,,,145.1849,1.4,146.5853,146.5853,147.0357,left,1,0.4447,,147.0358,148.0364,4,6,38,3,1,partial,1,images/Ex6.jpg,left,training,easy,1,,,,,
,,,,,629e1422d8de28b42ae1a214,001,,,,,2024-02-25_21h15.58.704,CRL1e,2023.2.3,Linux x86_64,59.88023952,65dbad3905fde4fe1981dc61,65dbae047ec91fe17a7148d3,,,,,,,,,,,148.0369,0.6,148.6369,148.637,149.2041,right,0,0.5599,,149.2041,150.205,4,7,39,1,1,partial,1,images/Ex5.jpg,left,training,easy,1,,,,,
,,,,,629e1422d8de28b42ae1a214,001,,,,,2024-02-25_21h15.58.704,CRL1e,2023.2.3,Linux x86_64,59.88023952,65dbad3905fde4fe1981dc61,65dbae047ec91fe17a7148d3,,,,,,,,,,,150.2055,1.1,151.3058,151.3059,152.1736,right,1,0.8664,,152.1736,153.174,5,0,40,7,1,partial,1,images/Ex8.jpg,right,training,easy,1,,,,,
,,,,,629e1422d8de28b42ae1a214,001,,,,,2024-02-25_21h15.58.704,CRL1e,2023.2.3,Linux x86_64,59.88023952,65dbad3905fde4fe1981dc61,65dbae047ec91fe17a7148d3,,,,,,,,,,,153.1744,1.5,154.6752,154.6753,155.2262,left,1,0.5455,,155.2262,156.2266,5,1,41,3,1,partial,1,images/Ex6.jpg,left,training,easy,1,,,,,
,,,,,629e1422d8de28b42ae1a214,001,,,,,2024-02-25_21h15.58.704,CRL1e,2023.2.3,Linux x86_64,59.88023952,65dbad3905fde4fe1981dc61,65dbae047ec91fe17a7148d3,,,,,,,,,,,156.2277,0.8,157.0273,157.0273,157.4782,left,1,0.4493,,157.4783,158.4785,5,2,42,0,1,partial,1,images/Ex5.jpg,left,training,easy,1,,,,,
,,,,,629e1422d8de28b42ae1a214,001,,,,,2024-02-25_21h15.58.704,CRL1e,2023.2.3,Linux x86_64,59.88023952,65dbad3905fde4fe1981dc61,65dbae047ec91fe17a7148d3,,,,,,,,,,,158.4795,0.7,159.1791,159.1791,159.5795,right,0,0.394,,159.5795,160.5802,5,3,43,2,1,partial,1,images/Ex6.jpg,left,training,easy,1,,,,,
,,,,,629e1422d8de28b42ae1a214,001,,,,,2024-02-25_21h15.58.704,CRL1e,2023.2.3,Linux x86_64,59.88023952,65dbad3905fde4fe1981dc61,65dbae047ec91fe17a7148d3,,,,,,,,,,,160.5807,1.3,161.8813,161.8813,162.3819,left,0,0.496,,162.382,163.3828,5,4,44,5,1,partial,1,images/Ex7.jpg,right,training,easy,1,,,,,
,,,,,629e1422d8de28b42ae1a214,001,,,,,2024-02-25_21h15.58.704,CRL1e,2023.2.3,Linux x86_64,59.88023952,65dbad3905fde4fe1981dc61,65dbae047ec91fe17a7148d3,,,,,,,,,,,163.3833,1.4,164.7836,164.7837,165.3178,right,1,0.5276,,165.3178,166.3182,5,5,45,4,1,partial,1,images/Ex7.jpg,right,training,easy,1,,,,,
,,,,,629e1422d8de28b42ae1a214,001,,,,,2024-02-25_21h15.58.704,CRL1e,2023.2.3,Linux x86_64,59.88023952,65dbad3905fde4fe1981dc61,65dbae047ec91fe17a7148d3,,,,,,,,,,,166.3187,1.1,167.4193,167.4193,168.0537,right,1,0.6333,,168.0538,169.0539,5,6,46,6,1,partial,1,images/Ex8.jpg,right,training,easy,1,,,,,
,,,,,629e1422d8de28b42ae1a214,001,,,,,2024-02-25_21h15.58.704,CRL1e,2023.2.3,Linux x86_64,59.88023952,65dbad3905fde4fe1981dc61,65dbae047ec91fe17a7148d3,,,,,,,,,,,169.0544,1.3,170.355,170.3551,171.1392,right,0,0.7783,,171.1393,172.1398,5,7,47,1,1,partial,1,images/Ex5.jpg,left,training,easy,1,,,,,
,,,,,629e1422d8de28b42ae1a214,001,,,,,2024-02-25_21h15.58.704,CRL1e,2023.2.3,Linux x86_64,59.88023952,65dbad3905fde4fe1981dc61,65dbae047ec91fe17a7148d3,,,,,,,,,,,172.1462,1.4,173.5412,173.5412,174.2751,right,1,0.7281,,174.2752,175.2759,0,0,0,2,1,partial,2,images/Ex6.jpg,right,reversed,easy,1,,,,,
,,,,,629e1422d8de28b42ae1a214,001,,,,,2024-02-25_21h15.58.704,CRL1e,2023.2.3,Linux x86_64,59.88023952,65dbad3905fde4fe1981dc61,65dbae047ec91fe17a7148d3,,,,,,,,,,,175.2763,1.3,176.5769,176.5769,177.1608,right,0,0.581,,177.1608,178.1616,0,1,1,7,1,partial,2,images/Ex8.jpg,left,reversed,easy,1,,,,,
,,,,,629e1422d8de28b42ae1a214,001,,,,,2024-02-25_21h15.58.704,CRL1e,2023.2.3,Linux x86_64,59.88023952,65dbad3905fde4fe1981dc61,65dbae047ec91fe17a7148d3,,,,,,,,,,,178.1621,1.5,179.663,179.663,180.2136,right,0,0.5411,,180.2137,181.2142,0,2,2,6,1,partial,2,images/Ex8.jpg,left,reversed,easy,1,,,,,
,,,,,629e1422d8de28b42ae1a214,001,,,,,2024-02-25_21h15.58.704,CRL1e,2023.2.3,Linux x86_64,59.88023952,65dbad3905fde4fe1981dc61,65dbae047ec91fe17a7148d3,,,,,,,,,,,181.2146,0.9,182.115,182.115,182.8993,right,1,0.7779,,182.8993,183.8999,0,3,3,5,1,partial,2,images/Ex7.jpg,right,nonreversed,easy,1,,,,,
,,,,,629e1422d8de28b42ae1a214,001,,,,,2024-02-25_21h15.58.704,CRL1e,2023.2.3,Linux x86_64,59.88023952,65dbad3905fde4fe1981dc61,65dbae047ec91fe17a7148d3,,,,,,,,,,,183.9005,1.4,185.301,185.301,185.7013,left,0,0.3951,,185.7014,186.702,0,4,4,4,1,partial,2,images/Ex7.jpg,right,nonreversed,easy,1,,,,,
,,,,,629e1422d8de28b42ae1a214,001,,,,,2024-02-25_21h15.58.704,CRL1e,2023.2.3,Linux x86_64,59.88023952,65dbad3905fde4fe1981dc61,65dbae047ec91fe17a7148d3,,,,,,,,,,,186.7026,1.3,188.0032,188.0032,188.8539,left,1,0.844,,188.854,189.8547,0,5,5,1,1,partial,2,images/Ex5.jpg,left,nonreversed,easy,1,,,,,
,,,,,629e1422d8de28b42ae1a214,001,,,,,2024-02-25_21h15.58.704,CRL1e,2023.2.3,Linux x86_64,59.88023952,65dbad3905fde4fe1981dc61,65dbae047ec91fe17a7148d3,,,,,,,,,,,189.8552,0.5,190.3551,190.3551,191.0056,left,0,0.6426,,191.0057,192.0064,0,6,6,3,1,partial,2,images/Ex6.jpg,right,reversed,easy,1,,,,,
,,,,,629e1422d8de28b42ae1a214,001,,,,,2024-02-25_21h15.58.704,CRL1e,2023.2.3,Linux x86_64,59.88023952,65dbad3905fde4fe1981dc61,65dbae047ec91fe17a7148d3,,,,,,,,,,,192.0069,0.9,192.907,192.907,193.5578,left,1,0.6436,,193.5578,194.5587,0,7,7,0,1,partial,2,images/Ex5.jpg,left,nonreversed,easy,1,,,,,
,,,,,629e1422d8de28b42ae1a214,001,,,,,2024-02-25_21h15.58.704,CRL1e,2023.2.3,Linux x86_64,59.88023952,65dbad3905fde4fe1981dc61,65dbae047ec91fe17a7148d3,,,,,,,,,,,194.5592,1.3,195.8605,195.8605,196.3617,right,1,0.4911,,196.3617,197.3608,1,0,8,5,1,partial,2,images/Ex7.jpg,right,nonreversed,easy,1,,,,,
,,,,,629e1422d8de28b42ae1a214,001,,,,,2024-02-25_21h15.58.704,CRL1e,2023.2.3,Linux x86_64,59.88023952,65dbad3905fde4fe1981dc61,65dbae047ec91fe17a7148d3,,,,,,,,,,,197.3613,0.9,198.2616,198.2617,198.9456,left,0,0.6758,,198.9457,199.9468,1,1,9,2,1,partial,2,images/Ex6.jpg,right,reversed,easy,1,,,,,
,,,,,629e1422d8de28b42ae1a214,001,,,,,2024-02-25_21h15.58.704,CRL1e,2023.2.3,Linux x86_64,59.88023952,65dbad3905fde4fe1981dc61,65dbae047ec91fe17a7148d3,,,,,,,,,,,199.9473,0.5,200.4468,200.4468,201.0139,right,0,0.5586,,201.0139,202.0148,1,2,10,7,1,partial,2,images/Ex8.jpg,left,reversed,easy,1,,,,,
,,,,,629e1422d8de28b42ae1a214,001,,,,,2024-02-25_21h15.58.704,CRL1e,2023.2.3,Linux x86_64,59.88023952,65dbad3905fde4fe1981dc61,65dbae047ec91fe17a7148d3,,,,,,,,,,,202.0155,1.2,203.2157,203.2157,204.0002,right,1,0.7771,,204.0002,205.0005,1,3,11,3,1,partial,2,images/Ex6.jpg,right,reversed,easy,1,,,,,
,,,,,629e1422d8de28b42ae1a214,001,,,,,2024-02-25_21h15.58.704,CRL1e,2023.2.3,Linux x86_64,59.88023952,65dbad3905fde4fe1981dc61,65dbae047ec91fe17a7148d3,,,,,,,,,,,205.001,0.9,205.9014,205.9015,206.7019,right,0,0.7943,,206.702,207.7028,1,4,12,0,1,partial,2,images/Ex5.jpg,left,nonreversed,easy,1,,,,,
,,,,,629e1422d8de28b42ae1a214,001,,,,,2024-02-25_21h15.58.704,CRL1e,2023.2.3,Linux x86_64,59.88023952,65dbad3905fde4fe1981dc61,65dbae047ec91fe17a7148d3,,,,,,,,,,,207.7033,1.1,208.8038,208.8039,209.2876,left,1,0.481,,209.2877,210.2884,1,5,13,6,1,partial,2,images/Ex8.jpg,left,reversed,easy,1,,,,,
,,,,,629e1422d8de28b42ae1a214,001,,,,,2024-02-25_21h15.58.704,CRL1e,2023.2.3,Linux x86_64,59.88023952,65dbad3905fde4fe1981dc61,65dbae047ec91fe17a7148d3,,,,,,,,,,,210.289,0.9,211.1894,211.1895,211.74,left,0,0.5447,,211.7401,212.7404,1,6,14,4,1,partial,2,images/Ex7.jpg,right,nonreversed,easy,1,,,,,
,,,,,629e1422d8de28b42ae1a214,001,,,,,2024-02-25_21h15.58.704,CRL1e,2023.2.3,Linux x86_64,59.88023952,65dbad3905fde4fe1981dc61,65dbae047ec91fe17a7148d3,,,,,,,,,,,212.7409,0.5,213.2408,213.2409,213.8583,right,0,0.609,,213.8584,214.8588,1,7,15,1,1,partial,2,images/Ex5.jpg,left,nonreversed,easy,1,,,,,
,,,,,629e1422d8de28b42ae1a214,001,,,,,2024-02-25_21h15.58.704,CRL1e,2023.2.3,Linux x86_64,59.88023952,65dbad3905fde4fe1981dc61,65dbae047ec91fe17a7148d3,,,,,,,,,,,214.8602,0.9,215.7598,215.7599,216.2602,left,1,0.4933,,216.2602,217.2611,2,0,16,6,1,partial,2,images/Ex8.jpg,left,reversed,easy,1,,,,,
,,,,,629e1422d8de28b42ae1a214,001,,,,,2024-02-25_21h15.58.704,CRL1e,2023.2.3,Linux x86_64,59.88023952,65dbad3905fde4fe1981dc61,65dbae047ec91fe17a7148d3,,,,,,,,,,,217.2615,0.6,217.8612,217.8613,218.5787,left,1,0.7107,,218.5787,219.5796,2,1,17,1,1,partial,2,images/Ex5.jpg,left,nonreversed,easy,1,,,,,
,,,,,629e1422d8de28b42ae1a214,001,,,,,2024-02-25_21h15.58.704,CRL1e,2023.2.3,Linux x86_64,59.88023952,65dbad3905fde4fe1981dc61,65dbae047ec91fe17a7148d3,,,,,,,,,,,219.5801,0.5,220.0797,220.0798,220.6471,left,0,0.56,,220.6472,221.6478,2,2,18,3,1,partial,2,images/Ex6.jpg,right,reversed,easy,1,,,,,
,,,,,629e1422d8de28b42ae1a214,001,,,,,2024-02-25_21h15.58.704,CRL1e,2023.2.3,Linux x86_64,59.88023952,65dbad3905fde4fe1981dc61,65dbae047ec91fe17a7148d3,,,,,,,,,,,221.6481,1.4,223.049,223.0491,223.9166,left,0,0.8611,,223.9167,224.9176,2,3,19,4,1,partial,2,images/Ex7.jpg,right,nonreversed,easy,1,,,,,
,,,,,629e1422d8de28b42ae1a214,001,,,,,2024-02-25_21h15.58.704,CRL1e,2023.2.3,Linux x86_64,59.88023952,65dbad3905fde4fe1981dc61,65dbae047ec91fe17a7148d3,,,,,,,,,,,224.9181,0.5,225.4176,225.4176,225.9846,right,0,0.5628,,225.9846,226.9855,2,4,20,7,1,partial,2,images/Ex8.jpg,left,reversed,easy,1,,,,,
,,,,,629e1422d8de28b42ae1a214,001,,,,,2024-02-25_21h15.58.704,CRL1e,2023.2.3,Linux x86_64,59.88023952,65dbad3905fde4fe1981dc61,65dbae047ec91fe17a7148d3,,,,,,,,,,,226.9862,1,227.9866,227.9866,228.8384,left,1,0.8504,,228.8385,229.838,2,5,21,0,1,partial,2,images/Ex5.jpg,left,nonreversed,easy,1,,,,,
,,,,,629e1422d8de28b42ae1a214,001,,,,,2024-02-25_21h15.58.704,CRL1e,2023.2.3,Linux x86_64,59.88023952,65dbad3905fde4fe1981dc61,65dbae047ec91fe17a7148d3,,,,,,,,,,,229.8385,1.4,231.2391,231.2392,231.84,left,0,0.5935,,231.84,232.8403,2,6,22,2,1,partial,2,images/Ex6.jpg,right,reversed,easy,1,,,,,
,,,,,629e1422d8de28b42ae1a214,001,,,,,2024-02-25_21h15.58.704,CRL1e,2023.2.3,Linux x86_64,59.88023952,65dbad3905fde4fe1981dc61,65dbae047ec91fe17a7148d3,,,,,,,,,,,232.8408,1.3,234.1414,234.1415,235.0088,left,0,0.8627,,235.0089,236.0101,2,7,23,5,1,partial,2,images/Ex7.jpg,right,nonreversed,easy,1,,,,,
,,,,,629e1422d8de28b42ae1a214,001,,,,,2024-02-25_21h15.58.704,CRL1e,2023.2.3,Linux x86_64,59.88023952,65dbad3905fde4fe1981dc61,65dbae047ec91fe17a7148d3,,,,,,,,,,,236.0108,0.9,236.9104,236.9104,237.5781,right,0,0.6607,,237.5781,238.5784,3,0,24,6,1,partial,2,images/Ex8.jpg,left,reversed,easy,1,,,,,
,,,,,629e1422d8de28b42ae1a214,001,,,,,2024-02-25_21h15.58.704,CRL1e,2023.2.3,Linux x86_64,59.88023952,65dbad3905fde4fe1981dc61,65dbae047ec91fe17a7148d3,,,,,,,,,,,238.579,1.3,239.8794,239.8795,240.6804,left,1,0.7969,,240.6804,241.6811,3,1,25,0,1,partial,2,images/Ex5.jpg,left,nonreversed,easy,1,,,,,
,,,,,629e1422d8de28b42ae1a214,001,,,,,2024-02-25_21h15.58.704,CRL1e,2023.2.3,Linux x86_64,59.88023952,65dbad3905fde4fe1981dc61,65dbae047ec91fe17a7148d3,,,,,,,,,,,241.6816,1.1,242.7819,242.7819,243.2324,right,1,0.4432,,243.2324,244.2332,3,2,26,3,1,partial,2,images/Ex6.jpg,right,reversed,easy,1,,,,,
,,,,,629e1422d8de28b42ae1a214,001,,,,,2024-02-25_21h15.58.704,CRL1e,2023.2.3,Linux x86_64,59.88023952,65dbad3905fde4fe1981dc61,65dbae047ec91fe17a7148d3,,,,,,,,,,,244.2337,0.9,245.1339,245.1339,245.768,left,0,0.63,,245.768,246.7685,3,3,27,5,1,partial,2,images/Ex7.jpg,right,nonreversed,easy,1,,,,,
,,,,,629e1422d8de28b42ae1a214,001,,,,,2024-02-25_21h15.58.704,CRL1e,2023.2.3,Linux x86_64,59.88023952,65dbad3905fde4fe1981dc61,65dbae047ec91fe17a7148d3,,,,,,,,,,,246.769,0.5,247.2691,247.2692,248.1034,left,0,0.8251,,248.1034,249.1039,3,4,28,2,1,partial,2,images/Ex6.jpg,right,reversed,easy,1,,,,,
,,,,,629e1422d8de28b42ae1a214,001,,,,,2024-02-25_21h15.58.704,CRL1e,2023.2.3,Linux x86_64,59.88023952,65dbad3905fde4fe1981dc61,65dbae047ec91fe17a7148d3,,,,,,,,,,,249.105,1.4,250.505,250.505,250.9223,right,1,0.4146,,250.9224,251.923,3,5,29,4,1,partial,2,images/Ex7.jpg,right,nonreversed,easy,1,,,,,
,,,,,629e1422d8de28b42ae1a214,001,,,,,2024-02-25_21h15.58.704,CRL1e,2023.2.3,Linux x86_64,59.88023952,65dbad3905fde4fe1981dc61,65dbae047ec91fe17a7148d3,,,,,,,,,,,251.9235,0.5,252.4234,252.4234,252.9404,right,0,0.5104,,252.9405,253.9413,3,6,30,1,1,partial,2,images/Ex5.jpg,left,nonreversed,easy,1,,,,,
,,,,,629e1422d8de28b42ae1a214,001,,,,,2024-02-25_21h15.58.704,CRL1e,2023.2.3,Linux x86_64,59.88023952,65dbad3905fde4fe1981dc61,65dbae047ec91fe17a7148d3,,,,,,,,,,,253.9418,0.5,254.4417,254.4418,254.9589,right,0,0.5102,,254.9589,255.9597,3,7,31,7,1,partial,2,images/Ex8.jpg,left,reversed,easy,1,,,,,
,,,,,629e1422d8de28b42ae1a214,001,,,,,2024-02-25_21h15.58.704,CRL1e,2023.2.3,Linux x86_64,59.88023952,65dbad3905fde4fe1981dc61,65dbae047ec91fe17a7148d3,,,,,,,,,,,255.9602,1.1,257.0604,257.0605,257.4626,right,0,0.3998,,257.4627,258.4617,4,0,32,0,1,partial,2,images/Ex5.jpg,left,nonreversed,easy,1,,,,,
,,,,,629e1422d8de28b42ae1a214,001,,,,,2024-02-25_21h15.58.704,CRL1e,2023.2.3,Linux x86_64,59.88023952,65dbad3905fde4fe1981dc61,65dbae047ec91fe17a7148d3,,,,,,,,,,,258.4622,0.9,259.3626,259.3626,260.5635,left,1,1.1946,,260.5635,261.5645,4,1,33,6,1,partial,2,images/Ex8.jpg,left,reversed,easy,1,,,,,
,,,,,629e1422d8de28b42ae1a214,001,,,,,2024-02-25_21h15.58.704,CRL1e,2023.2.3,Linux x86_64,59.88023952,65dbad3905fde4fe1981dc61,65dbae047ec91fe17a7148d3,,,,,,,,,,,261.565,1.1,262.6652,262.6652,263.516,right,1,0.8437,,263.5161,264.5168,4,2,34,4,1,partial,2,images/Ex7.jpg,right,nonreversed,easy,1,,,,,
,,,,,629e1422d8de28b42ae1a214,001,,,,,2024-02-25_21h15.58.704,CRL1e,2023.2.3,Linux x86_64,59.88023952,65dbad3905fde4fe1981dc61,65dbae047ec91fe17a7148d3,,,,,,,,,,,264.5173,1.3,265.8179,265.8179,266.5186,right,1,0.6991,,266.5186,267.5191,4,3,35,5,1,partial,2,images/Ex7.jpg,right,nonreversed,easy,1,,,,,
,,,,,629e1422d8de28b42ae1a214,001,,,,,2024-02-25_21h15.58.704,CRL1e,2023.2.3,Linux x86_64,59.88023952,65dbad3905fde4fe1981dc61,65dbae047ec91fe17a7148d3,,,,,,,,,,,267.5197,1.1,268.6202,268.6202,269.104,left,0,0.4766,,269.104,270.1049,4,4,36,3,1,partial,2,images/Ex6.jpg,right,reversed,easy,1,,,,,
,,,,,629e1422d8de28b42ae1a214,001,,,,,2024-02-25_21h15.58.704,CRL1e,2023.2.3,Linux x86_64,59.88023952,65dbad3905fde4fe1981dc61,65dbae047ec91fe17a7148d3,,,,,,,,,,,270.1054,1.2,271.3064,271.3064,271.9899,right,0,0.6819,,271.9899,272.9904,4,5,37,7,1,partial,2,images/Ex8.jpg,left,reversed,easy,1,,,,,
,,,,,629e1422d8de28b42ae1a214,001,,,,,2024-02-25_21h15.58.704,CRL1e,2023.2.3,Linux x86_64,59.88023952,65dbad3905fde4fe1981dc61,65dbae047ec91fe17a7148d3,,,,,,,,,,,272.9909,0.8,273.791,273.7911,274.692,right,1,0.8934,,274.692,275.693,4,6,38,2,1,partial,2,images/Ex6.jpg,right,reversed,easy,1,,,,,
,,,,,629e1422d8de28b42ae1a214,001,,,,,2024-02-25_21h15.58.704,CRL1e,2023.2.3,Linux x86_64,59.88023952,65dbad3905fde4fe1981dc61,65dbae047ec91fe17a7148d3,,,,,,,,,,,275.6936,0.7,276.3903,276.3903,277.3472,right,0,0.9556,,277.3473,278.3448,4,7,39,1,1,partial,2,images/Ex5.jpg,left,nonreversed,easy,1,,,,,
,,,,,629e1422d8de28b42ae1a214,001,,,,,2024-02-25_21h15.58.704,CRL1e,2023.2.3,Linux x86_64,59.88023952,65dbad3905fde4fe1981dc61,65dbae047ec91fe17a7148d3,,,,,,,,,,,278.3453,0.5,278.8455,278.8455,279.6627,left,0,0.8148,,279.6627,280.6636,5,0,40,4,1,partial,2,images/Ex7.jpg,right,nonreversed,easy,1,,,,,
,,,,,629e1422d8de28b42ae1a214,001,,,,,2024-02-25_21h15.58.704,CRL1e,2023.2.3,Linux x86_64,59.88023952,65dbad3905fde4fe1981dc61,65dbae047ec91fe17a7148d3,,,,,,,,,,,280.6641,0.7,281.3639,281.364,281.9979,right,1,0.6269,,281.998,282.9986,5,1,41,2,1,partial,2,images/Ex6.jpg,right,reversed,easy,1,,,,,
,,,,,629e1422d8de28b42ae1a214,001,,,,,2024-02-25_21h15.58.704,CRL1e,2023.2.3,Linux x86_64,59.88023952,65dbad3905fde4fe1981dc61,65dbae047ec91fe17a7148d3,,,,,,,,,,,282.9991,0.9,283.8993,283.8993,284.4175,right,0,0.5096,,284.4175,285.4174,5,2,42,6,1,partial,2,images/Ex8.jpg,left,reversed,easy,1,,,,,
,,,,,629e1422d8de28b42ae1a214,001,,,,,2024-02-25_21h15.58.704,CRL1e,2023.2.3,Linux x86_64,59.88023952,65dbad3905fde4fe1981dc61,65dbae047ec91fe17a7148d3,,,,,,,,,,,285.4181,1.4,286.8186,286.8186,287.5692,right,0,0.7459,,287.5693,288.57,5,3,43,0,1,partial,2,images/Ex5.jpg,left,nonreversed,easy,1,,,,,
,,,,,629e1422d8de28b42ae1a214,001,,,,,2024-02-25_21h15.58.704,CRL1e,2023.2.3,Linux x86_64,59.88023952,65dbad3905fde4fe1981dc61,65dbae047ec91fe17a7148d3,,,,,,,,,,,288.5706,0.8,289.3709,289.3709,289.8378,left,1,0.4617,,289.8379,290.8387,5,4,44,7,1,partial,2,images/Ex8.jpg,left,reversed,easy,1,,,,,
,,,,,629e1422d8de28b42ae1a214,001,,,,,2024-02-25_21h15.58.704,CRL1e,2023.2.3,Linux x86_64,59.88023952,65dbad3905fde4fe1981dc61,65dbae047ec91fe17a7148d3,,,,,,,,,,,290.8393,0.6,291.4392,291.4392,292.1898,right,0,0.7447,,292.1898,293.1908,5,5,45,1,1,partial,2,images/Ex5.jpg,left,nonreversed,easy,1,,,,,
,,,,,629e1422d8de28b42ae1a214,001,,,,,2024-02-25_21h15.58.704,CRL1e,2023.2.3,Linux x86_64,59.88023952,65dbad3905fde4fe1981dc61,65dbae047ec91fe17a7148d3,,,,,,,,,,,293.1914,0.7,293.8864,293.8865,294.425,left,0,0.5279,,294.4251,295.4255,5,6,46,5,1,partial,2,images/Ex7.jpg,right,nonreversed,easy,1,,,,,
,,,,,629e1422d8de28b42ae1a214,001,,,,,2024-02-25_21h15.58.704,CRL1e,2023.2.3,Linux x86_64,59.88023952,65dbad3905fde4fe1981dc61,65dbae047ec91fe17a7148d3,,,,,,,,,,,295.426,1.1,296.5267,296.5267,296.9615,left,0,0.4298,,296.9615,297.9612,5,7,47,3,1,partial,2,images/Ex6.jpg,right,reversed,easy,1,,,,,
,,,,,629e1422d8de28b42ae1a214,001,,,,,2024-02-25_21h15.58.704,CRL1e,2023.2.3,Linux x86_64,59.88023952,65dbad3905fde4fe1981dc61,65dbae047ec91fe17a7148d3,,,,,,297.9625,301.1809,space,3.2007,,301.199,1,302.1979,302.198,303.1659,right,1,0.9661,,303.1659,304.1668,0,0,0,5,1,total,1,images/Ex3.jpg,right,training,easy,1,,,,,
,,,,,629e1422d8de28b42ae1a214,001,,,,,2024-02-25_21h15.58.704,CRL1e,2023.2.3,Linux x86_64,59.88023952,65dbad3905fde4fe1981dc61,65dbae047ec91fe17a7148d3,,,,,,,,,,,304.1673,0.5,304.6668,304.6668,305.3018,left,1,0.6269,,305.3019,306.3016,0,1,1,3,1,total,1,images/Ex2.jpg,left,training,easy,1,,,,,
,,,,,629e1422d8de28b42ae1a214,001,,,,,2024-02-25_21h15.58.704,CRL1e,2023.2.3,Linux x86_64,59.88023952,65dbad3905fde4fe1981dc61,65dbae047ec91fe17a7148d3,,,,,,,,,,,306.3021,0.7,307.0024,307.0025,307.6695,right,1,0.6606,,307.6696,308.6709,0,2,2,4,1,total,1,images/Ex3.jpg,right,training,easy,1,,,,,
,,,,,629e1422d8de28b42ae1a214,001,,,,,2024-02-25_21h15.58.704,CRL1e,2023.2.3,Linux x86_64,59.88023952,65dbad3905fde4fe1981dc61,65dbae047ec91fe17a7148d3,,,,,,,,,,,308.6716,1,309.6711,309.6711,310.5218,right,0,0.8436,,310.5218,311.5224,0,3,3,1,1,total,1,images/Ex1.jpg,left,training,easy,1,,,,,
,,,,,629e1422d8de28b42ae1a214,001,,,,,2024-02-25_21h15.58.704,CRL1e,2023.2.3,Linux x86_64,59.88023952,65dbad3905fde4fe1981dc61,65dbae047ec91fe17a7148d3,,,,,,,,,,,311.5229,0.8,312.3232,312.3233,312.9736,left,1,0.6436,,312.9737,313.9697,0,4,4,0,1,total,1,images/Ex1.jpg,left,training,easy,1,,,,,
,,,,,629e1422d8de28b42ae1a214,001,,,,,2024-02-25_21h15.58.704,CRL1e,2023.2.3,Linux x86_64,59.88023952,65dbad3905fde4fe1981dc61,65dbae047ec91fe17a7148d3,,,,,,,,,,,313.9702,1,314.9588,314.959,316.0607,left,1,1.093,,316.0607,317.0603,0,5,5,2,1,total,1,images/Ex2.jpg,left,training,easy,1,,,,,
,,,,,629e1422d8de28b42ae1a214,001,,,,,2024-02-25_21h15.58.704,CRL1e,2023.2.3,Linux x86_64,59.88023952,65dbad3905fde4fe1981dc61,65dbae047ec91fe17a7148d3,,,,,,,,,,,317.0608,1.5,318.5617,318.5618,319.329,left,0,0.7598,,319.3292,320.3299,0,6,6,6,1,total,1,images/Ex4.jpg,right,training,easy,1,,,,,
,,,,,629e1422d8de28b42ae1a214,001,,,,,2024-02-25_21h15.58.704,CRL1e,2023.2.3,Linux x86_64,59.88023952,65dbad3905fde4fe1981dc61,65dbae047ec91fe17a7148d3,,,,,,,,,,,320.3304,1.3,321.6308,321.6308,322.6987,right,1,1.0617,,322.6988,323.6993,0,7,7,7,1,total,1,images/Ex4.jpg,right,training,easy,1,,,,,
,,,,,629e1422d8de28b42ae1a214,001,,,,,2024-02-25_21h15.58.704,CRL1e,2023.2.3,Linux x86_64,59.88023952,65dbad3905fde4fe1981dc61,65dbae047ec91fe17a7148d3,,,,,,,,,,,323.6999,0.9,324.6,324.6001,325.2672,left,1,0.6613,,325.2673,326.2678,1,0,8,1,1,total,1,images/Ex1.jpg,left,training,easy,1,,,,,
,,,,,629e1422d8de28b42ae1a214,001,,,,,2024-02-25_21h15.58.704,CRL1e,2023.2.3,Linux x86_64,59.88023952,65dbad3905fde4fe1981dc61,65dbae047ec91fe17a7148d3,,,,,,,,,,,326.2683,0.9,327.1691,327.1691,327.6196,right,1,0.4431,,327.6197,328.6201,1,1,9,4,1,total,1,images/Ex3.jpg,right,training,easy,1,,,,,
,,,,,629e1422d8de28b42ae1a214,001,,,,,2024-02-25_21h15.58.704,CRL1e,2023.2.3,Linux x86_64,59.88023952,65dbad3905fde4fe1981dc61,65dbae047ec91fe17a7148d3,,,,,,,,,,,328.6205,0.8,329.4206,329.4207,330.3048,right,0,0.8758,,330.3049,331.3056,1,2,10,0,1,total,1,images/Ex1.jpg,left,training,easy,1,,,,,
,,,,,629e1422d8de28b42ae1a214,001,,,,,2024-02-25_21h15.58.704,CRL1e,2023.2.3,Linux x86_64,59.88023952,65dbad3905fde4fe1981dc61,65dbae047ec91fe17a7148d3,,,,,,,,,,,331.3062,0.7,332.0062,332.0062,332.49,left,1,0.4778,,332.4901,333.4907,1,3,11,3,1,total,1,images/Ex2.jpg,left,training,easy,1,,,,,
,,,,,629e1422d8de28b42ae1a214,001,,,,,2024-02-25_21h15.58.704,CRL1e,2023.2.3,Linux x86_64,59.88023952,65dbad3905fde4fe1981dc61,65dbae047ec91fe17a7148d3,,,,,,,,,,,333.4911,1.4,334.8922,334.8923,335.576,left,1,0.6812,,335.5761,336.5765,1,4,12,2,1,total,1,images/Ex2.jpg,left,training,easy,1,,,,,
,,,,,629e1422d8de28b42ae1a214,001,,,,,2024-02-25_21h15.58.704,CRL1e,2023.2.3,Linux x86_64,59.88023952,65dbad3905fde4fe1981dc61,65dbae047ec91fe17a7148d3,,,,,,,,,,,336.577,0.7,337.2775,337.2775,338.3403,left,0,1.0614,,338.3403,339.3362,1,5,13,7,1,total,1,images/Ex4.jpg,right,training,easy,1,,,,,
,,,,,629e1422d8de28b42ae1a214,001,,,,,2024-02-25_21h15.58.704,CRL1e,2023.2.3,Linux x86_64,59.88023952,65dbad3905fde4fe1981dc61,65dbae047ec91fe17a7148d3,,,,,,,,,,,339.3383,1.2,340.5199,340.5199,340.9215,right,1,0.4002,,340.9216,341.9117,1,6,14,5,1,total,1,images/Ex3.jpg,right,training,easy,1,,,,,
,,,,,629e1422d8de28b42ae1a214,001,,,,,2024-02-25_21h15.58.704,CRL1e,2023.2.3,Linux x86_64,59.88023952,65dbad3905fde4fe1981dc61,65dbae047ec91fe17a7148d3,,,,,,,,,,,341.9146,1.2,343.1082,343.1082,343.6348,right,1,0.524,,343.6349,344.6349,1,7,15,6,1,total,1,images/Ex4.jpg,right,training,easy,1,,,,,
,,,,,629e1422d8de28b42ae1a214,001,,,,,2024-02-25_21h15.58.704,CRL1e,2023.2.3,Linux x86_64,59.88023952,65dbad3905fde4fe1981dc61,65dbae047ec91fe17a7148d3,,,,,,,,,,,344.6355,1,345.6235,345.6235,346.1297,left,1,0.5021,,346.1298,347.1299,2,0,16,2,1,total,1,images/Ex2.jpg,left,training,easy,1,,,,,
,,,,,629e1422d8de28b42ae1a214,001,,,,,2024-02-25_21h15.58.704,CRL1e,2023.2.3,Linux x86_64,59.88023952,65dbad3905fde4fe1981dc61,65dbae047ec91fe17a7148d3,,,,,,,,,,,347.1304,1,348.1183,348.1183,348.7506,left,1,0.6308,,348.7506,349.7302,2,1,17,1,1,total,1,images/Ex1.jpg,left,training,easy,1,,,,,
,,,,,629e1422d8de28b42ae1a214,001,,,,,2024-02-25_21h15.58.704,CRL1e,2023.2.3,Linux x86_64,59.88023952,65dbad3905fde4fe1981dc61,65dbae047ec91fe17a7148d3,,,,,,,,,,,349.7308,0.6,350.3107,350.3108,351.079,right,1,0.767,,351.0791,352.0701,2,2,18,7,1,total,1,images/Ex4.jpg,right,training,easy,1,,,,,
,,,,,629e1422d8de28b42ae1a214,001,,,,,2024-02-25_21h15.58.704,CRL1e,2023.2.3,Linux x86_64,59.88023952,65dbad3905fde4fe1981dc61,65dbae047ec91fe17a7148d3,,,,,,,,,,,352.0707,1.4,353.4686,353.4687,354.0664,left,1,0.5965,,354.0665,355.0561,2,3,19,0,1,total,1,images/Ex1.jpg,left,training,easy,1,,,,,
,,,,,629e1422d8de28b42ae1a214,001,,,,,2024-02-25_21h15.58.704,CRL1e,2023.2.3,Linux x86_64,59.88023952,65dbad3905fde4fe1981dc61,65dbae047ec91fe17a7148d3,,,,,,,,,,,355.0567,0.7,355.7561,355.7561,356.3608,right,1,0.5991,,356.3608,357.347,2,4,20,6,1,total,1,images/Ex4.jpg,right,training,easy,1,,,,,
,,,,,629e1422d8de28b42ae1a214,001,,,,,2024-02-25_21h15.58.704,CRL1e,2023.2.3,Linux x86_64,59.88023952,65dbad3905fde4fe1981dc61,65dbae047ec91fe17a7148d3,,,,,,,,,,,357.3476,1.2,358.5522,358.5522,358.9746,right,1,0.4184,,358.9747,359.9722,2,5,21,5,1,total,1,images/Ex3.jpg,right,training,easy,1,,,,,
,,,,,629e1422d8de28b42ae1a214,001,,,,,2024-02-25_21h15.58.704,CRL1e,2023.2.3,Linux x86_64,59.88023952,65dbad3905fde4fe1981dc61,65dbae047ec91fe17a7148d3,,,,,,,,,,,359.973,0.9,360.8483,360.8483,361.2407,right,1,0.3912,,361.2408,362.2361,2,6,22,4,1,total,1,images/Ex3.jpg,right,training,easy,1,,,,,
,,,,,629e1422d8de28b42ae1a214,001,,,,,2024-02-25_21h15.58.704,CRL1e,2023.2.3,Linux x86_64,59.88023952,65dbad3905fde4fe1981dc61,65dbae047ec91fe17a7148d3,,,,,,,,,,,362.2367,0.7,362.9462,362.9462,363.3542,right,0,0.4067,,363.3542,364.351,2,7,23,3,1,total,1,images/Ex2.jpg,left,training,easy,1,,,,,
,,,,,629e1422d8de28b42ae1a214,001,,,,,2024-02-25_21h15.58.704,CRL1e,2023.2.3,Linux x86_64,59.88023952,65dbad3905fde4fe1981dc61,65dbae047ec91fe17a7148d3,,,,,,,,,,,364.3518,0.5,364.8465,364.8466,365.5084,right,0,0.6605,,365.5085,366.5101,3,0,24,0,1,total,1,images/Ex1.jpg,left,training,easy,1,,,,,
,,,,,629e1422d8de28b42ae1a214,001,,,,,2024-02-25_21h15.58.704,CRL1e,2023.2.3,Linux x86_64,59.88023952,65dbad3905fde4fe1981dc61,65dbae047ec91fe17a7148d3,,,,,,,,,,,366.5109,0.5,367.0117,367.0118,367.6039,left,1,0.5912,,367.6039,368.6043,3,1,25,1,1,total,1,images/Ex1.jpg,left,training,easy,1,,,,,
,,,,,629e1422d8de28b42ae1a214,001,,,,,2024-02-25_21h15.58.704,CRL1e,2023.2.3,Linux x86_64,59.88023952,65dbad3905fde4fe1981dc61,65dbae047ec91fe17a7148d3,,,,,,,,,,,368.6049,0.5,369.0957,369.0958,369.8118,right,0,0.7134,,369.8119,370.814,3,2,26,2,1,total,1,images/Ex2.jpg,left,training,easy,1,,,,,
,,,,,629e1422d8de28b42ae1a214,001,,,,,2024-02-25_21h15.58.704,CRL1e,2023.2.3,Linux x86_64,59.88023952,65dbad3905fde4fe1981dc61,65dbae047ec91fe17a7148d3,,,,,,,,,,,370.8163,1.2,372.004,372.0041,372.5931,left,1,0.5879,,372.5931,373.5906,3,3,27,3,1,total,1,images/Ex2.jpg,left,training,easy,1,,,,,
,,,,,629e1422d8de28b42ae1a214,001,,,,,2024-02-25_21h15.58.704,CRL1e,2023.2.3,Linux x86_64,59.88023952,65dbad3905fde4fe1981dc61,65dbae047ec91fe17a7148d3,,,,,,,,,,,373.5912,0.6,374.1881,374.1882,374.8074,right,1,0.6171,,374.8074,375.8116,3,4,28,5,1,total,1,images/Ex3.jpg,right,training,easy,1,,,,,
,,,,,629e1422d8de28b42ae1a214,001,,,,,2024-02-25_21h15.58.704,CRL1e,2023.2.3,Linux x86_64,59.88023952,65dbad3905fde4fe1981dc61,65dbae047ec91fe17a7148d3,,,,,,,,,,,375.8127,1.5,377.3025,377.3025,377.9114,right,1,0.6077,,377.9114,378.9153,3,5,29,7,1,total,1,images/Ex4.jpg,right,training,easy,1,,,,,
,,,,,629e1422d8de28b42ae1a214,001,,,,,2024-02-25_21h15.58.704,CRL1e,2023.2.3,Linux x86_64,59.88023952,65dbad3905fde4fe1981dc61,65dbae047ec91fe17a7148d3,,,,,,,,,,,378.9158,0.5,379.4056,379.4056,380.1563,right,1,0.7495,,380.1563,381.153,3,6,30,4,1,total,1,images/Ex3.jpg,right,training,easy,1,,,,,
,,,,,629e1422d8de28b42ae1a214,001,,,,,2024-02-25_21h15.58.704,CRL1e,2023.2.3,Linux x86_64,59.88023952,65dbad3905fde4fe1981dc61,65dbae047ec91fe17a7148d3,,,,,,,,,,,381.1535,0.9,382.0491,382.0491,382.5923,right,1,0.5419,,382.5924,383.5923,3,7,31,6,1,total,1,images/Ex4.jpg,right,training,easy,1,,,,,
,,,,,629e1422d8de28b42ae1a214,001,,,,,2024-02-25_21h15.58.704,CRL1e,2023.2.3,Linux x86_64,59.88023952,65dbad3905fde4fe1981dc61,65dbae047ec91fe17a7148d3,,,,,,,,,,,383.5932,1,384.5834,384.5835,385.1557,left,1,0.571,,385.1558,386.1614,4,0,32,2,1,total,1,images/Ex2.jpg,left,training,easy,1,,,,,
,,,,,629e1422d8de28b42ae1a214,001,,,,,2024-02-25_21h15.58.704,CRL1e,2023.2.3,Linux x86_64,59.88023952,65dbad3905fde4fe1981dc61,65dbae047ec91fe17a7148d3,,,,,,,,,,,386.1622,1,387.1543,387.1543,387.9223,right,1,0.7669,,387.9225,388.9216,4,1,33,7,1,total,1,images/Ex4.jpg,right,training,easy,1,,,,,
,,,,,629e1422d8de28b42ae1a214,001,,,,,2024-02-25_21h15.58.704,CRL1e,2023.2.3,Linux x86_64,59.88023952,65dbad3905fde4fe1981dc61,65dbae047ec91fe17a7148d3,,,,,,,,,,,388.9236,1.3,390.2175,390.2175,390.9459,left,1,0.7267,,390.946,391.9382,4,2,34,0,1,total,1,images/Ex1.jpg,left,training,easy,1,,,,,
,,,,,629e1422d8de28b42ae1a214,001,,,,,2024-02-25_21h15.58.704,CRL1e,2023.2.3,Linux x86_64,59.88023952,65dbad3905fde4fe1981dc61,65dbae047ec91fe17a7148d3,,,,,,,,,,,391.9388,0.8,392.7434,392.7435,393.4468,left,1,0.7017,,393.4469,394.4348,4,3,35,3,1,total,1,images/Ex2.jpg,left,training,easy,1,,,,,
,,,,,629e1422d8de28b42ae1a214,001,,,,,2024-02-25_21h15.58.704,CRL1e,2023.2.3,Linux x86_64,59.88023952,65dbad3905fde4fe1981dc61,65dbae047ec91fe17a7148d3,,,,,,,,,,,394.4355,0.8,395.2245,395.2245,395.8142,right,1,0.5875,,395.8142,396.8044,4,4,36,6,1,total,1,images/Ex4.jpg,right,training,easy,1,,,,,
,,,,,629e1422d8de28b42ae1a214,001,,,,,2024-02-25_21h15.58.704,CRL1e,2023.2.3,Linux x86_64,59.88023952,65dbad3905fde4fe1981dc61,65dbae047ec91fe17a7148d3,,,,,,,,,,,396.8065,1.4,398.2013,398.2013,398.6069,right,1,0.4041,,398.607,399.5898,4,5,37,5,1,total,1,images/Ex3.jpg,right,training,easy,1,,,,,
,,,,,629e1422d8de28b42ae1a214,001,,,,,2024-02-25_21h15.58.704,CRL1e,2023.2.3,Linux x86_64,59.88023952,65dbad3905fde4fe1981dc61,65dbae047ec91fe17a7148d3,,,,,,,,,,,399.5904,1.3,400.89,400.8901,401.5099,right,1,0.6178,,401.51,402.504,4,6,38,4,1,total,1,images/Ex3.jpg,right,training,easy,1,,,,,
,,,,,629e1422d8de28b42ae1a214,001,,,,,2024-02-25_21h15.58.704,CRL1e,2023.2.3,Linux x86_64,59.88023952,65dbad3905fde4fe1981dc61,65dbae047ec91fe17a7148d3,,,,,,,,,,,402.5046,1.4,403.905,403.905,404.3604,left,1,0.4529,,404.3605,405.3495,4,7,39,1,1,total,1,images/Ex1.jpg,left,training,easy,1,,,,,
,,,,,629e1422d8de28b42ae1a214,001,,,,,2024-02-25_21h15.58.704,CRL1e,2023.2.3,Linux x86_64,59.88023952,65dbad3905fde4fe1981dc61,65dbae047ec91fe17a7148d3,,,,,,,,,,,405.3506,0.6,405.9509,405.9509,406.6515,right,1,0.6965,,406.6515,407.6526,5,0,40,4,1,total,1,images/Ex3.jpg,right,training,easy,1,,,,,
,,,,,629e1422d8de28b42ae1a214,001,,,,,2024-02-25_21h15.58.704,CRL1e,2023.2.3,Linux x86_64,59.88023952,65dbad3905fde4fe1981dc61,65dbae047ec91fe17a7148d3,,,,,,,,,,,407.6532,0.6,408.253,408.253,408.7043,right,1,0.448,,408.7044,409.704,5,1,41,5,1,total,1,images/Ex3.jpg,right,training,easy,1,,,,,
,,,,,629e1422d8de28b42ae1a214,001,,,,,2024-02-25_21h15.58.704,CRL1e,2023.2.3,Linux x86_64,59.88023952,65dbad3905fde4fe1981dc61,65dbae047ec91fe17a7148d3,,,,,,,,,,,409.7045,0.6,410.3045,410.3046,410.9097,right,1,0.604,,410.9097,411.9058,5,2,42,6,1,total,1,images/Ex4.jpg,right,training,easy,1,,,,,
,,,,,629e1422d8de28b42ae1a214,001,,,,,2024-02-25_21h15.58.704,CRL1e,2023.2.3,Linux x86_64,59.88023952,65dbad3905fde4fe1981dc61,65dbae047ec91fe17a7148d3,,,,,,,,,,,411.9063,0.7,412.6063,412.6063,413.0192,left,1,0.4106,,413.0193,414.0078,5,3,43,0,1,total,1,images/Ex1.jpg,left,training,easy,1,,,,,
,,,,,629e1422d8de28b42ae1a214,001,,,,,2024-02-25_21h15.58.704,CRL1e,2023.2.3,Linux x86_64,59.88023952,65dbad3905fde4fe1981dc61,65dbae047ec91fe17a7148d3,,,,,,,,,,,414.0083,0.5,414.5092,414.5093,415.2427,left,1,0.7309,,415.2428,416.243,5,4,44,2,1,total,1,images/Ex2.jpg,left,training,easy,1,,,,,
,,,,,629e1422d8de28b42ae1a214,001,,,,,2024-02-25_21h15.58.704,CRL1e,2023.2.3,Linux x86_64,59.88023952,65dbad3905fde4fe1981dc61,65dbae047ec91fe17a7148d3,,,,,,,,,,,416.2448,1.4,417.6498,417.6498,418.3053,right,1,0.6536,,418.3054,419.3018,5,5,45,7,1,total,1,images/Ex4.jpg,right,training,easy,1,,,,,
,,,,,629e1422d8de28b42ae1a214,001,,,,,2024-02-25_21h15.58.704,CRL1e,2023.2.3,Linux x86_64,59.88023952,65dbad3905fde4fe1981dc61,65dbae047ec91fe17a7148d3,,,,,,,,,,,419.3027,0.9,420.1818,420.1818,421.0637,left,1,0.8762,,421.0637,422.0643,5,6,46,3,1,total,1,images/Ex2.jpg,left,training,easy,1,,,,,
,,,,,629e1422d8de28b42ae1a214,001,,,,,2024-02-25_21h15.58.704,CRL1e,2023.2.3,Linux x86_64,59.88023952,65dbad3905fde4fe1981dc61,65dbae047ec91fe17a7148d3,,,,,,,,,,,422.0649,0.5,422.5649,422.5649,423.2156,left,1,0.6436,,423.2157,424.2161,5,7,47,1,1,total,1,images/Ex1.jpg,left,training,easy,1,,,,,
,,,,,629e1422d8de28b42ae1a214,001,,,,,2024-02-25_21h15.58.704,CRL1e,2023.2.3,Linux x86_64,59.88023952,65dbad3905fde4fe1981dc61,65dbae047ec91fe17a7148d3,,,,,,,,,,,424.2218,0.5,424.7177,424.7179,425.1504,left,0,0.431,,425.1505,426.1512,0,0,0,1,1,total,2,images/Ex1.jpg,right,reversed,easy,1,,,,,
,,,,,629e1422d8de28b42ae1a214,001,,,,,2024-02-25_21h15.58.704,CRL1e,2023.2.3,Linux x86_64,59.88023952,65dbad3905fde4fe1981dc61,65dbae047ec91fe17a7148d3,,,,,,,,,,,426.1518,1.4,427.5527,427.5528,429.1202,left,0,1.5637,,429.1203,430.121,0,1,1,0,1,total,2,images/Ex1.jpg,right,reversed,easy,1,,,,,
,,,,,629e1422d8de28b42ae1a214,001,,,,,2024-02-25_21h15.58.704,CRL1e,2023.2.3,Linux x86_64,59.88023952,65dbad3905fde4fe1981dc61,65dbae047ec91fe17a7148d3,,,,,,,,,,,430.1328,0.9,431.022,431.022,431.6223,right,0,0.5933,,431.6225,432.6233,0,2,2,5,1,total,2,images/Ex3.jpg,left,reversed,easy,1,,,,,
,,,,,629e1422d8de28b42ae1a214,001,,,,,2024-02-25_21h15.58.704,CRL1e,2023.2.3,Linux x86_64,59.88023952,65dbad3905fde4fe1981dc61,65dbae047ec91fe17a7148d3,,,,,,,,,,,432.624,0.5,433.1283,433.1284,433.6743,left,1,0.5398,,433.6744,434.6751,0,3,3,4,1,total,2,images/Ex3.jpg,left,reversed,easy,1,,,,,
,,,,,629e1422d8de28b42ae1a214,001,,,,,2024-02-25_21h15.58.704,CRL1e,2023.2.3,Linux x86_64,59.88023952,65dbad3905fde4fe1981dc61,65dbae047ec91fe17a7148d3,,,,,,,,,,,434.6755,1,435.6757,435.6758,436.51,left,1,0.8301,,436.5101,437.5106,0,4,4,6,1,total,2,images/Ex4.jpg,left,reversed,easy,1,,,,,
,,,,,629e1422d8de28b42ae1a214,001,,,,,2024-02-25_21h15.58.704,CRL1e,2023.2.3,Linux x86_64,59.88023952,65dbad3905fde4fe1981dc61,65dbae047ec91fe17a7148d3,,,,,,,,,,,437.5111,1.3,438.8116,438.8117,439.5626,left,1,0.7454,,439.5627,440.563,0,5,5,7,1,total,2,images/Ex4.jpg,left,reversed,easy,1,,,,,
,,,,,629e1422d8de28b42ae1a214,001,,,,,2024-02-25_21h15.58.704,CRL1e,2023.2.3,Linux x86_64,59.88023952,65dbad3905fde4fe1981dc61,65dbae047ec91fe17a7148d3,,,,,,,,,,,440.5635,1.2,441.764,441.764,442.5993,right,1,0.8325,,442.5994,443.599,0,6,6,3,1,total,2,images/Ex2.jpg,right,reversed,easy,1,,,,,
,,,,,629e1422d8de28b42ae1a214,001,,,,,2024-02-25_21h15.58.704,CRL1e,2023.2.3,Linux x86_64,59.88023952,65dbad3905fde4fe1981dc61,65dbae047ec91fe17a7148d3,,,,,,,,,,,443.6006,0.6,444.1994,444.1995,444.7166,right,1,0.5102,,444.7167,445.7175,0,7,7,2,1,total,2,images/Ex2.jpg,right,reversed,easy,1,,,,,
,,,,,629e1422d8de28b42ae1a214,001,,,,,2024-02-25_21h15.58.704,CRL1e,2023.2.3,Linux x86_64,59.88023952,65dbad3905fde4fe1981dc61,65dbae047ec91fe17a7148d3,,,,,,,,,,,445.7179,1.1,446.8186,446.8186,447.3022,right,1,0.4786,,447.3022,448.303,1,0,8,3,1,total,2,images/Ex2.jpg,right,reversed,easy,1,,,,,
,,,,,629e1422d8de28b42ae1a214,001,,,,,2024-02-25_21h15.58.704,CRL1e,2023.2.3,Linux x86_64,59.88023952,65dbad3905fde4fe1981dc61,65dbae047ec91fe17a7148d3,,,,,,,,,,,448.3034,0.8,449.1036,449.1037,449.6211,right,0,0.5102,,449.6211,450.6216,1,1,9,6,1,total,2,images/Ex4.jpg,left,reversed,easy,1,,,,,
,,,,,629e1422d8de28b42ae1a214,001,,,,,2024-02-25_21h15.58.704,CRL1e,2023.2.3,Linux x86_64,59.88023952,65dbad3905fde4fe1981dc61,65dbae047ec91fe17a7148d3,,,,,,,,,,,450.6225,1.1,451.7225,451.7225,452.6577,right,1,0.9303,,452.6577,453.6575,1,2,10,0,1,total,2,images/Ex1.jpg,right,reversed,easy,1,,,,,
,,,,,629e1422d8de28b42ae1a214,001,,,,,2024-02-25_21h15.58.704,CRL1e,2023.2.3,Linux x86_64,59.88023952,65dbad3905fde4fe1981dc61,65dbae047ec91fe17a7148d3,,,,,,,,,,,453.6579,1,454.6581,454.6581,455.3127,left,1,0.6535,,455.3128,456.3101,1,3,11,7,1,total,2,images/Ex4.jpg,left,reversed,easy,1,,,,,
,,,,,629e1422d8de28b42ae1a214,001,,,,,2024-02-25_21h15.58.704,CRL1e,2023.2.3,Linux x86_64,59.88023952,65dbad3905fde4fe1981dc61,65dbae047ec91fe17a7148d3,,,,,,,,,,,456.3106,0.7,457.0103,457.0103,457.6211,left,1,0.6062,,457.6211,458.6118,1,4,12,4,1,total,2,images/Ex3.jpg,left,reversed,easy,1,,,,,
,,,,,629e1422d8de28b42ae1a214,001,,,,,2024-02-25_21h15.58.704,CRL1e,2023.2.3,Linux x86_64,59.88023952,65dbad3905fde4fe1981dc61,65dbae047ec91fe17a7148d3,,,,,,,,,,,458.6123,1.4,460.0126,460.0127,460.7632,right,1,0.7443,,460.7633,461.7639,1,5,13,2,1,total,2,images/Ex2.jpg,right,reversed,easy,1,,,,,
,,,,,629e1422d8de28b42ae1a214,001,,,,,2024-02-25_21h15.58.704,CRL1e,2023.2.3,Linux x86_64,59.88023952,65dbad3905fde4fe1981dc61,65dbae047ec91fe17a7148d3,,,,,,,,,,,461.7644,0.9,462.665,462.6651,463.3156,right,0,0.6441,,463.3156,464.3164,1,6,14,5,1,total,2,images/Ex3.jpg,left,reversed,easy,1,,,,,
,,,,,629e1422d8de28b42ae1a214,001,,,,,2024-02-25_21h15.58.704,CRL1e,2023.2.3,Linux x86_64,59.88023952,65dbad3905fde4fe1981dc61,65dbae047ec91fe17a7148d3,,,,,,,,,,,464.317,1.3,465.6172,465.6172,466.4181,right,1,0.7952,,466.4181,467.4188,1,7,15,1,1,total,2,images/Ex1.jpg,right,reversed,easy,1,,,,,
,,,,,629e1422d8de28b42ae1a214,001,,,,,2024-02-25_21h15.58.704,CRL1e,2023.2.3,Linux x86_64,59.88023952,65dbad3905fde4fe1981dc61,65dbae047ec91fe17a7148d3,,,,,,,,,,,467.4193,1.1,468.5198,468.5199,469.3705,left,1,0.8482,,469.3706,470.3715,2,0,16,5,1,total,2,images/Ex3.jpg,left,reversed,easy,1,,,,,
,,,,,629e1422d8de28b42ae1a214,001,,,,,2024-02-25_21h15.58.704,CRL1e,2023.2.3,Linux x86_64,59.88023952,65dbad3905fde4fe1981dc61,65dbae047ec91fe17a7148d3,,,,,,,,,,,470.3721,1,471.3721,471.3721,471.9558,left,1,0.581,,471.9558,472.9605,2,1,17,6,1,total,2,images/Ex4.jpg,left,reversed,easy,1,,,,,
,,,,,629e1422d8de28b42ae1a214,001,,,,,2024-02-25_21h15.58.704,CRL1e,2023.2.3,Linux x86_64,59.88023952,65dbad3905fde4fe1981dc61,65dbae047ec91fe17a7148d3,,,,,,,,,,,472.9613,1,473.9575,473.9575,474.675,left,1,0.7108,,474.675,475.6754,2,2,18,7,1,total,2,images/Ex4.jpg,left,reversed,easy,1,,,,,
,,,,,629e1422d8de28b42ae1a214,001,,,,,2024-02-25_21h15.58.704,CRL1e,2023.2.3,Linux x86_64,59.88023952,65dbad3905fde4fe1981dc61,65dbae047ec91fe17a7148d3,,,,,,,,,,,475.6759,0.9,476.5767,476.5768,477.3441,left,1,0.7602,,477.3441,478.3445,2,3,19,4,1,total,2,images/Ex3.jpg,left,reversed,easy,1,,,,,
,,,,,629e1422d8de28b42ae1a214,001,,,,,2024-02-25_21h15.58.704,CRL1e,2023.2.3,Linux x86_64,59.88023952,65dbad3905fde4fe1981dc61,65dbae047ec91fe17a7148d3,,,,,,,,,,,478.345,1.3,479.6459,479.646,480.1001,right,1,0.453,,480.1002,481.0969,2,4,20,0,1,total,2,images/Ex1.jpg,right,reversed,easy,1,,,,,
,,,,,629e1422d8de28b42ae1a214,001,,,,,2024-02-25_21h15.58.704,CRL1e,2023.2.3,Linux x86_64,59.88023952,65dbad3905fde4fe1981dc61,65dbae047ec91fe17a7148d3,,,,,,,,,,,481.0974,1,482.0976,482.0976,482.6273,right,1,0.5288,,482.6275,483.6155,2,5,21,1,1,total,2,images/Ex1.jpg,right,reversed,easy,1,,,,,
,,,,,629e1422d8de28b42ae1a214,001,,,,,2024-02-25_21h15.58.704,CRL1e,2023.2.3,Linux x86_64,59.88023952,65dbad3905fde4fe1981dc61,65dbae047ec91fe17a7148d3,,,,,,,,,,,483.6164,1,484.6163,484.6163,485.2336,left,0,0.6115,,485.2336,486.2345,2,6,22,2,1,total,2,images/Ex2.jpg,right,reversed,easy,1,,,,,
,,,,,629e1422d8de28b42ae1a214,001,,,,,2024-02-25_21h15.58.704,CRL1e,2023.2.3,Linux x86_64,59.88023952,65dbad3905fde4fe1981dc61,65dbae047ec91fe17a7148d3,,,,,,,,,,,486.2351,1,487.2353,487.2353,487.8195,right,1,0.5774,,487.8202,488.8199,2,7,23,3,1,total,2,images/Ex2.jpg,right,reversed,easy,1,,,,,
,,,,,629e1422d8de28b42ae1a214,001,,,,,2024-02-25_21h15.58.704,CRL1e,2023.2.3,Linux x86_64,59.88023952,65dbad3905fde4fe1981dc61,65dbae047ec91fe17a7148d3,,,,,,,,,,,488.8204,1.3,490.1209,490.1209,490.8555,right,1,0.7311,,490.8556,491.8557,3,0,24,1,1,total,2,images/Ex1.jpg,right,reversed,easy,1,,,,,
,,,,,629e1422d8de28b42ae1a214,001,,,,,2024-02-25_21h15.58.704,CRL1e,2023.2.3,Linux x86_64,59.88023952,65dbad3905fde4fe1981dc61,65dbae047ec91fe17a7148d3,,,,,,,,,,,491.8563,0.9,492.7565,492.7566,493.3738,left,1,0.6155,,493.3739,494.3746,3,1,25,6,1,total,2,images/Ex4.jpg,left,reversed,easy,1,,,,,
,,,,,629e1422d8de28b42ae1a214,001,,,,,2024-02-25_21h15.58.704,CRL1e,2023.2.3,Linux x86_64,59.88023952,65dbad3905fde4fe1981dc61,65dbae047ec91fe17a7148d3,,,,,,,,,,,494.3751,0.6,494.9752,494.9753,495.4089,left,1,0.429,,495.4089,496.4097,3,2,26,4,1,total,2,images/Ex3.jpg,left,reversed,easy,1,,,,,
,,,,,629e1422d8de28b42ae1a214,001,,,,,2024-02-25_21h15.58.704,CRL1e,2023.2.3,Linux x86_64,59.88023952,65dbad3905fde4fe1981dc61,65dbae047ec91fe17a7148d3,,,,,,,,,,,496.4102,0.6,497.0101,497.0102,497.5273,right,0,0.5116,,497.5273,498.5282,3,3,27,7,1,total,2,images/Ex4.jpg,left,reversed,easy,1,,,,,
,,,,,629e1422d8de28b42ae1a214,001,,,,,2024-02-25_21h15.58.704,CRL1e,2023.2.3,Linux x86_64,59.88023952,65dbad3905fde4fe1981dc61,65dbae047ec91fe17a7148d3,,,,,,,,,,,498.5286,1.3,499.8292,499.8292,500.5799,left,1,0.7471,,500.5799,501.5806,3,4,28,5,1,total,2,images/Ex3.jpg,left,reversed,easy,1,,,,,
,,,,,629e1422d8de28b42ae1a214,001,,,,,2024-02-25_21h15.58.704,CRL1e,2023.2.3,Linux x86_64,59.88023952,65dbad3905fde4fe1981dc61,65dbae047ec91fe17a7148d3,,,,,,,,,,,501.5811,1,502.5819,502.582,503.2821,right,1,0.6957,,503.2821,504.2829,3,5,29,0,1,total,2,images/Ex1.jpg,right,reversed,easy,1,,,,,
,,,,,629e1422d8de28b42ae1a214,001,,,,,2024-02-25_21h15.58.704,CRL1e,2023.2.3,Linux x86_64,59.88023952,65dbad3905fde4fe1981dc61,65dbae047ec91fe17a7148d3,,,,,,,,,,,504.2834,0.8,505.0834,505.0834,505.6673,left,0,0.5774,,505.6673,506.6681,3,6,30,2,1,total,2,images/Ex2.jpg,right,reversed,easy,1,,,,,
,,,,,629e1422d8de28b42ae1a214,001,,,,,2024-02-25_21h15.58.704,CRL1e,2023.2.3,Linux x86_64,59.88023952,65dbad3905fde4fe1981dc61,65dbae047ec91fe17a7148d3,,,,,,,,,,,506.6687,0.7,507.3687,507.3688,508.0527,right,1,0.677,,508.0528,509.0533,3,7,31,3,1,total,2,images/Ex2.jpg,right,reversed,easy,1,,,,,
,,,,,629e1422d8de28b42ae1a214,001,,,,,2024-02-25_21h15.58.704,CRL1e,2023.2.3,Linux x86_64,59.88023952,65dbad3905fde4fe1981dc61,65dbae047ec91fe17a7148d3,,,,,,,,,,,509.0538,0.7,509.7538,509.7538,510.4545,left,1,0.6939,,510.4546,511.4559,4,0,32,6,1,total,2,images/Ex4.jpg,left,reversed,easy,1,,,,,
,,,,,629e1422d8de28b42ae1a214,001,,,,,2024-02-25_21h15.58.704,CRL1e,2023.2.3,Linux x86_64,59.88023952,65dbad3905fde4fe1981dc61,65dbae047ec91fe17a7148d3,,,,,,,,,,,511.4576,0.6,512.0559,512.0559,512.5901,left,0,0.5324,,512.5902,513.5905,4,1,33,3,1,total,2,images/Ex2.jpg,right,reversed,easy,1,,,,,
,,,,,629e1422d8de28b42ae1a214,001,,,,,2024-02-25_21h15.58.704,CRL1e,2023.2.3,Linux x86_64,59.88023952,65dbad3905fde4fe1981dc61,65dbae047ec91fe17a7148d3,,,,,,,,,,,513.5909,1.2,514.7914,514.7914,515.5924,right,1,0.7954,,515.5925,516.5932,4,2,34,0,1,total,2,images/Ex1.jpg,right,reversed,easy,1,,,,,
,,,,,629e1422d8de28b42ae1a214,001,,,,,2024-02-25_21h15.58.704,CRL1e,2023.2.3,Linux x86_64,59.88023952,65dbad3905fde4fe1981dc61,65dbae047ec91fe17a7148d3,,,,,,,,,,,516.5937,0.6,517.1934,517.1936,517.7774,left,1,0.577,,517.7774,518.7785,4,3,35,5,1,total,2,images/Ex3.jpg,left,reversed,easy,1,,,,,
,,,,,629e1422d8de28b42ae1a214,001,,,,,2024-02-25_21h15.58.704,CRL1e,2023.2.3,Linux x86_64,59.88023952,65dbad3905fde4fe1981dc61,65dbae047ec91fe17a7148d3,,,,,,,,,,,518.7791,0.9,519.679,519.6791,520.2293,left,1,0.5447,,520.2294,521.2302,4,4,36,4,1,total,2,images/Ex3.jpg,left,reversed,easy,1,,,,,
,,,,,629e1422d8de28b42ae1a214,001,,,,,2024-02-25_21h15.58.704,CRL1e,2023.2.3,Linux x86_64,59.88023952,65dbad3905fde4fe1981dc61,65dbae047ec91fe17a7148d3,,,,,,,,,,,521.2307,0.9,522.131,522.131,522.7815,right,1,0.6443,,522.7816,523.7825,4,5,37,1,1,total,2,images/Ex1.jpg,right,reversed,easy,1,,,,,
,,,,,629e1422d8de28b42ae1a214,001,,,,,2024-02-25_21h15.58.704,CRL1e,2023.2.3,Linux x86_64,59.88023952,65dbad3905fde4fe1981dc61,65dbae047ec91fe17a7148d3,,,,,,,,,,,523.7829,1.5,525.2836,525.2836,526.8014,left,1,1.5125,,526.8015,527.8026,4,6,38,7,1,total,2,images/Ex4.jpg,left,reversed,easy,1,,,,,
,,,,,629e1422d8de28b42ae1a214,001,,,,,2024-02-25_21h15.58.704,CRL1e,2023.2.3,Linux x86_64,59.88023952,65dbad3905fde4fe1981dc61,65dbae047ec91fe17a7148d3,,,,,,,,,,,527.8039,1.2,529.0037,529.0037,529.8229,right,1,0.8168,,529.8229,530.8214,4,7,39,2,1,total,2,images/Ex2.jpg,right,reversed,easy,1,,,,,
,,,,,629e1422d8de28b42ae1a214,001,,,,,2024-02-25_21h15.58.704,CRL1e,2023.2.3,Linux x86_64,59.88023952,65dbad3905fde4fe1981dc61,65dbae047ec91fe17a7148d3,,,,,,,,,,,530.822,0.9,531.7225,531.7225,532.4565,right,1,0.7261,,532.4572,533.4571,5,0,40,1,1,total,2,images/Ex1.jpg,right,reversed,easy,1,,,,,
,,,,,629e1422d8de28b42ae1a214,001,,,,,2024-02-25_21h15.58.704,CRL1e,2023.2.3,Linux x86_64,59.88023952,65dbad3905fde4fe1981dc61,65dbae047ec91fe17a7148d3,,,,,,,,,,,533.4575,0.6,534.0574,534.0575,534.6418,left,1,0.5774,,534.6419,535.6423,5,1,41,5,1,total,2,images/Ex3.jpg,left,reversed,easy,1,,,,,
,,,,,629e1422d8de28b42ae1a214,001,,,,,2024-02-25_21h15.58.704,CRL1e,2023.2.3,Linux x86_64,59.88023952,65dbad3905fde4fe1981dc61,65dbae047ec91fe17a7148d3,,,,,,,,,,,535.6427,1.2,536.843,536.843,537.6109,right,1,0.7612,,537.6109,538.6112,5,2,42,2,1,total,2,images/Ex2.jpg,right,reversed,easy,1,,,,,
,,,,,629e1422d8de28b42ae1a214,001,,,,,2024-02-25_21h15.58.704,CRL1e,2023.2.3,Linux x86_64,59.88023952,65dbad3905fde4fe1981dc61,65dbae047ec91fe17a7148d3,,,,,,,,,,,538.6117,1.2,539.8127,539.8127,540.2961,left,1,0.481,,540.2961,541.297,5,3,43,4,1,total,2,images/Ex3.jpg,left,reversed,easy,1,,,,,
,,,,,629e1422d8de28b42ae1a214,001,,,,,2024-02-25_21h15.58.704,CRL1e,2023.2.3,Linux x86_64,59.88023952,65dbad3905fde4fe1981dc61,65dbae047ec91fe17a7148d3,,,,,,,,,,,541.2976,1.1,542.3978,542.3978,543.3319,right,0,0.9293,,543.3319,544.3326,5,4,44,6,1,total,2,images/Ex4.jpg,left,reversed,easy,1,,,,,
,,,,,629e1422d8de28b42ae1a214,001,,,,,2024-02-25_21h15.58.704,CRL1e,2023.2.3,Linux x86_64,59.88023952,65dbad3905fde4fe1981dc61,65dbae047ec91fe17a7148d3,,,,,,,,,,,544.333,0.6,544.9331,544.9332,545.4004,left,1,0.4637,,545.4005,546.4011,5,5,45,7,1,total,2,images/Ex4.jpg,left,reversed,easy,1,,,,,
,,,,,629e1422d8de28b42ae1a214,001,,,,,2024-02-25_21h15.58.704,CRL1e,2023.2.3,Linux x86_64,59.88023952,65dbad3905fde4fe1981dc61,65dbae047ec91fe17a7148d3,,,,,,,,,,,546.4015,0.9,547.3019,547.3019,547.8692,right,1,0.5616,,547.8692,548.8699,5,6,46,3,1,total,2,images/Ex2.jpg,right,reversed,easy,1,,,,,
,,,,,629e1422d8de28b42ae1a214,001,,,,,2024-02-25_21h15.58.704,CRL1e,2023.2.3,Linux x86_64,59.88023952,65dbad3905fde4fe1981dc61,65dbae047ec91fe17a7148d3,,,,,,,,,,,548.8703,0.8,549.6705,549.6705,550.4379,right,1,0.7606,,550.4379,551.4387,5,7,47,0,1,total,2,images/Ex1.jpg,right,reversed,easy,1,,,,,
,,,,,629e1422d8de28b42ae1a214,001,,,,,2024-02-25_21h15.58.704,CRL1e,2023.2.3,Linux x86_64,59.88023952,65dbad3905fde4fe1981dc61,65dbae047ec91fe17a7148d3,,,,,,,,,,,,,,,,,,,,,,,,,,,,,,,,,,551.4395,579.3418,space,27.8629,