infCons.started,infCons.stopped,resp_consent.keys,resp_consent.rt,resp_consent.duration,participant,session,Age?,Gender?,Nationality?,Highest Educational Degree?,date,expName,psychopyVersion,OS,frameRate,STUDY_ID,SESSION_ID,instructions.started,instructions.stopped,resp_instructions.keys,resp_instructions.rt,resp_instructions.duration,nextTask.started,nextTask.stopped,ready_task.keys,ready_task.rt,ready_task.duration,fixation.started,ITI,fixation.stopped,stim.started,stim.stopped,response.keys,response.corr,response.rt,response.duration,feedback.started,feedback.stopped,trials.thisRepN,trials.thisTrialN,trials.thisN,trials.thisIndex,trials.ran,task,phase,Exemplars,r_correct,condition,difficulty,set,end.started,end.stopped,resp_end.keys,resp_end.rt,resp_end.duration
0.0002,6.6032,space,6.5743,,63614851eba9f853fc9ffb45,001,23,male,United Kingdom,College,2024-02-26_18h17.09.385,CRL1e,2023.2.3,MacIntel,61.72839506,65dbad3905fde4fe1981dc61,65dcd568e2fb1f27d251b62b,,,,,,,,,,,,,,,,,,,,,,,,,,,,,,,,,,,,,,
,,,,,63614851eba9f853fc9ffb45,001,23,male,United Kingdom,College,2024-02-26_18h17.09.385,CRL1e,2023.2.3,MacIntel,61.72839506,65dbad3905fde4fe1981dc61,65dcd568e2fb1f27d251b62b,6.6036,108.441,space,101.8133,,,,,,,,,,,,,,,,,,,,,,,,,,,,,,,,,,
,,,,,63614851eba9f853fc9ffb45,001,23,male,United Kingdom,College,2024-02-26_18h17.09.385,CRL1e,2023.2.3,MacIntel,61.72839506,65dbad3905fde4fe1981dc61,65dcd568e2fb1f27d251b62b,,,,,,108.4581,111.4905,space,3.0125,,111.497,0.9,112.3902,112.3904,127.0076,left,1,14.6007,,127.0185,128.0076,0,0,0,2,1,total,1,images/Ex10.jpg,left,training,easy,6,,,,,
,,,,,63614851eba9f853fc9ffb45,001,23,male,United Kingdom,College,2024-02-26_18h17.09.385,CRL1e,2023.2.3,MacIntel,61.72839506,65dbad3905fde4fe1981dc61,65dcd568e2fb1f27d251b62b,,,,,,,,,,,128.0089,1.1,129.1075,129.1075,130.2411,right,0,1.1189,,130.2412,131.2409,0,1,1,1,1,total,1,images/Ex9.jpg,left,training,easy,6,,,,,
,,,,,63614851eba9f853fc9ffb45,001,23,male,United Kingdom,College,2024-02-26_18h17.09.385,CRL1e,2023.2.3,MacIntel,61.72839506,65dbad3905fde4fe1981dc61,65dcd568e2fb1f27d251b62b,,,,,,,,,,,131.242,1.2,132.4411,132.4412,133.691,left,0,1.2401,,133.691,134.691,0,2,2,4,1,total,1,images/Ex11.jpg,right,training,easy,6,,,,,
,,,,,63614851eba9f853fc9ffb45,001,23,male,United Kingdom,College,2024-02-26_18h17.09.385,CRL1e,2023.2.3,MacIntel,61.72839506,65dbad3905fde4fe1981dc61,65dcd568e2fb1f27d251b62b,,,,,,,,,,,134.6916,0.7,135.3902,135.3903,136.5578,left,1,1.1538,,136.5579,137.5577,0,3,3,3,1,total,1,images/Ex10.jpg,left,training,easy,6,,,,,
,,,,,63614851eba9f853fc9ffb45,001,23,male,United Kingdom,College,2024-02-26_18h17.09.385,CRL1e,2023.2.3,MacIntel,61.72839506,65dbad3905fde4fe1981dc61,65dcd568e2fb1f27d251b62b,,,,,,,,,,,137.5676,0.9,138.4578,138.4579,139.541,right,1,1.0809,,139.541,140.5411,0,4,4,6,1,total,1,images/Ex12.jpg,right,training,easy,6,,,,,
,,,,,63614851eba9f853fc9ffb45,001,23,male,United Kingdom,College,2024-02-26_18h17.09.385,CRL1e,2023.2.3,MacIntel,61.72839506,65dbad3905fde4fe1981dc61,65dcd568e2fb1f27d251b62b,,,,,,,,,,,140.5416,0.9,141.4411,141.4413,142.1081,right,1,0.6553,,142.1082,143.1081,0,5,5,7,1,total,1,images/Ex12.jpg,right,training,easy,6,,,,,
,,,,,63614851eba9f853fc9ffb45,001,23,male,United Kingdom,College,2024-02-26_18h17.09.385,CRL1e,2023.2.3,MacIntel,61.72839506,65dbad3905fde4fe1981dc61,65dcd568e2fb1f27d251b62b,,,,,,,,,,,143.1087,1.4,144.5082,144.5082,145.3078,right,1,0.79,,145.3079,146.3081,0,6,6,5,1,total,1,images/Ex11.jpg,right,training,easy,6,,,,,
,,,,,63614851eba9f853fc9ffb45,001,23,male,United Kingdom,College,2024-02-26_18h17.09.385,CRL1e,2023.2.3,MacIntel,61.72839506,65dbad3905fde4fe1981dc61,65dcd568e2fb1f27d251b62b,,,,,,,,,,,146.3087,1.1,147.4081,147.4083,148.1752,right,0,0.7533,,148.1753,149.1748,0,7,7,0,1,total,1,images/Ex9.jpg,left,training,easy,6,,,,,
,,,,,63614851eba9f853fc9ffb45,001,23,male,United Kingdom,College,2024-02-26_18h17.09.385,CRL1e,2023.2.3,MacIntel,61.72839506,65dbad3905fde4fe1981dc61,65dcd568e2fb1f27d251b62b,,,,,,,,,,,149.1754,0.6,149.775,149.775,150.4751,right,1,0.6885,,150.4752,151.4749,1,0,8,7,1,total,1,images/Ex12.jpg,right,training,easy,6,,,,,
,,,,,63614851eba9f853fc9ffb45,001,23,male,United Kingdom,College,2024-02-26_18h17.09.385,CRL1e,2023.2.3,MacIntel,61.72839506,65dbad3905fde4fe1981dc61,65dcd568e2fb1f27d251b62b,,,,,,,,,,,151.4756,1.3,152.7749,152.7749,153.308,right,1,0.5257,,153.308,154.3084,1,1,9,6,1,total,1,images/Ex12.jpg,right,training,easy,6,,,,,
,,,,,63614851eba9f853fc9ffb45,001,23,male,United Kingdom,College,2024-02-26_18h17.09.385,CRL1e,2023.2.3,MacIntel,61.72839506,65dbad3905fde4fe1981dc61,65dcd568e2fb1f27d251b62b,,,,,,,,,,,154.309,0.6,154.9083,154.9084,155.542,left,0,0.6214,,155.5421,156.5417,1,2,10,5,1,total,1,images/Ex11.jpg,right,training,easy,6,,,,,
,,,,,63614851eba9f853fc9ffb45,001,23,male,United Kingdom,College,2024-02-26_18h17.09.385,CRL1e,2023.2.3,MacIntel,61.72839506,65dbad3905fde4fe1981dc61,65dcd568e2fb1f27d251b62b,,,,,,,,,,,156.5422,0.9,157.4416,157.4416,157.892,right,0,0.4389,,157.892,158.8919,1,3,11,2,1,total,1,images/Ex10.jpg,left,training,easy,6,,,,,
,,,,,63614851eba9f853fc9ffb45,001,23,male,United Kingdom,College,2024-02-26_18h17.09.385,CRL1e,2023.2.3,MacIntel,61.72839506,65dbad3905fde4fe1981dc61,65dcd568e2fb1f27d251b62b,,,,,,,,,,,158.8924,0.9,159.7919,159.792,160.492,right,0,0.6871,,160.4921,161.492,1,4,12,0,1,total,1,images/Ex9.jpg,left,training,easy,6,,,,,
,,,,,63614851eba9f853fc9ffb45,001,23,male,United Kingdom,College,2024-02-26_18h17.09.385,CRL1e,2023.2.3,MacIntel,61.72839506,65dbad3905fde4fe1981dc61,65dcd568e2fb1f27d251b62b,,,,,,,,,,,161.4925,0.9,162.3919,162.392,163.2748,left,0,0.8707,,163.2748,164.2753,1,5,13,4,1,total,1,images/Ex11.jpg,right,training,easy,6,,,,,
,,,,,63614851eba9f853fc9ffb45,001,23,male,United Kingdom,College,2024-02-26_18h17.09.385,CRL1e,2023.2.3,MacIntel,61.72839506,65dbad3905fde4fe1981dc61,65dcd568e2fb1f27d251b62b,,,,,,,,,,,164.2759,1.4,165.6754,165.6755,166.5257,left,1,0.8393,,166.5257,167.5255,1,6,14,3,1,total,1,images/Ex10.jpg,left,training,easy,6,,,,,
,,,,,63614851eba9f853fc9ffb45,001,23,male,United Kingdom,College,2024-02-26_18h17.09.385,CRL1e,2023.2.3,MacIntel,61.72839506,65dbad3905fde4fe1981dc61,65dcd568e2fb1f27d251b62b,,,,,,,,,,,167.5261,1.3,168.8253,168.8254,169.359,right,0,0.5201,,169.3591,170.3583,1,7,15,1,1,total,1,images/Ex9.jpg,left,training,easy,6,,,,,
,,,,,63614851eba9f853fc9ffb45,001,23,male,United Kingdom,College,2024-02-26_18h17.09.385,CRL1e,2023.2.3,MacIntel,61.72839506,65dbad3905fde4fe1981dc61,65dcd568e2fb1f27d251b62b,,,,,,,,,,,170.3586,1.4,171.759,171.7592,172.3923,right,0,0.6198,,172.3923,173.3923,2,0,16,1,1,total,1,images/Ex9.jpg,left,training,easy,6,,,,,
,,,,,63614851eba9f853fc9ffb45,001,23,male,United Kingdom,College,2024-02-26_18h17.09.385,CRL1e,2023.2.3,MacIntel,61.72839506,65dbad3905fde4fe1981dc61,65dcd568e2fb1f27d251b62b,,,,,,,,,,,173.3929,1.3,174.6925,174.6925,175.1427,left,1,0.4369,,175.1429,176.1427,2,1,17,2,1,total,1,images/Ex10.jpg,left,training,easy,6,,,,,
,,,,,63614851eba9f853fc9ffb45,001,23,male,United Kingdom,College,2024-02-26_18h17.09.385,CRL1e,2023.2.3,MacIntel,61.72839506,65dbad3905fde4fe1981dc61,65dcd568e2fb1f27d251b62b,,,,,,,,,,,176.1434,0.8,176.9425,176.9426,177.6429,right,1,0.6872,,177.643,178.6424,2,2,18,5,1,total,1,images/Ex11.jpg,right,training,easy,6,,,,,
,,,,,63614851eba9f853fc9ffb45,001,23,male,United Kingdom,College,2024-02-26_18h17.09.385,CRL1e,2023.2.3,MacIntel,61.72839506,65dbad3905fde4fe1981dc61,65dcd568e2fb1f27d251b62b,,,,,,,,,,,178.6431,1.2,179.8427,179.8427,183.0263,left,1,3.1711,,183.0264,184.026,2,3,19,0,1,total,1,images/Ex9.jpg,left,training,easy,6,,,,,
,,,,,63614851eba9f853fc9ffb45,001,23,male,United Kingdom,College,2024-02-26_18h17.09.385,CRL1e,2023.2.3,MacIntel,61.72839506,65dbad3905fde4fe1981dc61,65dcd568e2fb1f27d251b62b,,,,,,,,,,,184.0366,1.4,185.4254,185.4255,188.1096,left,0,2.6729,,188.1097,189.1095,2,4,20,6,1,total,1,images/Ex12.jpg,right,training,easy,6,,,,,
,,,,,63614851eba9f853fc9ffb45,001,23,male,United Kingdom,College,2024-02-26_18h17.09.385,CRL1e,2023.2.3,MacIntel,61.72839506,65dbad3905fde4fe1981dc61,65dcd568e2fb1f27d251b62b,,,,,,,,,,,189.1199,1.1,190.2096,190.2097,190.5099,right,1,0.2867,,190.5099,191.5098,2,5,21,4,1,total,1,images/Ex11.jpg,right,training,easy,6,,,,,
,,,,,63614851eba9f853fc9ffb45,001,23,male,United Kingdom,College,2024-02-26_18h17.09.385,CRL1e,2023.2.3,MacIntel,61.72839506,65dbad3905fde4fe1981dc61,65dcd568e2fb1f27d251b62b,,,,,,,,,,,191.5103,0.8,192.3097,192.3098,193.5594,right,1,1.2388,,193.5596,194.5597,2,6,22,7,1,total,1,images/Ex12.jpg,right,training,easy,6,,,,,
,,,,,63614851eba9f853fc9ffb45,001,23,male,United Kingdom,College,2024-02-26_18h17.09.385,CRL1e,2023.2.3,MacIntel,61.72839506,65dbad3905fde4fe1981dc61,65dcd568e2fb1f27d251b62b,,,,,,,,,,,194.5605,1,195.5599,195.56,196.3595,left,1,0.7869,,196.3596,197.3599,2,7,23,3,1,total,1,images/Ex10.jpg,left,training,easy,6,,,,,
,,,,,63614851eba9f853fc9ffb45,001,23,male,United Kingdom,College,2024-02-26_18h17.09.385,CRL1e,2023.2.3,MacIntel,61.72839506,65dbad3905fde4fe1981dc61,65dcd568e2fb1f27d251b62b,,,,,,,,,,,197.3606,1.4,198.7599,198.76,202.3934,right,0,3.6209,,202.3935,203.3935,3,0,24,1,1,total,1,images/Ex9.jpg,left,training,easy,6,,,,,
,,,,,63614851eba9f853fc9ffb45,001,23,male,United Kingdom,College,2024-02-26_18h17.09.385,CRL1e,2023.2.3,MacIntel,61.72839506,65dbad3905fde4fe1981dc61,65dcd568e2fb1f27d251b62b,,,,,,,,,,,203.404,1.1,204.4934,204.4935,205.1436,right,0,0.6377,,205.1436,206.1436,3,1,25,0,1,total,1,images/Ex9.jpg,left,training,easy,6,,,,,
,,,,,63614851eba9f853fc9ffb45,001,23,male,United Kingdom,College,2024-02-26_18h17.09.385,CRL1e,2023.2.3,MacIntel,61.72839506,65dbad3905fde4fe1981dc61,65dcd568e2fb1f27d251b62b,,,,,,,,,,,206.1442,1,207.1434,207.1435,207.8436,left,0,0.6878,,207.8437,208.8436,3,2,26,7,1,total,1,images/Ex12.jpg,right,training,easy,6,,,,,
,,,,,63614851eba9f853fc9ffb45,001,23,male,United Kingdom,College,2024-02-26_18h17.09.385,CRL1e,2023.2.3,MacIntel,61.72839506,65dbad3905fde4fe1981dc61,65dcd568e2fb1f27d251b62b,,,,,,,,,,,208.8442,1.2,210.0436,210.0437,213.5938,right,1,3.5375,,213.5938,214.5939,3,3,27,5,1,total,1,images/Ex11.jpg,right,training,easy,6,,,,,
,,,,,63614851eba9f853fc9ffb45,001,23,male,United Kingdom,College,2024-02-26_18h17.09.385,CRL1e,2023.2.3,MacIntel,61.72839506,65dbad3905fde4fe1981dc61,65dcd568e2fb1f27d251b62b,,,,,,,,,,,214.6045,1.4,215.9939,215.994,216.8442,left,1,0.837,,216.8442,217.8439,3,4,28,2,1,total,1,images/Ex10.jpg,left,training,easy,6,,,,,
,,,,,63614851eba9f853fc9ffb45,001,23,male,United Kingdom,College,2024-02-26_18h17.09.385,CRL1e,2023.2.3,MacIntel,61.72839506,65dbad3905fde4fe1981dc61,65dcd568e2fb1f27d251b62b,,,,,,,,,,,217.8446,0.9,218.7433,218.7433,219.4107,left,1,0.6553,,219.4108,220.4106,3,5,29,3,1,total,1,images/Ex10.jpg,left,training,easy,6,,,,,
,,,,,63614851eba9f853fc9ffb45,001,23,male,United Kingdom,College,2024-02-26_18h17.09.385,CRL1e,2023.2.3,MacIntel,61.72839506,65dbad3905fde4fe1981dc61,65dcd568e2fb1f27d251b62b,,,,,,,,,,,220.4114,0.7,221.1107,221.1107,223.111,right,1,1.9878,,223.111,224.1109,3,6,30,4,1,total,1,images/Ex11.jpg,right,training,easy,6,,,,,
,,,,,63614851eba9f853fc9ffb45,001,23,male,United Kingdom,College,2024-02-26_18h17.09.385,CRL1e,2023.2.3,MacIntel,61.72839506,65dbad3905fde4fe1981dc61,65dcd568e2fb1f27d251b62b,,,,,,,,,,,224.1226,1,225.1109,225.1109,226.911,right,1,1.7869,,226.911,227.911,3,7,31,6,1,total,1,images/Ex12.jpg,right,training,easy,6,,,,,
,,,,,63614851eba9f853fc9ffb45,001,23,male,United Kingdom,College,2024-02-26_18h17.09.385,CRL1e,2023.2.3,MacIntel,61.72839506,65dbad3905fde4fe1981dc61,65dcd568e2fb1f27d251b62b,,,,,,,,,,,227.9218,1.5,229.4103,229.4104,230.3612,right,1,0.9385,,230.3612,231.3612,4,0,32,6,1,total,1,images/Ex12.jpg,right,training,easy,6,,,,,
,,,,,63614851eba9f853fc9ffb45,001,23,male,United Kingdom,College,2024-02-26_18h17.09.385,CRL1e,2023.2.3,MacIntel,61.72839506,65dbad3905fde4fe1981dc61,65dcd568e2fb1f27d251b62b,,,,,,,,,,,231.3617,1,232.3611,232.3612,233.011,left,1,0.648,,233.011,234.0112,4,1,33,2,1,total,1,images/Ex10.jpg,left,training,easy,6,,,,,
,,,,,63614851eba9f853fc9ffb45,001,23,male,United Kingdom,College,2024-02-26_18h17.09.385,CRL1e,2023.2.3,MacIntel,61.72839506,65dbad3905fde4fe1981dc61,65dcd568e2fb1f27d251b62b,,,,,,,,,,,234.0119,1.2,235.2112,235.2112,236.0282,right,1,0.8031,,236.0283,237.0282,4,2,34,7,1,total,1,images/Ex12.jpg,right,training,easy,6,,,,,
,,,,,63614851eba9f853fc9ffb45,001,23,male,United Kingdom,College,2024-02-26_18h17.09.385,CRL1e,2023.2.3,MacIntel,61.72839506,65dbad3905fde4fe1981dc61,65dcd568e2fb1f27d251b62b,,,,,,,,,,,237.0289,1.3,238.328,238.3281,239.1948,left,1,0.8563,,239.1948,240.1948,4,3,35,3,1,total,1,images/Ex10.jpg,left,training,easy,6,,,,,
,,,,,63614851eba9f853fc9ffb45,001,23,male,United Kingdom,College,2024-02-26_18h17.09.385,CRL1e,2023.2.3,MacIntel,61.72839506,65dbad3905fde4fe1981dc61,65dcd568e2fb1f27d251b62b,,,,,,,,,,,240.1955,0.6,240.7948,240.7948,241.8614,left,1,1.0532,,241.8615,242.8615,4,4,36,1,1,total,1,images/Ex9.jpg,left,training,easy,6,,,,,
,,,,,63614851eba9f853fc9ffb45,001,23,male,United Kingdom,College,2024-02-26_18h17.09.385,CRL1e,2023.2.3,MacIntel,61.72839506,65dbad3905fde4fe1981dc61,65dcd568e2fb1f27d251b62b,,,,,,,,,,,242.8621,1.1,243.9615,243.9616,245.095,right,1,1.1211,,245.095,246.0949,4,5,37,5,1,total,1,images/Ex11.jpg,right,training,easy,6,,,,,
,,,,,63614851eba9f853fc9ffb45,001,23,male,United Kingdom,College,2024-02-26_18h17.09.385,CRL1e,2023.2.3,MacIntel,61.72839506,65dbad3905fde4fe1981dc61,65dcd568e2fb1f27d251b62b,,,,,,,,,,,246.0956,0.6,246.6951,246.6951,247.2784,right,1,0.57,,247.2784,248.2784,4,6,38,4,1,total,1,images/Ex11.jpg,right,training,easy,6,,,,,
,,,,,63614851eba9f853fc9ffb45,001,23,male,United Kingdom,College,2024-02-26_18h17.09.385,CRL1e,2023.2.3,MacIntel,61.72839506,65dbad3905fde4fe1981dc61,65dcd568e2fb1f27d251b62b,,,,,,,,,,,248.2791,0.8,249.0785,249.0785,249.6787,left,1,0.5877,,249.6788,250.6786,4,7,39,0,1,total,1,images/Ex9.jpg,left,training,easy,6,,,,,
,,,,,63614851eba9f853fc9ffb45,001,23,male,United Kingdom,College,2024-02-26_18h17.09.385,CRL1e,2023.2.3,MacIntel,61.72839506,65dbad3905fde4fe1981dc61,65dcd568e2fb1f27d251b62b,,,,,,,,,,,250.6792,0.7,251.3787,251.3787,252.0618,right,1,0.6709,,252.0619,253.0612,5,0,40,4,1,total,1,images/Ex11.jpg,right,training,easy,6,,,,,
,,,,,63614851eba9f853fc9ffb45,001,23,male,United Kingdom,College,2024-02-26_18h17.09.385,CRL1e,2023.2.3,MacIntel,61.72839506,65dbad3905fde4fe1981dc61,65dcd568e2fb1f27d251b62b,,,,,,,,,,,253.0619,1.4,254.4619,254.462,254.9446,left,1,0.4711,,254.9446,255.9447,5,1,41,3,1,total,1,images/Ex10.jpg,left,training,easy,6,,,,,
,,,,,63614851eba9f853fc9ffb45,001,23,male,United Kingdom,College,2024-02-26_18h17.09.385,CRL1e,2023.2.3,MacIntel,61.72839506,65dbad3905fde4fe1981dc61,65dcd568e2fb1f27d251b62b,,,,,,,,,,,255.9453,0.9,256.8444,256.8444,257.4123,left,1,0.557,,257.4123,258.4122,5,2,42,2,1,total,1,images/Ex10.jpg,left,training,easy,6,,,,,
,,,,,63614851eba9f853fc9ffb45,001,23,male,United Kingdom,College,2024-02-26_18h17.09.385,CRL1e,2023.2.3,MacIntel,61.72839506,65dbad3905fde4fe1981dc61,65dcd568e2fb1f27d251b62b,,,,,,,,,,,258.413,1.2,259.6123,259.6123,260.0626,right,1,0.4372,,260.0627,261.062,5,3,43,5,1,total,1,images/Ex11.jpg,right,training,easy,6,,,,,
,,,,,63614851eba9f853fc9ffb45,001,23,male,United Kingdom,College,2024-02-26_18h17.09.385,CRL1e,2023.2.3,MacIntel,61.72839506,65dbad3905fde4fe1981dc61,65dcd568e2fb1f27d251b62b,,,,,,,,,,,261.0627,1.2,262.2622,262.2622,262.9124,left,1,0.6403,,262.9124,263.9124,5,4,44,1,1,total,1,images/Ex9.jpg,left,training,easy,6,,,,,
,,,,,63614851eba9f853fc9ffb45,001,23,male,United Kingdom,College,2024-02-26_18h17.09.385,CRL1e,2023.2.3,MacIntel,61.72839506,65dbad3905fde4fe1981dc61,65dcd568e2fb1f27d251b62b,,,,,,,,,,,263.9129,0.6,264.5113,264.5113,264.9949,left,1,0.4723,,264.9949,265.9959,5,5,45,0,1,total,1,images/Ex9.jpg,left,training,easy,6,,,,,
,,,,,63614851eba9f853fc9ffb45,001,23,male,United Kingdom,College,2024-02-26_18h17.09.385,CRL1e,2023.2.3,MacIntel,61.72839506,65dbad3905fde4fe1981dc61,65dcd568e2fb1f27d251b62b,,,,,,,,,,,265.9966,1,266.9958,266.9958,268.1957,right,1,1.1978,,268.1958,269.1957,5,6,46,7,1,total,1,images/Ex12.jpg,right,training,easy,6,,,,,
,,,,,63614851eba9f853fc9ffb45,001,23,male,United Kingdom,College,2024-02-26_18h17.09.385,CRL1e,2023.2.3,MacIntel,61.72839506,65dbad3905fde4fe1981dc61,65dcd568e2fb1f27d251b62b,,,,,,,,,,,269.1963,0.8,269.9958,269.9958,270.4125,right,1,0.4097,,270.4126,271.4127,5,7,47,6,1,total,1,images/Ex12.jpg,right,training,easy,6,,,,,
,,,,,63614851eba9f853fc9ffb45,001,23,male,United Kingdom,College,2024-02-26_18h17.09.385,CRL1e,2023.2.3,MacIntel,61.72839506,65dbad3905fde4fe1981dc61,65dcd568e2fb1f27d251b62b,,,,,,,,,,,271.4176,1.4,272.8121,272.8121,273.2116,left,0,0.3908,,273.2117,274.2126,0,0,0,3,1,total,2,images/Ex10.jpg,right,reversed,easy,6,,,,,
,,,,,63614851eba9f853fc9ffb45,001,23,male,United Kingdom,College,2024-02-26_18h17.09.385,CRL1e,2023.2.3,MacIntel,61.72839506,65dbad3905fde4fe1981dc61,65dcd568e2fb1f27d251b62b,,,,,,,,,,,274.2131,0.9,275.1128,275.1128,275.9628,left,0,0.8382,,275.9628,276.9624,0,1,1,2,1,total,2,images/Ex10.jpg,right,reversed,easy,6,,,,,
,,,,,63614851eba9f853fc9ffb45,001,23,male,United Kingdom,College,2024-02-26_18h17.09.385,CRL1e,2023.2.3,MacIntel,61.72839506,65dbad3905fde4fe1981dc61,65dcd568e2fb1f27d251b62b,,,,,,,,,,,276.9633,1.5,278.463,278.4631,279.296,left,0,0.8211,,279.296,280.2962,0,2,2,1,1,total,2,images/Ex9.jpg,right,reversed,easy,6,,,,,
,,,,,63614851eba9f853fc9ffb45,001,23,male,United Kingdom,College,2024-02-26_18h17.09.385,CRL1e,2023.2.3,MacIntel,61.72839506,65dbad3905fde4fe1981dc61,65dcd568e2fb1f27d251b62b,,,,,,,,,,,280.2968,0.6,280.8962,280.8963,281.8956,right,0,0.9874,,281.8956,282.8963,0,3,3,4,1,total,2,images/Ex11.jpg,left,reversed,easy,6,,,,,
,,,,,63614851eba9f853fc9ffb45,001,23,male,United Kingdom,College,2024-02-26_18h17.09.385,CRL1e,2023.2.3,MacIntel,61.72839506,65dbad3905fde4fe1981dc61,65dcd568e2fb1f27d251b62b,,,,,,,,,,,282.897,0.6,283.4964,283.4965,284.3799,right,1,0.8714,,284.3799,285.3797,0,4,4,0,1,total,2,images/Ex9.jpg,right,reversed,easy,6,,,,,
,,,,,63614851eba9f853fc9ffb45,001,23,male,United Kingdom,College,2024-02-26_18h17.09.385,CRL1e,2023.2.3,MacIntel,61.72839506,65dbad3905fde4fe1981dc61,65dcd568e2fb1f27d251b62b,,,,,,,,,,,285.3804,0.6,285.9798,285.9798,286.6957,left,1,0.7047,,286.6957,287.6966,0,5,5,7,1,total,2,images/Ex12.jpg,left,reversed,easy,6,,,,,
,,,,,63614851eba9f853fc9ffb45,001,23,male,United Kingdom,College,2024-02-26_18h17.09.385,CRL1e,2023.2.3,MacIntel,61.72839506,65dbad3905fde4fe1981dc61,65dcd568e2fb1f27d251b62b,,,,,,,,,,,287.6973,1.4,289.0966,289.0966,289.8134,left,1,0.7042,,289.8135,290.813,0,6,6,6,1,total,2,images/Ex12.jpg,left,reversed,easy,6,,,,,
,,,,,63614851eba9f853fc9ffb45,001,23,male,United Kingdom,College,2024-02-26_18h17.09.385,CRL1e,2023.2.3,MacIntel,61.72839506,65dbad3905fde4fe1981dc61,65dcd568e2fb1f27d251b62b,,,,,,,,,,,290.8135,1.2,292.0134,292.0134,292.9132,left,1,0.8954,,292.9132,293.9134,0,7,7,5,1,total,2,images/Ex11.jpg,left,reversed,easy,6,,,,,
,,,,,63614851eba9f853fc9ffb45,001,23,male,United Kingdom,College,2024-02-26_18h17.09.385,CRL1e,2023.2.3,MacIntel,61.72839506,65dbad3905fde4fe1981dc61,65dcd568e2fb1f27d251b62b,,,,,,,,,,,293.9139,1.4,295.3124,295.3125,296.6302,left,0,1.3091,,296.6302,297.6302,1,0,8,1,1,total,2,images/Ex9.jpg,right,reversed,easy,6,,,,,
,,,,,63614851eba9f853fc9ffb45,001,23,male,United Kingdom,College,2024-02-26_18h17.09.385,CRL1e,2023.2.3,MacIntel,61.72839506,65dbad3905fde4fe1981dc61,65dcd568e2fb1f27d251b62b,,,,,,,,,,,297.6415,0.9,298.5294,298.5294,299.2794,right,1,0.7371,,299.2795,300.2802,1,1,9,3,1,total,2,images/Ex10.jpg,right,reversed,easy,6,,,,,
,,,,,63614851eba9f853fc9ffb45,001,23,male,United Kingdom,College,2024-02-26_18h17.09.385,CRL1e,2023.2.3,MacIntel,61.72839506,65dbad3905fde4fe1981dc61,65dcd568e2fb1f27d251b62b,,,,,,,,,,,300.2809,0.9,301.1801,301.1801,302.1302,right,1,0.937,,302.1303,303.1305,1,2,10,0,1,total,2,images/Ex9.jpg,right,reversed,easy,6,,,,,
,,,,,63614851eba9f853fc9ffb45,001,23,male,United Kingdom,College,2024-02-26_18h17.09.385,CRL1e,2023.2.3,MacIntel,61.72839506,65dbad3905fde4fe1981dc61,65dcd568e2fb1f27d251b62b,,,,,,,,,,,303.1312,1.3,304.4304,304.4305,305.9306,left,1,1.4886,,305.9307,306.9296,1,3,11,6,1,total,2,images/Ex12.jpg,left,reversed,easy,6,,,,,
,,,,,63614851eba9f853fc9ffb45,001,23,male,United Kingdom,College,2024-02-26_18h17.09.385,CRL1e,2023.2.3,MacIntel,61.72839506,65dbad3905fde4fe1981dc61,65dcd568e2fb1f27d251b62b,,,,,,,,,,,306.9302,1,307.9307,307.9307,308.9807,right,0,1.0373,,308.9808,309.9806,1,4,12,5,1,total,2,images/Ex11.jpg,left,reversed,easy,6,,,,,
,,,,,63614851eba9f853fc9ffb45,001,23,male,United Kingdom,College,2024-02-26_18h17.09.385,CRL1e,2023.2.3,MacIntel,61.72839506,65dbad3905fde4fe1981dc61,65dcd568e2fb1f27d251b62b,,,,,,,,,,,309.9813,1.1,311.0808,311.0808,311.6141,left,1,0.5221,,311.6142,312.6135,1,5,13,4,1,total,2,images/Ex11.jpg,left,reversed,easy,6,,,,,
,,,,,63614851eba9f853fc9ffb45,001,23,male,United Kingdom,College,2024-02-26_18h17.09.385,CRL1e,2023.2.3,MacIntel,61.72839506,65dbad3905fde4fe1981dc61,65dcd568e2fb1f27d251b62b,,,,,,,,,,,312.6141,1.3,313.9141,313.9142,315.4639,right,1,1.5474,,315.4639,316.4634,1,6,14,2,1,total,2,images/Ex10.jpg,right,reversed,easy,6,,,,,
,,,,,63614851eba9f853fc9ffb45,001,23,male,United Kingdom,College,2024-02-26_18h17.09.385,CRL1e,2023.2.3,MacIntel,61.72839506,65dbad3905fde4fe1981dc61,65dcd568e2fb1f27d251b62b,,,,,,,,,,,316.4641,1.4,317.8643,317.8644,318.881,right,0,1.0028,,318.8811,319.8811,1,7,15,7,1,total,2,images/Ex12.jpg,left,reversed,easy,6,,,,,
,,,,,63614851eba9f853fc9ffb45,001,23,male,United Kingdom,College,2024-02-26_18h17.09.385,CRL1e,2023.2.3,MacIntel,61.72839506,65dbad3905fde4fe1981dc61,65dcd568e2fb1f27d251b62b,,,,,,,,,,,319.8818,0.5,320.3809,320.3811,320.7646,left,1,0.3713,,320.7647,321.7644,2,0,16,6,1,total,2,images/Ex12.jpg,left,reversed,easy,6,,,,,
,,,,,63614851eba9f853fc9ffb45,001,23,male,United Kingdom,College,2024-02-26_18h17.09.385,CRL1e,2023.2.3,MacIntel,61.72839506,65dbad3905fde4fe1981dc61,65dcd568e2fb1f27d251b62b,,,,,,,,,,,321.765,0.5,322.2643,322.2643,322.6979,left,1,0.4219,,322.6979,323.6977,2,1,17,7,1,total,2,images/Ex12.jpg,left,reversed,easy,6,,,,,
,,,,,63614851eba9f853fc9ffb45,001,23,male,United Kingdom,College,2024-02-26_18h17.09.385,CRL1e,2023.2.3,MacIntel,61.72839506,65dbad3905fde4fe1981dc61,65dcd568e2fb1f27d251b62b,,,,,,,,,,,323.6983,0.8,324.4978,324.4978,325.1969,right,1,0.6965,,325.1969,326.1979,2,2,18,2,1,total,2,images/Ex10.jpg,right,reversed,easy,6,,,,,
,,,,,63614851eba9f853fc9ffb45,001,23,male,United Kingdom,College,2024-02-26_18h17.09.385,CRL1e,2023.2.3,MacIntel,61.72839506,65dbad3905fde4fe1981dc61,65dcd568e2fb1f27d251b62b,,,,,,,,,,,326.1986,0.5,326.698,326.6982,329.3815,left,1,2.6723,,329.3816,330.3813,2,3,19,4,1,total,2,images/Ex11.jpg,left,reversed,easy,6,,,,,
,,,,,63614851eba9f853fc9ffb45,001,23,male,United Kingdom,College,2024-02-26_18h17.09.385,CRL1e,2023.2.3,MacIntel,61.72839506,65dbad3905fde4fe1981dc61,65dcd568e2fb1f27d251b62b,,,,,,,,,,,330.392,1.3,331.6809,331.6809,332.7982,left,1,1.1054,,332.7982,333.7982,2,4,20,5,1,total,2,images/Ex11.jpg,left,reversed,easy,6,,,,,
,,,,,63614851eba9f853fc9ffb45,001,23,male,United Kingdom,College,2024-02-26_18h17.09.385,CRL1e,2023.2.3,MacIntel,61.72839506,65dbad3905fde4fe1981dc61,65dcd568e2fb1f27d251b62b,,,,,,,,,,,333.7989,1.1,334.8982,334.8983,335.8652,left,0,0.9539,,335.8652,336.865,2,5,21,0,1,total,2,images/Ex9.jpg,right,reversed,easy,6,,,,,
,,,,,63614851eba9f853fc9ffb45,001,23,male,United Kingdom,College,2024-02-26_18h17.09.385,CRL1e,2023.2.3,MacIntel,61.72839506,65dbad3905fde4fe1981dc61,65dcd568e2fb1f27d251b62b,,,,,,,,,,,336.8656,0.9,337.765,337.765,339.0154,right,1,1.2373,,339.0156,340.0151,2,6,22,3,1,total,2,images/Ex10.jpg,right,reversed,easy,6,,,,,
,,,,,63614851eba9f853fc9ffb45,001,23,male,United Kingdom,College,2024-02-26_18h17.09.385,CRL1e,2023.2.3,MacIntel,61.72839506,65dbad3905fde4fe1981dc61,65dcd568e2fb1f27d251b62b,,,,,,,,,,,340.0157,0.8,340.8151,340.8152,341.7151,left,0,0.8871,,341.7151,342.7152,2,7,23,1,1,total,2,images/Ex9.jpg,right,reversed,easy,6,,,,,
,,,,,63614851eba9f853fc9ffb45,001,23,male,United Kingdom,College,2024-02-26_18h17.09.385,CRL1e,2023.2.3,MacIntel,61.72839506,65dbad3905fde4fe1981dc61,65dcd568e2fb1f27d251b62b,,,,,,,,,,,342.7158,1.2,343.9152,343.9154,344.4994,right,1,0.5729,,344.4995,345.4986,3,0,24,2,1,total,2,images/Ex10.jpg,right,reversed,easy,6,,,,,
,,,,,63614851eba9f853fc9ffb45,001,23,male,United Kingdom,College,2024-02-26_18h17.09.385,CRL1e,2023.2.3,MacIntel,61.72839506,65dbad3905fde4fe1981dc61,65dcd568e2fb1f27d251b62b,,,,,,,,,,,345.4992,1.1,346.5987,346.5987,347.1489,right,1,0.5372,,347.1489,348.1487,3,1,25,0,1,total,2,images/Ex9.jpg,right,reversed,easy,6,,,,,
,,,,,63614851eba9f853fc9ffb45,001,23,male,United Kingdom,College,2024-02-26_18h17.09.385,CRL1e,2023.2.3,MacIntel,61.72839506,65dbad3905fde4fe1981dc61,65dcd568e2fb1f27d251b62b,,,,,,,,,,,348.1496,1.3,349.4488,349.4488,350.1821,right,0,0.7209,,350.1822,351.1821,3,2,26,5,1,total,2,images/Ex11.jpg,left,reversed,easy,6,,,,,
,,,,,63614851eba9f853fc9ffb45,001,23,male,United Kingdom,College,2024-02-26_18h17.09.385,CRL1e,2023.2.3,MacIntel,61.72839506,65dbad3905fde4fe1981dc61,65dcd568e2fb1f27d251b62b,,,,,,,,,,,351.1828,1.4,352.5825,352.5826,353.2825,right,1,0.686,,353.2825,354.2822,3,3,27,3,1,total,2,images/Ex10.jpg,right,reversed,easy,6,,,,,
,,,,,63614851eba9f853fc9ffb45,001,23,male,United Kingdom,College,2024-02-26_18h17.09.385,CRL1e,2023.2.3,MacIntel,61.72839506,65dbad3905fde4fe1981dc61,65dcd568e2fb1f27d251b62b,,,,,,,,,,,354.2829,1.2,355.4823,355.4824,356.199,left,1,0.7073,,356.1991,357.1987,3,4,28,7,1,total,2,images/Ex12.jpg,left,reversed,easy,6,,,,,
,,,,,63614851eba9f853fc9ffb45,001,23,male,United Kingdom,College,2024-02-26_18h17.09.385,CRL1e,2023.2.3,MacIntel,61.72839506,65dbad3905fde4fe1981dc61,65dcd568e2fb1f27d251b62b,,,,,,,,,,,357.1994,1.4,358.5992,358.5992,359.2492,right,1,0.6366,,359.2492,360.2492,3,5,29,1,1,total,2,images/Ex9.jpg,right,reversed,easy,6,,,,,
,,,,,63614851eba9f853fc9ffb45,001,23,male,United Kingdom,College,2024-02-26_18h17.09.385,CRL1e,2023.2.3,MacIntel,61.72839506,65dbad3905fde4fe1981dc61,65dcd568e2fb1f27d251b62b,,,,,,,,,,,360.2499,1.5,361.7492,361.7493,363.6319,right,0,1.8803,,363.632,364.6327,3,6,30,4,1,total,2,images/Ex11.jpg,left,reversed,easy,6,,,,,
,,,,,63614851eba9f853fc9ffb45,001,23,male,United Kingdom,College,2024-02-26_18h17.09.385,CRL1e,2023.2.3,MacIntel,61.72839506,65dbad3905fde4fe1981dc61,65dcd568e2fb1f27d251b62b,,,,,,,,,,,364.6334,0.9,365.5327,365.5328,367.3329,left,1,1.7872,,367.333,368.3328,3,7,31,6,1,total,2,images/Ex12.jpg,left,reversed,easy,6,,,,,
,,,,,63614851eba9f853fc9ffb45,001,23,male,United Kingdom,College,2024-02-26_18h17.09.385,CRL1e,2023.2.3,MacIntel,61.72839506,65dbad3905fde4fe1981dc61,65dcd568e2fb1f27d251b62b,,,,,,,,,,,368.3428,1,369.3327,369.3328,370.7491,left,1,1.4124,,370.7491,371.7496,4,0,32,6,1,total,2,images/Ex12.jpg,left,reversed,easy,6,,,,,
,,,,,63614851eba9f853fc9ffb45,001,23,male,United Kingdom,College,2024-02-26_18h17.09.385,CRL1e,2023.2.3,MacIntel,61.72839506,65dbad3905fde4fe1981dc61,65dcd568e2fb1f27d251b62b,,,,,,,,,,,371.7586,1.1,372.8496,372.8497,373.3659,right,1,0.5134,,373.366,374.3664,4,1,33,0,1,total,2,images/Ex9.jpg,right,reversed,easy,6,,,,,
,,,,,63614851eba9f853fc9ffb45,001,23,male,United Kingdom,College,2024-02-26_18h17.09.385,CRL1e,2023.2.3,MacIntel,61.72839506,65dbad3905fde4fe1981dc61,65dcd568e2fb1f27d251b62b,,,,,,,,,,,374.3669,1.3,375.6665,375.6666,376.816,right,0,1.1367,,376.816,377.8164,4,2,34,5,1,total,2,images/Ex11.jpg,left,reversed,easy,6,,,,,
,,,,,63614851eba9f853fc9ffb45,001,23,male,United Kingdom,College,2024-02-26_18h17.09.385,CRL1e,2023.2.3,MacIntel,61.72839506,65dbad3905fde4fe1981dc61,65dcd568e2fb1f27d251b62b,,,,,,,,,,,377.8261,1.1,378.9164,378.9164,379.5165,left,1,0.5868,,379.5166,380.5167,4,3,35,7,1,total,2,images/Ex12.jpg,left,reversed,easy,6,,,,,
,,,,,63614851eba9f853fc9ffb45,001,23,male,United Kingdom,College,2024-02-26_18h17.09.385,CRL1e,2023.2.3,MacIntel,61.72839506,65dbad3905fde4fe1981dc61,65dcd568e2fb1f27d251b62b,,,,,,,,,,,380.5173,0.6,381.1165,381.1166,381.5168,left,1,0.3878,,381.5169,382.5166,4,4,36,4,1,total,2,images/Ex11.jpg,left,reversed,easy,6,,,,,
,,,,,63614851eba9f853fc9ffb45,001,23,male,United Kingdom,College,2024-02-26_18h17.09.385,CRL1e,2023.2.3,MacIntel,61.72839506,65dbad3905fde4fe1981dc61,65dcd568e2fb1f27d251b62b,,,,,,,,,,,382.5172,1.4,383.9167,383.9167,384.7336,right,1,0.8152,,384.7336,385.7334,4,5,37,3,1,total,2,images/Ex10.jpg,right,reversed,easy,6,,,,,
,,,,,63614851eba9f853fc9ffb45,001,23,male,United Kingdom,College,2024-02-26_18h17.09.385,CRL1e,2023.2.3,MacIntel,61.72839506,65dbad3905fde4fe1981dc61,65dcd568e2fb1f27d251b62b,,,,,,,,,,,385.734,1.3,387.0335,387.0335,387.6838,right,1,0.6375,,387.6838,388.6836,4,6,38,2,1,total,2,images/Ex10.jpg,right,reversed,easy,6,,,,,
,,,,,63614851eba9f853fc9ffb45,001,23,male,United Kingdom,College,2024-02-26_18h17.09.385,CRL1e,2023.2.3,MacIntel,61.72839506,65dbad3905fde4fe1981dc61,65dcd568e2fb1f27d251b62b,,,,,,,,,,,388.6841,1.4,390.0836,390.0836,391.4338,right,1,1.3369,,391.434,392.4336,4,7,39,1,1,total,2,images/Ex9.jpg,right,reversed,easy,6,,,,,
,,,,,63614851eba9f853fc9ffb45,001,23,male,United Kingdom,College,2024-02-26_18h17.09.385,CRL1e,2023.2.3,MacIntel,61.72839506,65dbad3905fde4fe1981dc61,65dcd568e2fb1f27d251b62b,,,,,,,,,,,392.4342,0.9,393.3336,393.3337,393.8504,right,1,0.5052,,393.8505,394.8505,5,0,40,0,1,total,2,images/Ex9.jpg,right,reversed,easy,6,,,,,
,,,,,63614851eba9f853fc9ffb45,001,23,male,United Kingdom,College,2024-02-26_18h17.09.385,CRL1e,2023.2.3,MacIntel,61.72839506,65dbad3905fde4fe1981dc61,65dcd568e2fb1f27d251b62b,,,,,,,,,,,394.8511,1.3,396.1505,396.1506,396.8667,left,1,0.7039,,396.8667,397.867,5,1,41,6,1,total,2,images/Ex12.jpg,left,reversed,easy,6,,,,,
,,,,,63614851eba9f853fc9ffb45,001,23,male,United Kingdom,College,2024-02-26_18h17.09.385,CRL1e,2023.2.3,MacIntel,61.72839506,65dbad3905fde4fe1981dc61,65dcd568e2fb1f27d251b62b,,,,,,,,,,,397.8678,0.7,398.5672,398.5673,399.1668,right,1,0.5879,,399.1669,400.1672,5,2,42,2,1,total,2,images/Ex10.jpg,right,reversed,easy,6,,,,,
,,,,,63614851eba9f853fc9ffb45,001,23,male,United Kingdom,College,2024-02-26_18h17.09.385,CRL1e,2023.2.3,MacIntel,61.72839506,65dbad3905fde4fe1981dc61,65dcd568e2fb1f27d251b62b,,,,,,,,,,,400.1679,0.7,400.8673,400.8673,401.6674,right,1,0.79,,401.6674,402.6675,5,3,43,1,1,total,2,images/Ex9.jpg,right,reversed,easy,6,,,,,
,,,,,63614851eba9f853fc9ffb45,001,23,male,United Kingdom,College,2024-02-26_18h17.09.385,CRL1e,2023.2.3,MacIntel,61.72839506,65dbad3905fde4fe1981dc61,65dcd568e2fb1f27d251b62b,,,,,,,,,,,402.6682,0.9,403.5674,403.5674,404.4002,right,0,0.8301,,404.4003,405.4008,5,4,44,4,1,total,2,images/Ex11.jpg,left,reversed,easy,6,,,,,
,,,,,63614851eba9f853fc9ffb45,001,23,male,United Kingdom,College,2024-02-26_18h17.09.385,CRL1e,2023.2.3,MacIntel,61.72839506,65dbad3905fde4fe1981dc61,65dcd568e2fb1f27d251b62b,,,,,,,,,,,405.4014,0.5,405.9008,405.9008,406.4843,right,1,0.5699,,406.4844,407.4842,5,5,45,3,1,total,2,images/Ex10.jpg,right,reversed,easy,6,,,,,
,,,,,63614851eba9f853fc9ffb45,001,23,male,United Kingdom,College,2024-02-26_18h17.09.385,CRL1e,2023.2.3,MacIntel,61.72839506,65dbad3905fde4fe1981dc61,65dcd568e2fb1f27d251b62b,,,,,,,,,,,407.4849,0.6,408.0841,408.0842,408.8176,left,1,0.7245,,408.8176,409.8176,5,6,46,7,1,total,2,images/Ex12.jpg,left,reversed,easy,6,,,,,
,,,,,63614851eba9f853fc9ffb45,001,23,male,United Kingdom,College,2024-02-26_18h17.09.385,CRL1e,2023.2.3,MacIntel,61.72839506,65dbad3905fde4fe1981dc61,65dcd568e2fb1f27d251b62b,,,,,,,,,,,409.8184,1.4,411.2176,411.2176,411.6344,left,1,0.4039,,411.6345,412.6343,5,7,47,5,1,total,2,images/Ex11.jpg,left,reversed,easy,6,,,,,
,,,,,63614851eba9f853fc9ffb45,001,23,male,United Kingdom,College,2024-02-26_18h17.09.385,CRL1e,2023.2.3,MacIntel,61.72839506,65dbad3905fde4fe1981dc61,65dcd568e2fb1f27d251b62b,,,,,,412.6357,419.8349,space,7.1816,,419.8463,1.3,421.1347,421.1348,422.2347,left,1,1.0866,,422.2348,423.2347,0,0,0,3,1,partial,1,images/Ex14.jpg,left,training,easy,6,,,,,
,,,,,63614851eba9f853fc9ffb45,001,23,male,United Kingdom,College,2024-02-26_18h17.09.385,CRL1e,2023.2.3,MacIntel,61.72839506,65dbad3905fde4fe1981dc61,65dcd568e2fb1f27d251b62b,,,,,,,,,,,423.2353,0.9,424.1347,424.1348,424.9347,right,1,0.7915,,424.9348,425.9348,0,1,1,5,1,partial,1,images/Ex15.jpg,right,training,easy,6,,,,,
,,,,,63614851eba9f853fc9ffb45,001,23,male,United Kingdom,College,2024-02-26_18h17.09.385,CRL1e,2023.2.3,MacIntel,61.72839506,65dbad3905fde4fe1981dc61,65dcd568e2fb1f27d251b62b,,,,,,,,,,,425.9355,1.4,427.3347,427.3348,428.035,right,1,0.6874,,428.035,429.0349,0,2,2,4,1,partial,1,images/Ex15.jpg,right,training,easy,6,,,,,
,,,,,63614851eba9f853fc9ffb45,001,23,male,United Kingdom,College,2024-02-26_18h17.09.385,CRL1e,2023.2.3,MacIntel,61.72839506,65dbad3905fde4fe1981dc61,65dcd568e2fb1f27d251b62b,,,,,,,,,,,429.0356,1.4,430.435,430.4351,431.335,left,0,0.8873,,431.3351,432.335,0,3,3,6,1,partial,1,images/Ex16.jpg,right,training,easy,6,,,,,
,,,,,63614851eba9f853fc9ffb45,001,23,male,United Kingdom,College,2024-02-26_18h17.09.385,CRL1e,2023.2.3,MacIntel,61.72839506,65dbad3905fde4fe1981dc61,65dcd568e2fb1f27d251b62b,,,,,,,,,,,432.3357,1,433.335,433.3351,434.0521,left,1,0.7039,,434.0522,435.0513,0,4,4,1,1,partial,1,images/Ex13.jpg,left,training,easy,6,,,,,
,,,,,63614851eba9f853fc9ffb45,001,23,male,United Kingdom,College,2024-02-26_18h17.09.385,CRL1e,2023.2.3,MacIntel,61.72839506,65dbad3905fde4fe1981dc61,65dcd568e2fb1f27d251b62b,,,,,,,,,,,435.0518,1,436.0519,436.052,436.7686,right,0,0.7048,,436.7687,437.7686,0,5,5,0,1,partial,1,images/Ex13.jpg,left,training,easy,6,,,,,
,,,,,63614851eba9f853fc9ffb45,001,23,male,United Kingdom,College,2024-02-26_18h17.09.385,CRL1e,2023.2.3,MacIntel,61.72839506,65dbad3905fde4fe1981dc61,65dcd568e2fb1f27d251b62b,,,,,,,,,,,437.7712,0.7,438.4686,438.4686,439.3016,right,1,0.8218,,439.3017,440.3021,0,6,6,7,1,partial,1,images/Ex16.jpg,right,training,easy,6,,,,,
,,,,,63614851eba9f853fc9ffb45,001,23,male,United Kingdom,College,2024-02-26_18h17.09.385,CRL1e,2023.2.3,MacIntel,61.72839506,65dbad3905fde4fe1981dc61,65dcd568e2fb1f27d251b62b,,,,,,,,,,,440.3027,0.6,440.902,440.902,441.602,left,1,0.6894,,441.6021,442.6021,0,7,7,2,1,partial,1,images/Ex14.jpg,left,training,easy,6,,,,,
,,,,,63614851eba9f853fc9ffb45,001,23,male,United Kingdom,College,2024-02-26_18h17.09.385,CRL1e,2023.2.3,MacIntel,61.72839506,65dbad3905fde4fe1981dc61,65dcd568e2fb1f27d251b62b,,,,,,,,,,,442.6029,1.5,444.1021,444.1022,444.9524,left,0,0.8376,,444.9525,445.9522,1,0,8,6,1,partial,1,images/Ex16.jpg,right,training,easy,6,,,,,
,,,,,63614851eba9f853fc9ffb45,001,23,male,United Kingdom,College,2024-02-26_18h17.09.385,CRL1e,2023.2.3,MacIntel,61.72839506,65dbad3905fde4fe1981dc61,65dcd568e2fb1f27d251b62b,,,,,,,,,,,445.953,1.1,447.0519,447.052,448.119,left,1,1.0549,,448.1191,449.119,1,1,9,2,1,partial,1,images/Ex14.jpg,left,training,easy,6,,,,,
,,,,,63614851eba9f853fc9ffb45,001,23,male,United Kingdom,College,2024-02-26_18h17.09.385,CRL1e,2023.2.3,MacIntel,61.72839506,65dbad3905fde4fe1981dc61,65dcd568e2fb1f27d251b62b,,,,,,,,,,,449.1197,0.9,450.0191,450.0191,450.8693,right,1,0.8375,,450.8693,451.8691,1,2,10,4,1,partial,1,images/Ex15.jpg,right,training,easy,6,,,,,
,,,,,63614851eba9f853fc9ffb45,001,23,male,United Kingdom,College,2024-02-26_18h17.09.385,CRL1e,2023.2.3,MacIntel,61.72839506,65dbad3905fde4fe1981dc61,65dcd568e2fb1f27d251b62b,,,,,,,,,,,451.8697,1.3,453.1691,453.1692,454.536,right,0,1.3546,,454.536,455.536,1,3,11,0,1,partial,1,images/Ex13.jpg,left,training,easy,6,,,,,
,,,,,63614851eba9f853fc9ffb45,001,23,male,United Kingdom,College,2024-02-26_18h17.09.385,CRL1e,2023.2.3,MacIntel,61.72839506,65dbad3905fde4fe1981dc61,65dcd568e2fb1f27d251b62b,,,,,,,,,,,455.5365,1,456.5359,456.5359,457.3028,left,1,0.7545,,457.3029,458.3027,1,4,12,1,1,partial,1,images/Ex13.jpg,left,training,easy,6,,,,,
,,,,,63614851eba9f853fc9ffb45,001,23,male,United Kingdom,College,2024-02-26_18h17.09.385,CRL1e,2023.2.3,MacIntel,61.72839506,65dbad3905fde4fe1981dc61,65dcd568e2fb1f27d251b62b,,,,,,,,,,,458.3033,0.7,459.0025,459.0026,459.8528,right,1,0.8394,,459.8529,460.8529,1,5,13,7,1,partial,1,images/Ex16.jpg,right,training,easy,6,,,,,
,,,,,63614851eba9f853fc9ffb45,001,23,male,United Kingdom,College,2024-02-26_18h17.09.385,CRL1e,2023.2.3,MacIntel,61.72839506,65dbad3905fde4fe1981dc61,65dcd568e2fb1f27d251b62b,,,,,,,,,,,460.8534,1.2,462.0527,462.0528,462.7196,left,1,0.6545,,462.7197,463.7189,1,6,14,3,1,partial,1,images/Ex14.jpg,left,training,easy,6,,,,,
,,,,,63614851eba9f853fc9ffb45,001,23,male,United Kingdom,College,2024-02-26_18h17.09.385,CRL1e,2023.2.3,MacIntel,61.72839506,65dbad3905fde4fe1981dc61,65dcd568e2fb1f27d251b62b,,,,,,,,,,,463.7196,0.9,464.6196,464.6197,465.4031,right,1,0.7706,,465.4031,466.4029,1,7,15,5,1,partial,1,images/Ex15.jpg,right,training,easy,6,,,,,
,,,,,63614851eba9f853fc9ffb45,001,23,male,United Kingdom,College,2024-02-26_18h17.09.385,CRL1e,2023.2.3,MacIntel,61.72839506,65dbad3905fde4fe1981dc61,65dcd568e2fb1f27d251b62b,,,,,,,,,,,466.4036,0.7,467.103,467.103,468.5198,left,1,1.4074,,468.5199,469.5199,2,0,16,1,1,partial,1,images/Ex13.jpg,left,training,easy,6,,,,,
,,,,,63614851eba9f853fc9ffb45,001,23,male,United Kingdom,College,2024-02-26_18h17.09.385,CRL1e,2023.2.3,MacIntel,61.72839506,65dbad3905fde4fe1981dc61,65dcd568e2fb1f27d251b62b,,,,,,,,,,,469.5205,1.1,470.6198,470.6198,471.2033,right,1,0.5697,,471.2033,472.2031,2,1,17,4,1,partial,1,images/Ex15.jpg,right,training,easy,6,,,,,
,,,,,63614851eba9f853fc9ffb45,001,23,male,United Kingdom,College,2024-02-26_18h17.09.385,CRL1e,2023.2.3,MacIntel,61.72839506,65dbad3905fde4fe1981dc61,65dcd568e2fb1f27d251b62b,,,,,,,,,,,472.2036,0.6,472.803,472.803,473.4532,left,1,0.637,,473.4533,474.4533,2,2,18,0,1,partial,1,images/Ex13.jpg,left,training,easy,6,,,,,
,,,,,63614851eba9f853fc9ffb45,001,23,male,United Kingdom,College,2024-02-26_18h17.09.385,CRL1e,2023.2.3,MacIntel,61.72839506,65dbad3905fde4fe1981dc61,65dcd568e2fb1f27d251b62b,,,,,,,,,,,474.4539,1.3,475.7534,475.7534,476.6034,right,1,0.8379,,476.6034,477.6034,2,3,19,7,1,partial,1,images/Ex16.jpg,right,training,easy,6,,,,,
,,,,,63614851eba9f853fc9ffb45,001,23,male,United Kingdom,College,2024-02-26_18h17.09.385,CRL1e,2023.2.3,MacIntel,61.72839506,65dbad3905fde4fe1981dc61,65dcd568e2fb1f27d251b62b,,,,,,,,,,,477.6041,1.1,478.7035,478.7036,479.4692,left,1,0.7542,,479.4692,480.4702,2,4,20,2,1,partial,1,images/Ex14.jpg,left,training,easy,6,,,,,
,,,,,63614851eba9f853fc9ffb45,001,23,male,United Kingdom,College,2024-02-26_18h17.09.385,CRL1e,2023.2.3,MacIntel,61.72839506,65dbad3905fde4fe1981dc61,65dcd568e2fb1f27d251b62b,,,,,,,,,,,480.4708,1.1,481.57,481.5702,482.0866,left,1,0.5061,,482.0867,483.0869,2,5,21,3,1,partial,1,images/Ex14.jpg,left,training,easy,6,,,,,
,,,,,63614851eba9f853fc9ffb45,001,23,male,United Kingdom,College,2024-02-26_18h17.09.385,CRL1e,2023.2.3,MacIntel,61.72839506,65dbad3905fde4fe1981dc61,65dcd568e2fb1f27d251b62b,,,,,,,,,,,483.0875,0.5,483.5868,483.5868,484.086,right,1,0.4866,,484.086,485.0871,2,6,22,6,1,partial,1,images/Ex16.jpg,right,training,easy,6,,,,,
,,,,,63614851eba9f853fc9ffb45,001,23,male,United Kingdom,College,2024-02-26_18h17.09.385,CRL1e,2023.2.3,MacIntel,61.72839506,65dbad3905fde4fe1981dc61,65dcd568e2fb1f27d251b62b,,,,,,,,,,,485.0879,1.5,486.5861,486.5862,487.2871,right,1,0.6874,,487.2872,488.286,2,7,23,5,1,partial,1,images/Ex15.jpg,right,training,easy,6,,,,,
,,,,,63614851eba9f853fc9ffb45,001,23,male,United Kingdom,College,2024-02-26_18h17.09.385,CRL1e,2023.2.3,MacIntel,61.72839506,65dbad3905fde4fe1981dc61,65dcd568e2fb1f27d251b62b,,,,,,,,,,,488.2866,0.8,489.0872,489.0873,489.8029,right,1,0.7035,,489.8029,490.8032,3,0,24,6,1,partial,1,images/Ex16.jpg,right,training,easy,6,,,,,
,,,,,63614851eba9f853fc9ffb45,001,23,male,United Kingdom,College,2024-02-26_18h17.09.385,CRL1e,2023.2.3,MacIntel,61.72839506,65dbad3905fde4fe1981dc61,65dcd568e2fb1f27d251b62b,,,,,,,,,,,490.8039,0.8,491.6039,491.6039,492.1205,right,1,0.5029,,492.1206,493.1204,3,1,25,7,1,partial,1,images/Ex16.jpg,right,training,easy,6,,,,,
,,,,,63614851eba9f853fc9ffb45,001,23,male,United Kingdom,College,2024-02-26_18h17.09.385,CRL1e,2023.2.3,MacIntel,61.72839506,65dbad3905fde4fe1981dc61,65dcd568e2fb1f27d251b62b,,,,,,,,,,,493.1211,1,494.1207,494.1207,495.0708,right,0,0.9395,,495.0709,496.0707,3,2,26,1,1,partial,1,images/Ex13.jpg,left,training,easy,6,,,,,
,,,,,63614851eba9f853fc9ffb45,001,23,male,United Kingdom,College,2024-02-26_18h17.09.385,CRL1e,2023.2.3,MacIntel,61.72839506,65dbad3905fde4fe1981dc61,65dcd568e2fb1f27d251b62b,,,,,,,,,,,496.0714,1.5,497.5707,497.5709,498.2541,left,1,0.6692,0.0103,498.2541,499.2542,3,3,27,3,1,partial,1,images/Ex14.jpg,left,training,easy,6,,,,,
,,,,,63614851eba9f853fc9ffb45,001,23,male,United Kingdom,College,2024-02-26_18h17.09.385,CRL1e,2023.2.3,MacIntel,61.72839506,65dbad3905fde4fe1981dc61,65dcd568e2fb1f27d251b62b,,,,,,,,,,,499.2547,1,500.2542,500.2543,500.7876,left,1,0.5215,,500.7877,501.7876,3,4,28,2,1,partial,1,images/Ex14.jpg,left,training,easy,6,,,,,
,,,,,63614851eba9f853fc9ffb45,001,23,male,United Kingdom,College,2024-02-26_18h17.09.385,CRL1e,2023.2.3,MacIntel,61.72839506,65dbad3905fde4fe1981dc61,65dcd568e2fb1f27d251b62b,,,,,,,,,,,501.7884,1.2,502.9877,502.9877,503.5869,right,1,0.5871,,503.5869,504.5876,3,5,29,4,1,partial,1,images/Ex15.jpg,right,training,easy,6,,,,,
,,,,,63614851eba9f853fc9ffb45,001,23,male,United Kingdom,College,2024-02-26_18h17.09.385,CRL1e,2023.2.3,MacIntel,61.72839506,65dbad3905fde4fe1981dc61,65dcd568e2fb1f27d251b62b,,,,,,,,,,,504.5883,1,505.5876,505.5876,506.638,left,1,1.0489,,506.6381,507.6378,3,6,30,0,1,partial,1,images/Ex13.jpg,left,training,easy,6,,,,,
,,,,,63614851eba9f853fc9ffb45,001,23,male,United Kingdom,College,2024-02-26_18h17.09.385,CRL1e,2023.2.3,MacIntel,61.72839506,65dbad3905fde4fe1981dc61,65dcd568e2fb1f27d251b62b,,,,,,,,,,,507.6384,1.2,508.8369,508.8369,509.588,right,1,0.7383,,509.588,510.5879,3,7,31,5,1,partial,1,images/Ex15.jpg,right,training,easy,6,,,,,
,,,,,63614851eba9f853fc9ffb45,001,23,male,United Kingdom,College,2024-02-26_18h17.09.385,CRL1e,2023.2.3,MacIntel,61.72839506,65dbad3905fde4fe1981dc61,65dcd568e2fb1f27d251b62b,,,,,,,,,,,510.5887,1.3,511.888,511.888,512.6213,right,1,0.7207,,512.6214,513.6214,4,0,32,4,1,partial,1,images/Ex15.jpg,right,training,easy,6,,,,,
,,,,,63614851eba9f853fc9ffb45,001,23,male,United Kingdom,College,2024-02-26_18h17.09.385,CRL1e,2023.2.3,MacIntel,61.72839506,65dbad3905fde4fe1981dc61,65dcd568e2fb1f27d251b62b,,,,,,,,,,,513.6221,1.4,515.0213,515.0214,516.4049,left,1,1.3709,,516.4049,517.4038,4,1,33,0,1,partial,1,images/Ex13.jpg,left,training,easy,6,,,,,
,,,,,63614851eba9f853fc9ffb45,001,23,male,United Kingdom,College,2024-02-26_18h17.09.385,CRL1e,2023.2.3,MacIntel,61.72839506,65dbad3905fde4fe1981dc61,65dcd568e2fb1f27d251b62b,,,,,,,,,,,517.4045,0.6,518.0038,518.0039,518.5549,right,1,0.54,,518.555,519.5549,4,2,34,7,1,partial,1,images/Ex16.jpg,right,training,easy,6,,,,,
,,,,,63614851eba9f853fc9ffb45,001,23,male,United Kingdom,College,2024-02-26_18h17.09.385,CRL1e,2023.2.3,MacIntel,61.72839506,65dbad3905fde4fe1981dc61,65dcd568e2fb1f27d251b62b,,,,,,,,,,,519.5556,0.9,520.455,520.4551,521.1884,left,1,0.7319,,521.1885,522.1883,4,3,35,1,1,partial,1,images/Ex13.jpg,left,training,easy,6,,,,,
,,,,,63614851eba9f853fc9ffb45,001,23,male,United Kingdom,College,2024-02-26_18h17.09.385,CRL1e,2023.2.3,MacIntel,61.72839506,65dbad3905fde4fe1981dc61,65dcd568e2fb1f27d251b62b,,,,,,,,,,,522.1889,0.6,522.7882,522.7882,523.421,left,1,0.6213,,523.4211,524.4218,4,4,36,2,1,partial,1,images/Ex14.jpg,left,training,easy,6,,,,,
,,,,,63614851eba9f853fc9ffb45,001,23,male,United Kingdom,College,2024-02-26_18h17.09.385,CRL1e,2023.2.3,MacIntel,61.72839506,65dbad3905fde4fe1981dc61,65dcd568e2fb1f27d251b62b,,,,,,,,,,,524.4224,1.2,525.6221,525.6222,526.1719,right,1,0.536,,526.1719,527.1718,4,5,37,6,1,partial,1,images/Ex16.jpg,right,training,easy,6,,,,,
,,,,,63614851eba9f853fc9ffb45,001,23,male,United Kingdom,College,2024-02-26_18h17.09.385,CRL1e,2023.2.3,MacIntel,61.72839506,65dbad3905fde4fe1981dc61,65dcd568e2fb1f27d251b62b,,,,,,,,,,,527.1724,0.8,527.9718,527.9719,528.6219,right,1,0.6485,,528.6219,529.6219,4,6,38,5,1,partial,1,images/Ex15.jpg,right,training,easy,6,,,,,
,,,,,63614851eba9f853fc9ffb45,001,23,male,United Kingdom,College,2024-02-26_18h17.09.385,CRL1e,2023.2.3,MacIntel,61.72839506,65dbad3905fde4fe1981dc61,65dcd568e2fb1f27d251b62b,,,,,,,,,,,529.6225,1.2,530.822,530.8221,531.3389,left,1,0.5152,,531.339,532.3387,4,7,39,3,1,partial,1,images/Ex14.jpg,left,training,easy,6,,,,,
,,,,,63614851eba9f853fc9ffb45,001,23,male,United Kingdom,College,2024-02-26_18h17.09.385,CRL1e,2023.2.3,MacIntel,61.72839506,65dbad3905fde4fe1981dc61,65dcd568e2fb1f27d251b62b,,,,,,,,,,,532.3393,0.9,533.2388,533.2388,533.9886,left,1,0.7366,,533.9887,534.9888,5,0,40,1,1,partial,1,images/Ex13.jpg,left,training,easy,6,,,,,
,,,,,63614851eba9f853fc9ffb45,001,23,male,United Kingdom,College,2024-02-26_18h17.09.385,CRL1e,2023.2.3,MacIntel,61.72839506,65dbad3905fde4fe1981dc61,65dcd568e2fb1f27d251b62b,,,,,,,,,,,534.9895,1.1,536.0887,536.0887,536.589,left,1,0.4878,,536.589,537.5885,5,1,41,2,1,partial,1,images/Ex14.jpg,left,training,easy,6,,,,,
,,,,,63614851eba9f853fc9ffb45,001,23,male,United Kingdom,College,2024-02-26_18h17.09.385,CRL1e,2023.2.3,MacIntel,61.72839506,65dbad3905fde4fe1981dc61,65dcd568e2fb1f27d251b62b,,,,,,,,,,,537.589,0.6,538.189,538.189,538.7224,right,1,0.5207,,538.7224,539.7222,5,2,42,6,1,partial,1,images/Ex16.jpg,right,training,easy,6,,,,,
,,,,,63614851eba9f853fc9ffb45,001,23,male,United Kingdom,College,2024-02-26_18h17.09.385,CRL1e,2023.2.3,MacIntel,61.72839506,65dbad3905fde4fe1981dc61,65dcd568e2fb1f27d251b62b,,,,,,,,,,,539.7229,1.1,540.8224,540.8225,541.4391,right,1,0.6036,,541.4392,542.439,5,3,43,4,1,partial,1,images/Ex15.jpg,right,training,easy,6,,,,,
,,,,,63614851eba9f853fc9ffb45,001,23,male,United Kingdom,College,2024-02-26_18h17.09.385,CRL1e,2023.2.3,MacIntel,61.72839506,65dbad3905fde4fe1981dc61,65dcd568e2fb1f27d251b62b,,,,,,,,,,,542.4396,1.2,543.6392,543.6393,544.206,right,1,0.5563,,544.2061,545.2055,5,4,44,7,1,partial,1,images/Ex16.jpg,right,training,easy,6,,,,,
,,,,,63614851eba9f853fc9ffb45,001,23,male,United Kingdom,College,2024-02-26_18h17.09.385,CRL1e,2023.2.3,MacIntel,61.72839506,65dbad3905fde4fe1981dc61,65dcd568e2fb1f27d251b62b,,,,,,,,,,,545.2062,0.7,545.9059,545.906,546.6559,left,1,0.7372,,546.6561,547.6559,5,5,45,0,1,partial,1,images/Ex13.jpg,left,training,easy,6,,,,,
,,,,,63614851eba9f853fc9ffb45,001,23,male,United Kingdom,College,2024-02-26_18h17.09.385,CRL1e,2023.2.3,MacIntel,61.72839506,65dbad3905fde4fe1981dc61,65dcd568e2fb1f27d251b62b,,,,,,,,,,,547.6566,0.5,548.1559,548.1559,549.0067,right,1,0.8488,,549.0068,550.006,5,6,46,5,1,partial,1,images/Ex15.jpg,right,training,easy,6,,,,,
,,,,,63614851eba9f853fc9ffb45,001,23,male,United Kingdom,College,2024-02-26_18h17.09.385,CRL1e,2023.2.3,MacIntel,61.72839506,65dbad3905fde4fe1981dc61,65dcd568e2fb1f27d251b62b,,,,,,,,,,,550.0066,1.2,551.206,551.2061,551.756,left,1,0.538,,551.7561,552.7561,5,7,47,3,1,partial,1,images/Ex14.jpg,left,training,easy,6,,,,,
,,,,,63614851eba9f853fc9ffb45,001,23,male,United Kingdom,College,2024-02-26_18h17.09.385,CRL1e,2023.2.3,MacIntel,61.72839506,65dbad3905fde4fe1981dc61,65dcd568e2fb1f27d251b62b,,,,,,,,,,,552.7607,1,553.7562,553.7563,554.3228,right,0,0.5567,,554.3229,555.3229,0,0,0,5,1,partial,2,images/Ex15.jpg,left,reversed,easy,6,,,,,
,,,,,63614851eba9f853fc9ffb45,001,23,male,United Kingdom,College,2024-02-26_18h17.09.385,CRL1e,2023.2.3,MacIntel,61.72839506,65dbad3905fde4fe1981dc61,65dcd568e2fb1f27d251b62b,,,,,,,,,,,555.3235,0.7,556.0229,556.0229,556.8233,left,0,0.7882,,556.8234,557.823,0,1,1,7,1,partial,2,images/Ex16.jpg,right,nonreversed,easy,6,,,,,
,,,,,63614851eba9f853fc9ffb45,001,23,male,United Kingdom,College,2024-02-26_18h17.09.385,CRL1e,2023.2.3,MacIntel,61.72839506,65dbad3905fde4fe1981dc61,65dcd568e2fb1f27d251b62b,,,,,,,,,,,557.8237,0.8,558.623,558.623,559.473,left,1,0.8375,,559.4731,560.473,0,2,2,3,1,partial,2,images/Ex14.jpg,left,nonreversed,easy,6,,,,,
,,,,,63614851eba9f853fc9ffb45,001,23,male,United Kingdom,College,2024-02-26_18h17.09.385,CRL1e,2023.2.3,MacIntel,61.72839506,65dbad3905fde4fe1981dc61,65dcd568e2fb1f27d251b62b,,,,,,,,,,,560.4738,1.1,561.5732,561.5732,562.69,left,1,1.1037,,562.6901,563.6897,0,3,3,4,1,partial,2,images/Ex15.jpg,left,reversed,easy,6,,,,,
,,,,,63614851eba9f853fc9ffb45,001,23,male,United Kingdom,College,2024-02-26_18h17.09.385,CRL1e,2023.2.3,MacIntel,61.72839506,65dbad3905fde4fe1981dc61,65dcd568e2fb1f27d251b62b,,,,,,,,,,,563.6902,1,564.69,564.69,565.3392,right,1,0.6373,,565.3392,566.34,0,4,4,6,1,partial,2,images/Ex16.jpg,right,nonreversed,easy,6,,,,,
,,,,,63614851eba9f853fc9ffb45,001,23,male,United Kingdom,College,2024-02-26_18h17.09.385,CRL1e,2023.2.3,MacIntel,61.72839506,65dbad3905fde4fe1981dc61,65dcd568e2fb1f27d251b62b,,,,,,,,,,,566.3406,1.3,567.64,567.64,568.2401,left,1,0.5869,,568.2401,569.24,0,5,5,2,1,partial,2,images/Ex14.jpg,left,nonreversed,easy,6,,,,,
,,,,,63614851eba9f853fc9ffb45,001,23,male,United Kingdom,College,2024-02-26_18h17.09.385,CRL1e,2023.2.3,MacIntel,61.72839506,65dbad3905fde4fe1981dc61,65dcd568e2fb1f27d251b62b,,,,,,,,,,,569.2407,1.3,570.54,570.54,571.2901,left,0,0.7371,,571.2901,572.29,0,6,6,1,1,partial,2,images/Ex13.jpg,right,reversed,easy,6,,,,,
,,,,,63614851eba9f853fc9ffb45,001,23,male,United Kingdom,College,2024-02-26_18h17.09.385,CRL1e,2023.2.3,MacIntel,61.72839506,65dbad3905fde4fe1981dc61,65dcd568e2fb1f27d251b62b,,,,,,,,,,,572.2907,1.4,573.6901,573.6901,574.1228,right,1,0.4229,,574.1228,575.1235,0,7,7,0,1,partial,2,images/Ex13.jpg,right,reversed,easy,6,,,,,
,,,,,63614851eba9f853fc9ffb45,001,23,male,United Kingdom,College,2024-02-26_18h17.09.385,CRL1e,2023.2.3,MacIntel,61.72839506,65dbad3905fde4fe1981dc61,65dcd568e2fb1f27d251b62b,,,,,,,,,,,575.1242,1.1,576.2236,576.2237,577.107,left,1,0.8703,,577.1071,578.107,1,0,8,5,1,partial,2,images/Ex15.jpg,left,reversed,easy,6,,,,,
,,,,,63614851eba9f853fc9ffb45,001,23,male,United Kingdom,College,2024-02-26_18h17.09.385,CRL1e,2023.2.3,MacIntel,61.72839506,65dbad3905fde4fe1981dc61,65dcd568e2fb1f27d251b62b,,,,,,,,,,,578.108,1.2,579.3069,579.307,580.04,left,1,0.7198,,580.0401,581.0404,1,1,9,3,1,partial,2,images/Ex14.jpg,left,nonreversed,easy,6,,,,,
,,,,,63614851eba9f853fc9ffb45,001,23,male,United Kingdom,College,2024-02-26_18h17.09.385,CRL1e,2023.2.3,MacIntel,61.72839506,65dbad3905fde4fe1981dc61,65dcd568e2fb1f27d251b62b,,,,,,,,,,,581.0409,1.4,582.4406,582.4407,583.7076,right,1,1.2538,,583.7076,584.7074,1,2,10,6,1,partial,2,images/Ex16.jpg,right,nonreversed,easy,6,,,,,
,,,,,63614851eba9f853fc9ffb45,001,23,male,United Kingdom,College,2024-02-26_18h17.09.385,CRL1e,2023.2.3,MacIntel,61.72839506,65dbad3905fde4fe1981dc61,65dcd568e2fb1f27d251b62b,,,,,,,,,,,584.708,0.6,585.3073,585.3074,585.9242,right,1,0.6048,,585.9243,586.9239,1,3,11,1,1,partial,2,images/Ex13.jpg,right,reversed,easy,6,,,,,
,,,,,63614851eba9f853fc9ffb45,001,23,male,United Kingdom,College,2024-02-26_18h17.09.385,CRL1e,2023.2.3,MacIntel,61.72839506,65dbad3905fde4fe1981dc61,65dcd568e2fb1f27d251b62b,,,,,,,,,,,586.9246,1,587.9239,587.924,588.7241,left,1,0.7932,,588.7242,589.724,1,4,12,4,1,partial,2,images/Ex15.jpg,left,reversed,easy,6,,,,,
,,,,,63614851eba9f853fc9ffb45,001,23,male,United Kingdom,College,2024-02-26_18h17.09.385,CRL1e,2023.2.3,MacIntel,61.72839506,65dbad3905fde4fe1981dc61,65dcd568e2fb1f27d251b62b,,,,,,,,,,,589.7247,1.1,590.8242,590.8242,591.5737,right,1,0.7375,,591.5737,592.5743,1,5,13,0,1,partial,2,images/Ex13.jpg,right,reversed,easy,6,,,,,
,,,,,63614851eba9f853fc9ffb45,001,23,male,United Kingdom,College,2024-02-26_18h17.09.385,CRL1e,2023.2.3,MacIntel,61.72839506,65dbad3905fde4fe1981dc61,65dcd568e2fb1f27d251b62b,,,,,,,,,,,592.5749,1,593.5734,593.5735,594.2743,left,1,0.6881,,594.2743,595.2744,1,6,14,2,1,partial,2,images/Ex14.jpg,left,nonreversed,easy,6,,,,,
,,,,,63614851eba9f853fc9ffb45,001,23,male,United Kingdom,College,2024-02-26_18h17.09.385,CRL1e,2023.2.3,MacIntel,61.72839506,65dbad3905fde4fe1981dc61,65dcd568e2fb1f27d251b62b,,,,,,,,,,,595.275,0.7,595.9743,595.9743,596.5907,right,1,0.6071,,596.5908,597.5909,1,7,15,7,1,partial,2,images/Ex16.jpg,right,nonreversed,easy,6,,,,,
,,,,,63614851eba9f853fc9ffb45,001,23,male,United Kingdom,College,2024-02-26_18h17.09.385,CRL1e,2023.2.3,MacIntel,61.72839506,65dbad3905fde4fe1981dc61,65dcd568e2fb1f27d251b62b,,,,,,,,,,,597.5917,1.1,598.6911,598.6911,600.0079,left,1,1.3037,,600.008,601.0074,2,0,16,3,1,partial,2,images/Ex14.jpg,left,nonreversed,easy,6,,,,,
,,,,,63614851eba9f853fc9ffb45,001,23,male,United Kingdom,College,2024-02-26_18h17.09.385,CRL1e,2023.2.3,MacIntel,61.72839506,65dbad3905fde4fe1981dc61,65dcd568e2fb1f27d251b62b,,,,,,,,,,,601.008,1.2,602.2078,602.2079,603.0408,left,1,0.8209,,603.0408,604.0412,2,1,17,4,1,partial,2,images/Ex15.jpg,left,reversed,easy,6,,,,,
,,,,,63614851eba9f853fc9ffb45,001,23,male,United Kingdom,College,2024-02-26_18h17.09.385,CRL1e,2023.2.3,MacIntel,61.72839506,65dbad3905fde4fe1981dc61,65dcd568e2fb1f27d251b62b,,,,,,,,,,,604.0417,0.7,604.7414,604.7414,605.2248,left,1,0.4709,,605.2248,606.2247,2,2,18,5,1,partial,2,images/Ex15.jpg,left,reversed,easy,6,,,,,
,,,,,63614851eba9f853fc9ffb45,001,23,male,United Kingdom,College,2024-02-26_18h17.09.385,CRL1e,2023.2.3,MacIntel,61.72839506,65dbad3905fde4fe1981dc61,65dcd568e2fb1f27d251b62b,,,,,,,,,,,606.2253,1,607.2248,607.2249,607.8238,right,1,0.5897,,607.8239,608.8247,2,3,19,7,1,partial,2,images/Ex16.jpg,right,nonreversed,easy,6,,,,,
,,,,,63614851eba9f853fc9ffb45,001,23,male,United Kingdom,College,2024-02-26_18h17.09.385,CRL1e,2023.2.3,MacIntel,61.72839506,65dbad3905fde4fe1981dc61,65dcd568e2fb1f27d251b62b,,,,,,,,,,,608.8255,1.1,609.9248,609.9248,610.4748,left,1,0.5366,,610.4748,611.4749,2,4,20,2,1,partial,2,images/Ex14.jpg,left,nonreversed,easy,6,,,,,
,,,,,63614851eba9f853fc9ffb45,001,23,male,United Kingdom,College,2024-02-26_18h17.09.385,CRL1e,2023.2.3,MacIntel,61.72839506,65dbad3905fde4fe1981dc61,65dcd568e2fb1f27d251b62b,,,,,,,,,,,611.4755,1.1,612.5749,612.575,613.5748,right,1,0.9956,,613.5748,614.575,2,5,21,1,1,partial,2,images/Ex13.jpg,right,reversed,easy,6,,,,,
,,,,,63614851eba9f853fc9ffb45,001,23,male,United Kingdom,College,2024-02-26_18h17.09.385,CRL1e,2023.2.3,MacIntel,61.72839506,65dbad3905fde4fe1981dc61,65dcd568e2fb1f27d251b62b,,,,,,,,,,,614.5758,0.6,615.1749,615.175,616.0418,right,1,0.8545,,616.042,617.0416,2,6,22,6,1,partial,2,images/Ex16.jpg,right,nonreversed,easy,6,,,,,
,,,,,63614851eba9f853fc9ffb45,001,23,male,United Kingdom,College,2024-02-26_18h17.09.385,CRL1e,2023.2.3,MacIntel,61.72839506,65dbad3905fde4fe1981dc61,65dcd568e2fb1f27d251b62b,,,,,,,,,,,617.0422,0.7,617.7417,617.7418,618.5755,left,0,0.8208,,618.5756,619.575,2,7,23,0,1,partial,2,images/Ex13.jpg,right,reversed,easy,6,,,,,
,,,,,63614851eba9f853fc9ffb45,001,23,male,United Kingdom,College,2024-02-26_18h17.09.385,CRL1e,2023.2.3,MacIntel,61.72839506,65dbad3905fde4fe1981dc61,65dcd568e2fb1f27d251b62b,,,,,,,,,,,619.5756,0.6,620.1752,620.1752,623.7089,left,1,3.5214,,623.7089,624.7087,3,0,24,5,1,partial,2,images/Ex15.jpg,left,reversed,easy,6,,,,,
,,,,,63614851eba9f853fc9ffb45,001,23,male,United Kingdom,College,2024-02-26_18h17.09.385,CRL1e,2023.2.3,MacIntel,61.72839506,65dbad3905fde4fe1981dc61,65dcd568e2fb1f27d251b62b,,,,,,,,,,,624.7185,1.3,626.0087,626.0089,627.4255,right,1,1.415,,627.4256,628.4256,3,1,25,1,1,partial,2,images/Ex13.jpg,right,reversed,easy,6,,,,,
,,,,,63614851eba9f853fc9ffb45,001,23,male,United Kingdom,College,2024-02-26_18h17.09.385,CRL1e,2023.2.3,MacIntel,61.72839506,65dbad3905fde4fe1981dc61,65dcd568e2fb1f27d251b62b,,,,,,,,,,,628.4262,1.5,629.9255,629.9255,630.5588,right,1,0.6201,,630.5589,631.559,3,2,26,6,1,partial,2,images/Ex16.jpg,right,nonreversed,easy,6,,,,,
,,,,,63614851eba9f853fc9ffb45,001,23,male,United Kingdom,College,2024-02-26_18h17.09.385,CRL1e,2023.2.3,MacIntel,61.72839506,65dbad3905fde4fe1981dc61,65dcd568e2fb1f27d251b62b,,,,,,,,,,,631.5597,1.2,632.758,632.7581,633.4591,left,1,0.6884,,633.4592,634.459,3,3,27,3,1,partial,2,images/Ex14.jpg,left,nonreversed,easy,6,,,,,
,,,,,63614851eba9f853fc9ffb45,001,23,male,United Kingdom,College,2024-02-26_18h17.09.385,CRL1e,2023.2.3,MacIntel,61.72839506,65dbad3905fde4fe1981dc61,65dcd568e2fb1f27d251b62b,,,,,,,,,,,634.4595,1.2,635.6592,635.6593,636.3925,left,1,0.7205,,636.3926,637.3924,3,4,28,4,1,partial,2,images/Ex15.jpg,left,reversed,easy,6,,,,,
,,,,,63614851eba9f853fc9ffb45,001,23,male,United Kingdom,College,2024-02-26_18h17.09.385,CRL1e,2023.2.3,MacIntel,61.72839506,65dbad3905fde4fe1981dc61,65dcd568e2fb1f27d251b62b,,,,,,,,,,,637.393,0.7,638.0925,638.0926,639.8259,right,1,1.7204,,639.826,640.8259,3,5,29,0,1,partial,2,images/Ex13.jpg,right,reversed,easy,6,,,,,
,,,,,63614851eba9f853fc9ffb45,001,23,male,United Kingdom,College,2024-02-26_18h17.09.385,CRL1e,2023.2.3,MacIntel,61.72839506,65dbad3905fde4fe1981dc61,65dcd568e2fb1f27d251b62b,,,,,,,,,,,640.8266,0.8,641.626,641.6261,643.3084,left,1,1.6721,,643.3084,644.3094,3,6,30,2,1,partial,2,images/Ex14.jpg,left,nonreversed,easy,6,,,,,
,,,,,63614851eba9f853fc9ffb45,001,23,male,United Kingdom,College,2024-02-26_18h17.09.385,CRL1e,2023.2.3,MacIntel,61.72839506,65dbad3905fde4fe1981dc61,65dcd568e2fb1f27d251b62b,,,,,,,,,,,644.319,0.9,645.2095,645.2095,646.3928,right,1,1.1706,,646.3929,647.3928,3,7,31,7,1,partial,2,images/Ex16.jpg,right,nonreversed,easy,6,,,,,
,,,,,63614851eba9f853fc9ffb45,001,23,male,United Kingdom,College,2024-02-26_18h17.09.385,CRL1e,2023.2.3,MacIntel,61.72839506,65dbad3905fde4fe1981dc61,65dcd568e2fb1f27d251b62b,,,,,,,,,,,647.3937,1.1,648.4929,648.4929,650.9759,left,0,2.4742,,650.9759,651.9764,4,0,32,1,1,partial,2,images/Ex13.jpg,right,reversed,easy,6,,,,,
,,,,,63614851eba9f853fc9ffb45,001,23,male,United Kingdom,College,2024-02-26_18h17.09.385,CRL1e,2023.2.3,MacIntel,61.72839506,65dbad3905fde4fe1981dc61,65dcd568e2fb1f27d251b62b,,,,,,,,,,,651.9771,0.7,652.6763,652.6764,653.4932,right,1,0.8045,,653.4932,654.493,4,1,33,0,1,partial,2,images/Ex13.jpg,right,reversed,easy,6,,,,,
,,,,,63614851eba9f853fc9ffb45,001,23,male,United Kingdom,College,2024-02-26_18h17.09.385,CRL1e,2023.2.3,MacIntel,61.72839506,65dbad3905fde4fe1981dc61,65dcd568e2fb1f27d251b62b,,,,,,,,,,,654.4938,0.8,655.2931,655.2932,656.06,right,1,0.7544,,656.0601,657.0598,4,2,34,7,1,partial,2,images/Ex16.jpg,right,nonreversed,easy,6,,,,,
,,,,,63614851eba9f853fc9ffb45,001,23,male,United Kingdom,College,2024-02-26_18h17.09.385,CRL1e,2023.2.3,MacIntel,61.72839506,65dbad3905fde4fe1981dc61,65dcd568e2fb1f27d251b62b,,,,,,,,,,,657.0605,0.6,657.6599,657.6599,658.7094,left,1,1.0468,,658.7094,659.71,4,3,35,4,1,partial,2,images/Ex15.jpg,left,reversed,easy,6,,,,,
,,,,,63614851eba9f853fc9ffb45,001,23,male,United Kingdom,College,2024-02-26_18h17.09.385,CRL1e,2023.2.3,MacIntel,61.72839506,65dbad3905fde4fe1981dc61,65dcd568e2fb1f27d251b62b,,,,,,,,,,,659.7107,1.4,661.11,661.1101,661.9101,left,1,0.7868,,661.9102,662.9101,4,4,36,5,1,partial,2,images/Ex15.jpg,left,reversed,easy,6,,,,,
,,,,,63614851eba9f853fc9ffb45,001,23,male,United Kingdom,College,2024-02-26_18h17.09.385,CRL1e,2023.2.3,MacIntel,61.72839506,65dbad3905fde4fe1981dc61,65dcd568e2fb1f27d251b62b,,,,,,,,,,,662.9107,1.4,664.3094,664.3094,665.1435,right,1,0.8328,,665.1436,666.1431,4,5,37,6,1,partial,2,images/Ex16.jpg,right,nonreversed,easy,6,,,,,
,,,,,63614851eba9f853fc9ffb45,001,23,male,United Kingdom,College,2024-02-26_18h17.09.385,CRL1e,2023.2.3,MacIntel,61.72839506,65dbad3905fde4fe1981dc61,65dcd568e2fb1f27d251b62b,,,,,,,,,,,666.1438,1.1,667.2434,667.2436,668.3603,left,1,1.1037,,668.3604,669.3602,4,6,38,3,1,partial,2,images/Ex14.jpg,left,nonreversed,easy,6,,,,,
,,,,,63614851eba9f853fc9ffb45,001,23,male,United Kingdom,College,2024-02-26_18h17.09.385,CRL1e,2023.2.3,MacIntel,61.72839506,65dbad3905fde4fe1981dc61,65dcd568e2fb1f27d251b62b,,,,,,,,,,,669.3609,0.9,670.2602,670.2603,671.2106,left,1,0.9377,,671.2107,672.2103,4,7,39,2,1,partial,2,images/Ex14.jpg,left,nonreversed,easy,6,,,,,
,,,,,63614851eba9f853fc9ffb45,001,23,male,United Kingdom,College,2024-02-26_18h17.09.385,CRL1e,2023.2.3,MacIntel,61.72839506,65dbad3905fde4fe1981dc61,65dcd568e2fb1f27d251b62b,,,,,,,,,,,672.2109,0.6,672.8104,672.8104,674.0438,left,1,1.2253,,674.0439,675.0437,5,0,40,5,1,partial,2,images/Ex15.jpg,left,reversed,easy,6,,,,,
,,,,,63614851eba9f853fc9ffb45,001,23,male,United Kingdom,College,2024-02-26_18h17.09.385,CRL1e,2023.2.3,MacIntel,61.72839506,65dbad3905fde4fe1981dc61,65dcd568e2fb1f27d251b62b,,,,,,,,,,,675.0445,0.7,675.7439,675.7439,676.4772,left,1,0.7216,,676.4773,677.4773,5,1,41,2,1,partial,2,images/Ex14.jpg,left,nonreversed,easy,6,,,,,
,,,,,63614851eba9f853fc9ffb45,001,23,male,United Kingdom,College,2024-02-26_18h17.09.385,CRL1e,2023.2.3,MacIntel,61.72839506,65dbad3905fde4fe1981dc61,65dcd568e2fb1f27d251b62b,,,,,,,,,,,677.4779,0.9,678.3772,678.3773,679.0607,left,1,0.675,,679.0608,680.0607,5,2,42,4,1,partial,2,images/Ex15.jpg,left,reversed,easy,6,,,,,
,,,,,63614851eba9f853fc9ffb45,001,23,male,United Kingdom,College,2024-02-26_18h17.09.385,CRL1e,2023.2.3,MacIntel,61.72839506,65dbad3905fde4fe1981dc61,65dcd568e2fb1f27d251b62b,,,,,,,,,,,680.0615,0.7,680.7608,680.7608,682.0942,left,0,1.3311,,682.0943,683.0942,5,3,43,6,1,partial,2,images/Ex16.jpg,right,nonreversed,easy,6,,,,,
,,,,,63614851eba9f853fc9ffb45,001,23,male,United Kingdom,College,2024-02-26_18h17.09.385,CRL1e,2023.2.3,MacIntel,61.72839506,65dbad3905fde4fe1981dc61,65dcd568e2fb1f27d251b62b,,,,,,,,,,,683.095,0.8,683.8942,683.8942,685.6443,right,1,1.737,,685.6443,686.6442,5,4,44,0,1,partial,2,images/Ex13.jpg,right,reversed,easy,6,,,,,
,,,,,63614851eba9f853fc9ffb45,001,23,male,United Kingdom,College,2024-02-26_18h17.09.385,CRL1e,2023.2.3,MacIntel,61.72839506,65dbad3905fde4fe1981dc61,65dcd568e2fb1f27d251b62b,,,,,,,,,,,686.655,1,687.6443,687.6443,688.961,left,1,1.3079,,688.961,689.96,5,5,45,3,1,partial,2,images/Ex14.jpg,left,nonreversed,easy,6,,,,,
,,,,,63614851eba9f853fc9ffb45,001,23,male,United Kingdom,College,2024-02-26_18h17.09.385,CRL1e,2023.2.3,MacIntel,61.72839506,65dbad3905fde4fe1981dc61,65dcd568e2fb1f27d251b62b,,,,,,,,,,,689.9608,1.3,691.2611,691.2611,694.3613,left,0,3.0868,,694.3613,695.3607,5,6,46,1,1,partial,2,images/Ex13.jpg,right,reversed,easy,6,,,,,
,,,,,63614851eba9f853fc9ffb45,001,23,male,United Kingdom,College,2024-02-26_18h17.09.385,CRL1e,2023.2.3,MacIntel,61.72839506,65dbad3905fde4fe1981dc61,65dcd568e2fb1f27d251b62b,,,,,,,,,,,695.371,0.5,695.8612,695.8612,699.6283,left,0,3.7541,,699.6283,700.6281,5,7,47,7,1,partial,2,images/Ex16.jpg,right,nonreversed,easy,6,,,,,
,,,,,63614851eba9f853fc9ffb45,001,23,male,United Kingdom,College,2024-02-26_18h17.09.385,CRL1e,2023.2.3,MacIntel,61.72839506,65dbad3905fde4fe1981dc61,65dcd568e2fb1f27d251b62b,,,,,,,,,,,,,,,,,,,,,,,,,,,,,,,,,,700.629,715.9294,space,15.2721,