infCons.started,infCons.stopped,resp_consent.keys,resp_consent.rt,resp_consent.duration,participant,session,Age?,Gender?,Nationality?,Highest Educational Degree?,date,expName,psychopyVersion,OS,frameRate,STUDY_ID,SESSION_ID,instructions.started,instructions.stopped,resp_instructions.keys,resp_instructions.rt,resp_instructions.duration,nextTask.started,nextTask.stopped,ready_task.keys,ready_task.rt,ready_task.duration,fixation.started,ITI,fixation.stopped,stim.started,stim.stopped,response.keys,response.corr,response.rt,response.duration,feedback.started,feedback.stopped,trials.thisRepN,trials.thisTrialN,trials.thisN,trials.thisIndex,trials.ran,task,phase,Exemplars,r_correct,condition,difficulty,set,end.started,end.stopped,resp_end.keys,resp_end.rt,resp_end.duration
0,13.667,space,13.644,,6413603a62c72120012e05be,001,20,Male,British,High School,2024-02-26_17h51.11.937,CRL1e,2023.2.3,Win32,59.95203837,65dbad3905fde4fe1981dc61,65dccf748945b111c50202d8,,,,,,,,,,,,,,,,,,,,,,,,,,,,,,,,,,,,,,
,,,,,6413603a62c72120012e05be,001,20,Male,British,High School,2024-02-26_17h51.11.937,CRL1e,2023.2.3,Win32,59.95203837,65dbad3905fde4fe1981dc61,65dccf748945b111c50202d8,13.667,44.509,space,30.819,,,,,,,,,,,,,,,,,,,,,,,,,,,,,,,,,,
,,,,,6413603a62c72120012e05be,001,20,Male,British,High School,2024-02-26_17h51.11.937,CRL1e,2023.2.3,Win32,59.95203837,65dbad3905fde4fe1981dc61,65dccf748945b111c50202d8,,,,,,44.513,48.143,space,3.624,,48.15,0.8,48.944,48.944,50.012,left,0,1.062,,50.012,51.012,0,0,0,6,1,partial,1,images/Ex16.jpg,right,training,easy,5,,,,,
,,,,,6413603a62c72120012e05be,001,20,Male,British,High School,2024-02-26_17h51.11.937,CRL1e,2023.2.3,Win32,59.95203837,65dbad3905fde4fe1981dc61,65dccf748945b111c50202d8,,,,,,,,,,,51.013,1.2,52.213,52.214,53.098,right,0,0.87,,53.098,54.098,0,1,1,2,1,partial,1,images/Ex14.jpg,left,training,easy,5,,,,,
,,,,,6413603a62c72120012e05be,001,20,Male,British,High School,2024-02-26_17h51.11.937,CRL1e,2023.2.3,Win32,59.95203837,65dbad3905fde4fe1981dc61,65dccf748945b111c50202d8,,,,,,,,,,,54.099,0.7,54.799,54.799,55.766,left,0,0.958,,55.767,56.767,0,2,2,4,1,partial,1,images/Ex15.jpg,right,training,easy,5,,,,,
,,,,,6413603a62c72120012e05be,001,20,Male,British,High School,2024-02-26_17h51.11.937,CRL1e,2023.2.3,Win32,59.95203837,65dbad3905fde4fe1981dc61,65dccf748945b111c50202d8,,,,,,,,,,,56.768,1,57.769,57.769,58.552,left,0,0.779,,58.552,59.552,0,3,3,5,1,partial,1,images/Ex15.jpg,right,training,easy,5,,,,,
,,,,,6413603a62c72120012e05be,001,20,Male,British,High School,2024-02-26_17h51.11.937,CRL1e,2023.2.3,Win32,59.95203837,65dbad3905fde4fe1981dc61,65dccf748945b111c50202d8,,,,,,,,,,,59.553,0.7,60.254,60.254,61.554,left,1,1.295,,61.554,62.554,0,4,4,3,1,partial,1,images/Ex14.jpg,left,training,easy,5,,,,,
,,,,,6413603a62c72120012e05be,001,20,Male,British,High School,2024-02-26_17h51.11.937,CRL1e,2023.2.3,Win32,59.95203837,65dbad3905fde4fe1981dc61,65dccf748945b111c50202d8,,,,,,,,,,,62.556,0.5,63.056,63.056,63.939,right,1,0.871,,63.939,64.94,0,5,5,7,1,partial,1,images/Ex16.jpg,right,training,easy,5,,,,,
,,,,,6413603a62c72120012e05be,001,20,Male,British,High School,2024-02-26_17h51.11.937,CRL1e,2023.2.3,Win32,59.95203837,65dbad3905fde4fe1981dc61,65dccf748945b111c50202d8,,,,,,,,,,,64.941,0.9,65.841,65.842,66.875,right,0,1.021,,66.875,67.876,0,6,6,0,1,partial,1,images/Ex13.jpg,left,training,easy,5,,,,,
,,,,,6413603a62c72120012e05be,001,20,Male,British,High School,2024-02-26_17h51.11.937,CRL1e,2023.2.3,Win32,59.95203837,65dbad3905fde4fe1981dc61,65dccf748945b111c50202d8,,,,,,,,,,,67.876,1.3,69.177,69.178,70.011,left,1,0.827,,70.011,71.012,0,7,7,1,1,partial,1,images/Ex13.jpg,left,training,easy,5,,,,,
,,,,,6413603a62c72120012e05be,001,20,Male,British,High School,2024-02-26_17h51.11.937,CRL1e,2023.2.3,Win32,59.95203837,65dbad3905fde4fe1981dc61,65dccf748945b111c50202d8,,,,,,,,,,,71.013,1.3,72.313,72.313,73.347,left,0,1.021,,73.347,74.348,1,0,8,5,1,partial,1,images/Ex15.jpg,right,training,easy,5,,,,,
,,,,,6413603a62c72120012e05be,001,20,Male,British,High School,2024-02-26_17h51.11.937,CRL1e,2023.2.3,Win32,59.95203837,65dbad3905fde4fe1981dc61,65dccf748945b111c50202d8,,,,,,,,,,,74.348,0.6,74.948,74.948,76.249,left,1,1.289,,76.249,77.25,1,1,9,0,1,partial,1,images/Ex13.jpg,left,training,easy,5,,,,,
,,,,,6413603a62c72120012e05be,001,20,Male,British,High School,2024-02-26_17h51.11.937,CRL1e,2023.2.3,Win32,59.95203837,65dbad3905fde4fe1981dc61,65dccf748945b111c50202d8,,,,,,,,,,,77.251,0.9,78.151,78.151,79.051,right,1,0.893,,79.051,80.052,1,2,10,7,1,partial,1,images/Ex16.jpg,right,training,easy,5,,,,,
,,,,,6413603a62c72120012e05be,001,20,Male,British,High School,2024-02-26_17h51.11.937,CRL1e,2023.2.3,Win32,59.95203837,65dbad3905fde4fe1981dc61,65dccf748945b111c50202d8,,,,,,,,,,,80.052,1.2,81.254,81.254,81.97,right,0,0.711,,81.97,82.972,1,3,11,1,1,partial,1,images/Ex13.jpg,left,training,easy,5,,,,,
,,,,,6413603a62c72120012e05be,001,20,Male,British,High School,2024-02-26_17h51.11.937,CRL1e,2023.2.3,Win32,59.95203837,65dbad3905fde4fe1981dc61,65dccf748945b111c50202d8,,,,,,,,,,,82.972,1.2,84.172,84.172,85.139,right,1,0.955,,85.139,86.141,1,4,12,6,1,partial,1,images/Ex16.jpg,right,training,easy,5,,,,,
,,,,,6413603a62c72120012e05be,001,20,Male,British,High School,2024-02-26_17h51.11.937,CRL1e,2023.2.3,Win32,59.95203837,65dbad3905fde4fe1981dc61,65dccf748945b111c50202d8,,,,,,,,,,,86.141,1,87.141,87.141,88.109,left,1,0.956,,88.109,89.109,1,5,13,2,1,partial,1,images/Ex14.jpg,left,training,easy,5,,,,,
,,,,,6413603a62c72120012e05be,001,20,Male,British,High School,2024-02-26_17h51.11.937,CRL1e,2023.2.3,Win32,59.95203837,65dbad3905fde4fe1981dc61,65dccf748945b111c50202d8,,,,,,,,,,,89.11,1.4,90.511,90.511,91.628,left,0,1.104,,91.628,92.628,1,6,14,4,1,partial,1,images/Ex15.jpg,right,training,easy,5,,,,,
,,,,,6413603a62c72120012e05be,001,20,Male,British,High School,2024-02-26_17h51.11.937,CRL1e,2023.2.3,Win32,59.95203837,65dbad3905fde4fe1981dc61,65dccf748945b111c50202d8,,,,,,,,,,,92.629,1.5,94.13,94.13,95.214,right,0,1.073,,95.214,96.215,1,7,15,3,1,partial,1,images/Ex14.jpg,left,training,easy,5,,,,,
,,,,,6413603a62c72120012e05be,001,20,Male,British,High School,2024-02-26_17h51.11.937,CRL1e,2023.2.3,Win32,59.95203837,65dbad3905fde4fe1981dc61,65dccf748945b111c50202d8,,,,,,,,,,,96.216,0.9,97.115,97.115,98.334,right,1,1.206,,98.334,99.334,2,0,16,4,1,partial,1,images/Ex15.jpg,right,training,easy,5,,,,,
,,,,,6413603a62c72120012e05be,001,20,Male,British,High School,2024-02-26_17h51.11.937,CRL1e,2023.2.3,Win32,59.95203837,65dbad3905fde4fe1981dc61,65dccf748945b111c50202d8,,,,,,,,,,,99.335,1.3,100.635,100.635,101.502,right,0,0.853,,101.502,102.503,2,1,17,1,1,partial,1,images/Ex13.jpg,left,training,easy,5,,,,,
,,,,,6413603a62c72120012e05be,001,20,Male,British,High School,2024-02-26_17h51.11.937,CRL1e,2023.2.3,Win32,59.95203837,65dbad3905fde4fe1981dc61,65dccf748945b111c50202d8,,,,,,,,,,,102.504,1,103.504,103.504,104.722,left,1,1.205,,104.722,105.723,2,2,18,2,1,partial,1,images/Ex14.jpg,left,training,easy,5,,,,,
,,,,,6413603a62c72120012e05be,001,20,Male,British,High School,2024-02-26_17h51.11.937,CRL1e,2023.2.3,Win32,59.95203837,65dbad3905fde4fe1981dc61,65dccf748945b111c50202d8,,,,,,,,,,,105.724,1.3,107.024,107.024,107.808,left,1,0.774,,107.808,108.808,2,3,19,3,1,partial,1,images/Ex14.jpg,left,training,easy,5,,,,,
,,,,,6413603a62c72120012e05be,001,20,Male,British,High School,2024-02-26_17h51.11.937,CRL1e,2023.2.3,Win32,59.95203837,65dbad3905fde4fe1981dc61,65dccf748945b111c50202d8,,,,,,,,,,,108.809,1,109.809,109.809,110.91,left,0,1.087,,110.91,111.911,2,4,20,5,1,partial,1,images/Ex15.jpg,right,training,easy,5,,,,,
,,,,,6413603a62c72120012e05be,001,20,Male,British,High School,2024-02-26_17h51.11.937,CRL1e,2023.2.3,Win32,59.95203837,65dbad3905fde4fe1981dc61,65dccf748945b111c50202d8,,,,,,,,,,,111.911,0.5,112.411,112.411,113.395,right,1,0.978,,113.395,114.396,2,5,21,6,1,partial,1,images/Ex16.jpg,right,training,easy,5,,,,,
,,,,,6413603a62c72120012e05be,001,20,Male,British,High School,2024-02-26_17h51.11.937,CRL1e,2023.2.3,Win32,59.95203837,65dbad3905fde4fe1981dc61,65dccf748945b111c50202d8,,,,,,,,,,,114.396,1.4,115.797,115.797,116.414,right,1,0.609,,116.414,117.415,2,6,22,7,1,partial,1,images/Ex16.jpg,right,training,easy,5,,,,,
,,,,,6413603a62c72120012e05be,001,20,Male,British,High School,2024-02-26_17h51.11.937,CRL1e,2023.2.3,Win32,59.95203837,65dbad3905fde4fe1981dc61,65dccf748945b111c50202d8,,,,,,,,,,,117.416,0.5,117.915,117.915,119.267,left,1,1.346,,119.267,120.268,2,7,23,0,1,partial,1,images/Ex13.jpg,left,training,easy,5,,,,,
,,,,,6413603a62c72120012e05be,001,20,Male,British,High School,2024-02-26_17h51.11.937,CRL1e,2023.2.3,Win32,59.95203837,65dbad3905fde4fe1981dc61,65dccf748945b111c50202d8,,,,,,,,,,,120.269,0.9,121.167,121.167,122.769,right,1,1.588,,122.769,123.77,3,0,24,5,1,partial,1,images/Ex15.jpg,right,training,easy,5,,,,,
,,,,,6413603a62c72120012e05be,001,20,Male,British,High School,2024-02-26_17h51.11.937,CRL1e,2023.2.3,Win32,59.95203837,65dbad3905fde4fe1981dc61,65dccf748945b111c50202d8,,,,,,,,,,,123.77,0.7,124.471,124.471,125.505,left,1,1.02,,125.505,126.505,3,1,25,3,1,partial,1,images/Ex14.jpg,left,training,easy,5,,,,,
,,,,,6413603a62c72120012e05be,001,20,Male,British,High School,2024-02-26_17h51.11.937,CRL1e,2023.2.3,Win32,59.95203837,65dbad3905fde4fe1981dc61,65dccf748945b111c50202d8,,,,,,,,,,,126.507,1.1,127.606,127.606,128.457,right,1,0.846,,128.457,129.458,3,2,26,4,1,partial,1,images/Ex15.jpg,right,training,easy,5,,,,,
,,,,,6413603a62c72120012e05be,001,20,Male,British,High School,2024-02-26_17h51.11.937,CRL1e,2023.2.3,Win32,59.95203837,65dbad3905fde4fe1981dc61,65dccf748945b111c50202d8,,,,,,,,,,,129.458,1.3,130.759,130.759,131.476,right,1,0.71,,131.476,132.477,3,3,27,6,1,partial,1,images/Ex16.jpg,right,training,easy,5,,,,,
,,,,,6413603a62c72120012e05be,001,20,Male,British,High School,2024-02-26_17h51.11.937,CRL1e,2023.2.3,Win32,59.95203837,65dbad3905fde4fe1981dc61,65dccf748945b111c50202d8,,,,,,,,,,,132.477,1.1,133.578,133.578,134.495,left,1,0.916,,134.495,135.496,3,4,28,2,1,partial,1,images/Ex14.jpg,left,training,easy,5,,,,,
,,,,,6413603a62c72120012e05be,001,20,Male,British,High School,2024-02-26_17h51.11.937,CRL1e,2023.2.3,Win32,59.95203837,65dbad3905fde4fe1981dc61,65dccf748945b111c50202d8,,,,,,,,,,,135.496,1.4,136.897,136.897,137.413,right,1,0.502,,137.413,138.415,3,5,29,7,1,partial,1,images/Ex16.jpg,right,training,easy,5,,,,,
,,,,,6413603a62c72120012e05be,001,20,Male,British,High School,2024-02-26_17h51.11.937,CRL1e,2023.2.3,Win32,59.95203837,65dbad3905fde4fe1981dc61,65dccf748945b111c50202d8,,,,,,,,,,,138.416,1.5,139.916,139.916,140.834,left,1,0.905,,140.834,141.834,3,6,30,0,1,partial,1,images/Ex13.jpg,left,training,easy,5,,,,,
,,,,,6413603a62c72120012e05be,001,20,Male,British,High School,2024-02-26_17h51.11.937,CRL1e,2023.2.3,Win32,59.95203837,65dbad3905fde4fe1981dc61,65dccf748945b111c50202d8,,,,,,,,,,,141.835,1,142.835,142.835,143.535,left,1,0.691,,143.535,144.536,3,7,31,1,1,partial,1,images/Ex13.jpg,left,training,easy,5,,,,,
,,,,,6413603a62c72120012e05be,001,20,Male,British,High School,2024-02-26_17h51.11.937,CRL1e,2023.2.3,Win32,59.95203837,65dbad3905fde4fe1981dc61,65dccf748945b111c50202d8,,,,,,,,,,,144.537,0.9,145.437,145.437,146.104,right,1,0.665,,146.104,147.105,4,0,32,4,1,partial,1,images/Ex15.jpg,right,training,easy,5,,,,,
,,,,,6413603a62c72120012e05be,001,20,Male,British,High School,2024-02-26_17h51.11.937,CRL1e,2023.2.3,Win32,59.95203837,65dbad3905fde4fe1981dc61,65dccf748945b111c50202d8,,,,,,,,,,,147.106,0.7,147.805,147.805,148.39,right,1,0.575,,148.39,149.39,4,1,33,7,1,partial,1,images/Ex16.jpg,right,training,easy,5,,,,,
,,,,,6413603a62c72120012e05be,001,20,Male,British,High School,2024-02-26_17h51.11.937,CRL1e,2023.2.3,Win32,59.95203837,65dbad3905fde4fe1981dc61,65dccf748945b111c50202d8,,,,,,,,,,,149.391,1.4,150.791,150.791,151.258,right,1,0.455,,151.258,152.259,4,2,34,6,1,partial,1,images/Ex16.jpg,right,training,easy,5,,,,,
,,,,,6413603a62c72120012e05be,001,20,Male,British,High School,2024-02-26_17h51.11.937,CRL1e,2023.2.3,Win32,59.95203837,65dbad3905fde4fe1981dc61,65dccf748945b111c50202d8,,,,,,,,,,,152.259,1,153.26,153.26,154.094,left,1,0.82,,154.094,155.094,4,3,35,0,1,partial,1,images/Ex13.jpg,left,training,easy,5,,,,,
,,,,,6413603a62c72120012e05be,001,20,Male,British,High School,2024-02-26_17h51.11.937,CRL1e,2023.2.3,Win32,59.95203837,65dbad3905fde4fe1981dc61,65dccf748945b111c50202d8,,,,,,,,,,,155.094,0.9,155.995,155.995,156.646,right,0,0.639,,156.646,157.647,4,4,36,3,1,partial,1,images/Ex14.jpg,left,training,easy,5,,,,,
,,,,,6413603a62c72120012e05be,001,20,Male,British,High School,2024-02-26_17h51.11.937,CRL1e,2023.2.3,Win32,59.95203837,65dbad3905fde4fe1981dc61,65dccf748945b111c50202d8,,,,,,,,,,,157.649,1,158.647,158.647,159.531,left,1,0.877,,159.531,160.532,4,5,37,1,1,partial,1,images/Ex13.jpg,left,training,easy,5,,,,,
,,,,,6413603a62c72120012e05be,001,20,Male,British,High School,2024-02-26_17h51.11.937,CRL1e,2023.2.3,Win32,59.95203837,65dbad3905fde4fe1981dc61,65dccf748945b111c50202d8,,,,,,,,,,,160.533,1.1,161.633,161.633,162.383,right,1,0.739,,162.383,163.384,4,6,38,5,1,partial,1,images/Ex15.jpg,right,training,easy,5,,,,,
,,,,,6413603a62c72120012e05be,001,20,Male,British,High School,2024-02-26_17h51.11.937,CRL1e,2023.2.3,Win32,59.95203837,65dbad3905fde4fe1981dc61,65dccf748945b111c50202d8,,,,,,,,,,,163.385,1.4,164.785,164.785,165.836,left,1,1.04,,165.836,166.837,4,7,39,2,1,partial,1,images/Ex14.jpg,left,training,easy,5,,,,,
,,,,,6413603a62c72120012e05be,001,20,Male,British,High School,2024-02-26_17h51.11.937,CRL1e,2023.2.3,Win32,59.95203837,65dbad3905fde4fe1981dc61,65dccf748945b111c50202d8,,,,,,,,,,,166.84,1,167.838,167.838,168.405,left,1,0.557,,168.405,169.405,5,0,40,3,1,partial,1,images/Ex14.jpg,left,training,easy,5,,,,,
,,,,,6413603a62c72120012e05be,001,20,Male,British,High School,2024-02-26_17h51.11.937,CRL1e,2023.2.3,Win32,59.95203837,65dbad3905fde4fe1981dc61,65dccf748945b111c50202d8,,,,,,,,,,,169.406,0.6,170.006,170.006,170.874,right,0,0.855,,170.874,171.874,5,1,41,0,1,partial,1,images/Ex13.jpg,left,training,easy,5,,,,,
,,,,,6413603a62c72120012e05be,001,20,Male,British,High School,2024-02-26_17h51.11.937,CRL1e,2023.2.3,Win32,59.95203837,65dbad3905fde4fe1981dc61,65dccf748945b111c50202d8,,,,,,,,,,,171.875,0.5,172.374,172.374,173.225,right,1,0.847,,173.225,174.226,5,2,42,4,1,partial,1,images/Ex15.jpg,right,training,easy,5,,,,,
,,,,,6413603a62c72120012e05be,001,20,Male,British,High School,2024-02-26_17h51.11.937,CRL1e,2023.2.3,Win32,59.95203837,65dbad3905fde4fe1981dc61,65dccf748945b111c50202d8,,,,,,,,,,,174.227,1.4,175.628,175.628,176.161,left,1,0.53,,176.162,177.162,5,3,43,1,1,partial,1,images/Ex13.jpg,left,training,easy,5,,,,,
,,,,,6413603a62c72120012e05be,001,20,Male,British,High School,2024-02-26_17h51.11.937,CRL1e,2023.2.3,Win32,59.95203837,65dbad3905fde4fe1981dc61,65dccf748945b111c50202d8,,,,,,,,,,,177.162,1.1,178.263,178.263,178.797,right,1,0.519,,178.797,179.798,5,4,44,6,1,partial,1,images/Ex16.jpg,right,training,easy,5,,,,,
,,,,,6413603a62c72120012e05be,001,20,Male,British,High School,2024-02-26_17h51.11.937,CRL1e,2023.2.3,Win32,59.95203837,65dbad3905fde4fe1981dc61,65dccf748945b111c50202d8,,,,,,,,,,,179.798,0.8,180.598,180.598,181.015,right,1,0.415,,181.015,182.015,5,5,45,7,1,partial,1,images/Ex16.jpg,right,training,easy,5,,,,,
,,,,,6413603a62c72120012e05be,001,20,Male,British,High School,2024-02-26_17h51.11.937,CRL1e,2023.2.3,Win32,59.95203837,65dbad3905fde4fe1981dc61,65dccf748945b111c50202d8,,,,,,,,,,,182.016,0.9,182.916,182.916,183.734,left,1,0.81,,183.734,184.735,5,6,46,2,1,partial,1,images/Ex14.jpg,left,training,easy,5,,,,,
,,,,,6413603a62c72120012e05be,001,20,Male,British,High School,2024-02-26_17h51.11.937,CRL1e,2023.2.3,Win32,59.95203837,65dbad3905fde4fe1981dc61,65dccf748945b111c50202d8,,,,,,,,,,,184.735,0.6,185.335,185.335,186.003,right,1,0.663,,186.003,187.003,5,7,47,5,1,partial,1,images/Ex15.jpg,right,training,easy,5,,,,,
,,,,,6413603a62c72120012e05be,001,20,Male,British,High School,2024-02-26_17h51.11.937,CRL1e,2023.2.3,Win32,59.95203837,65dbad3905fde4fe1981dc61,65dccf748945b111c50202d8,,,,,,,,,,,187.009,1.2,188.204,188.204,188.938,left,0,0.722,,188.938,189.938,0,0,0,3,1,partial,2,images/Ex14.jpg,right,reversed,easy,5,,,,,
,,,,,6413603a62c72120012e05be,001,20,Male,British,High School,2024-02-26_17h51.11.937,CRL1e,2023.2.3,Win32,59.95203837,65dbad3905fde4fe1981dc61,65dccf748945b111c50202d8,,,,,,,,,,,189.938,1.2,191.141,191.141,191.673,right,0,0.519,,191.673,192.675,0,1,1,7,1,partial,2,images/Ex16.jpg,left,reversed,easy,5,,,,,
,,,,,6413603a62c72120012e05be,001,20,Male,British,High School,2024-02-26_17h51.11.937,CRL1e,2023.2.3,Win32,59.95203837,65dbad3905fde4fe1981dc61,65dccf748945b111c50202d8,,,,,,,,,,,192.676,1,193.675,193.675,194.259,right,0,0.571,,194.259,195.259,0,2,2,6,1,partial,2,images/Ex16.jpg,left,reversed,easy,5,,,,,
,,,,,6413603a62c72120012e05be,001,20,Male,British,High School,2024-02-26_17h51.11.937,CRL1e,2023.2.3,Win32,59.95203837,65dbad3905fde4fe1981dc61,65dccf748945b111c50202d8,,,,,,,,,,,195.262,0.8,196.059,196.059,196.677,left,0,0.609,,196.677,197.678,0,3,3,4,1,partial,2,images/Ex15.jpg,right,nonreversed,easy,5,,,,,
,,,,,6413603a62c72120012e05be,001,20,Male,British,High School,2024-02-26_17h51.11.937,CRL1e,2023.2.3,Win32,59.95203837,65dbad3905fde4fe1981dc61,65dccf748945b111c50202d8,,,,,,,,,,,197.679,1,198.679,198.679,199.813,right,1,1.126,,199.813,200.814,0,4,4,2,1,partial,2,images/Ex14.jpg,right,reversed,easy,5,,,,,
,,,,,6413603a62c72120012e05be,001,20,Male,British,High School,2024-02-26_17h51.11.937,CRL1e,2023.2.3,Win32,59.95203837,65dbad3905fde4fe1981dc61,65dccf748945b111c50202d8,,,,,,,,,,,200.814,0.5,201.314,201.314,202.182,right,0,0.854,,202.182,203.182,0,5,5,0,1,partial,2,images/Ex13.jpg,left,nonreversed,easy,5,,,,,
,,,,,6413603a62c72120012e05be,001,20,Male,British,High School,2024-02-26_17h51.11.937,CRL1e,2023.2.3,Win32,59.95203837,65dbad3905fde4fe1981dc61,65dccf748945b111c50202d8,,,,,,,,,,,203.183,1.4,204.583,204.584,205.35,left,1,0.757,,205.35,206.351,0,6,6,1,1,partial,2,images/Ex13.jpg,left,nonreversed,easy,5,,,,,
,,,,,6413603a62c72120012e05be,001,20,Male,British,High School,2024-02-26_17h51.11.937,CRL1e,2023.2.3,Win32,59.95203837,65dbad3905fde4fe1981dc61,65dccf748945b111c50202d8,,,,,,,,,,,206.352,0.7,207.053,207.053,207.802,right,1,0.737,,207.802,208.804,0,7,7,5,1,partial,2,images/Ex15.jpg,right,nonreversed,easy,5,,,,,
,,,,,6413603a62c72120012e05be,001,20,Male,British,High School,2024-02-26_17h51.11.937,CRL1e,2023.2.3,Win32,59.95203837,65dbad3905fde4fe1981dc61,65dccf748945b111c50202d8,,,,,,,,,,,208.805,1.3,210.105,210.105,210.922,left,0,0.804,,210.922,211.922,1,0,8,2,1,partial,2,images/Ex14.jpg,right,reversed,easy,5,,,,,
,,,,,6413603a62c72120012e05be,001,20,Male,British,High School,2024-02-26_17h51.11.937,CRL1e,2023.2.3,Win32,59.95203837,65dbad3905fde4fe1981dc61,65dccf748945b111c50202d8,,,,,,,,,,,211.923,1.5,213.424,213.424,214.275,left,1,0.844,,214.275,215.275,1,1,9,1,1,partial,2,images/Ex13.jpg,left,nonreversed,easy,5,,,,,
,,,,,6413603a62c72120012e05be,001,20,Male,British,High School,2024-02-26_17h51.11.937,CRL1e,2023.2.3,Win32,59.95203837,65dbad3905fde4fe1981dc61,65dccf748945b111c50202d8,,,,,,,,,,,215.276,1,216.277,216.277,216.843,right,0,0.56,,216.843,217.844,1,2,10,6,1,partial,2,images/Ex16.jpg,left,reversed,easy,5,,,,,
,,,,,6413603a62c72120012e05be,001,20,Male,British,High School,2024-02-26_17h51.11.937,CRL1e,2023.2.3,Win32,59.95203837,65dbad3905fde4fe1981dc61,65dccf748945b111c50202d8,,,,,,,,,,,217.845,1.5,219.345,219.345,220.729,left,0,1.38,,220.729,221.73,1,3,11,4,1,partial,2,images/Ex15.jpg,right,nonreversed,easy,5,,,,,
,,,,,6413603a62c72120012e05be,001,20,Male,British,High School,2024-02-26_17h51.11.937,CRL1e,2023.2.3,Win32,59.95203837,65dbad3905fde4fe1981dc61,65dccf748945b111c50202d8,,,,,,,,,,,221.731,1.2,222.931,222.931,223.683,left,1,0.746,,223.683,224.683,1,4,12,7,1,partial,2,images/Ex16.jpg,left,reversed,easy,5,,,,,
,,,,,6413603a62c72120012e05be,001,20,Male,British,High School,2024-02-26_17h51.11.937,CRL1e,2023.2.3,Win32,59.95203837,65dbad3905fde4fe1981dc61,65dccf748945b111c50202d8,,,,,,,,,,,224.684,1.3,225.984,225.984,226.851,right,1,0.857,,226.851,227.852,1,5,13,5,1,partial,2,images/Ex15.jpg,right,nonreversed,easy,5,,,,,
,,,,,6413603a62c72120012e05be,001,20,Male,British,High School,2024-02-26_17h51.11.937,CRL1e,2023.2.3,Win32,59.95203837,65dbad3905fde4fe1981dc61,65dccf748945b111c50202d8,,,,,,,,,,,227.854,0.7,228.553,228.553,229.237,left,1,0.671,,229.237,230.238,1,6,14,0,1,partial,2,images/Ex13.jpg,left,nonreversed,easy,5,,,,,
,,,,,6413603a62c72120012e05be,001,20,Male,British,High School,2024-02-26_17h51.11.937,CRL1e,2023.2.3,Win32,59.95203837,65dbad3905fde4fe1981dc61,65dccf748945b111c50202d8,,,,,,,,,,,230.239,1.2,231.438,231.438,232.272,left,0,0.822,,232.272,233.273,1,7,15,3,1,partial,2,images/Ex14.jpg,right,reversed,easy,5,,,,,
,,,,,6413603a62c72120012e05be,001,20,Male,British,High School,2024-02-26_17h51.11.937,CRL1e,2023.2.3,Win32,59.95203837,65dbad3905fde4fe1981dc61,65dccf748945b111c50202d8,,,,,,,,,,,233.274,0.8,234.074,234.074,235.091,left,1,1.011,,235.091,236.092,2,0,16,1,1,partial,2,images/Ex13.jpg,left,nonreversed,easy,5,,,,,
,,,,,6413603a62c72120012e05be,001,20,Male,British,High School,2024-02-26_17h51.11.937,CRL1e,2023.2.3,Win32,59.95203837,65dbad3905fde4fe1981dc61,65dccf748945b111c50202d8,,,,,,,,,,,236.093,0.9,236.993,236.993,237.71,right,1,0.708,,237.71,238.711,2,1,17,4,1,partial,2,images/Ex15.jpg,right,nonreversed,easy,5,,,,,
,,,,,6413603a62c72120012e05be,001,20,Male,British,High School,2024-02-26_17h51.11.937,CRL1e,2023.2.3,Win32,59.95203837,65dbad3905fde4fe1981dc61,65dccf748945b111c50202d8,,,,,,,,,,,238.712,1.2,239.912,239.912,240.561,right,1,0.644,,240.561,241.563,2,2,18,3,1,partial,2,images/Ex14.jpg,right,reversed,easy,5,,,,,
,,,,,6413603a62c72120012e05be,001,20,Male,British,High School,2024-02-26_17h51.11.937,CRL1e,2023.2.3,Win32,59.95203837,65dbad3905fde4fe1981dc61,65dccf748945b111c50202d8,,,,,,,,,,,241.563,1.2,242.763,242.763,243.481,left,1,0.715,,243.481,244.482,2,3,19,6,1,partial,2,images/Ex16.jpg,left,reversed,easy,5,,,,,
,,,,,6413603a62c72120012e05be,001,20,Male,British,High School,2024-02-26_17h51.11.937,CRL1e,2023.2.3,Win32,59.95203837,65dbad3905fde4fe1981dc61,65dccf748945b111c50202d8,,,,,,,,,,,244.483,1,245.482,245.482,245.983,left,1,0.489,,245.983,246.983,2,4,20,7,1,partial,2,images/Ex16.jpg,left,reversed,easy,5,,,,,
,,,,,6413603a62c72120012e05be,001,20,Male,British,High School,2024-02-26_17h51.11.937,CRL1e,2023.2.3,Win32,59.95203837,65dbad3905fde4fe1981dc61,65dccf748945b111c50202d8,,,,,,,,,,,246.984,1,247.985,247.985,248.801,left,0,0.813,,248.802,249.803,2,5,21,2,1,partial,2,images/Ex14.jpg,right,reversed,easy,5,,,,,
,,,,,6413603a62c72120012e05be,001,20,Male,British,High School,2024-02-26_17h51.11.937,CRL1e,2023.2.3,Win32,59.95203837,65dbad3905fde4fe1981dc61,65dccf748945b111c50202d8,,,,,,,,,,,249.804,1.4,251.203,251.203,251.838,right,1,0.619,,251.838,252.839,2,6,22,5,1,partial,2,images/Ex15.jpg,right,nonreversed,easy,5,,,,,
,,,,,6413603a62c72120012e05be,001,20,Male,British,High School,2024-02-26_17h51.11.937,CRL1e,2023.2.3,Win32,59.95203837,65dbad3905fde4fe1981dc61,65dccf748945b111c50202d8,,,,,,,,,,,252.84,0.7,253.539,253.539,254.222,left,1,0.674,,254.222,255.224,2,7,23,0,1,partial,2,images/Ex13.jpg,left,nonreversed,easy,5,,,,,
,,,,,6413603a62c72120012e05be,001,20,Male,British,High School,2024-02-26_17h51.11.937,CRL1e,2023.2.3,Win32,59.95203837,65dbad3905fde4fe1981dc61,65dccf748945b111c50202d8,,,,,,,,,,,255.224,0.9,256.125,256.125,256.792,right,1,0.665,,256.793,257.792,3,0,24,3,1,partial,2,images/Ex14.jpg,right,reversed,easy,5,,,,,
,,,,,6413603a62c72120012e05be,001,20,Male,British,High School,2024-02-26_17h51.11.937,CRL1e,2023.2.3,Win32,59.95203837,65dbad3905fde4fe1981dc61,65dccf748945b111c50202d8,,,,,,,,,,,257.793,1.4,259.194,259.194,259.794,left,1,0.587,,259.794,260.794,3,1,25,1,1,partial,2,images/Ex13.jpg,left,nonreversed,easy,5,,,,,
,,,,,6413603a62c72120012e05be,001,20,Male,British,High School,2024-02-26_17h51.11.937,CRL1e,2023.2.3,Win32,59.95203837,65dbad3905fde4fe1981dc61,65dccf748945b111c50202d8,,,,,,,,,,,260.795,1.2,261.996,261.996,262.696,right,1,0.689,,262.696,263.697,3,2,26,2,1,partial,2,images/Ex14.jpg,right,reversed,easy,5,,,,,
,,,,,6413603a62c72120012e05be,001,20,Male,British,High School,2024-02-26_17h51.11.937,CRL1e,2023.2.3,Win32,59.95203837,65dbad3905fde4fe1981dc61,65dccf748945b111c50202d8,,,,,,,,,,,263.697,0.7,264.397,264.398,264.947,right,1,0.538,,264.947,265.948,3,3,27,4,1,partial,2,images/Ex15.jpg,right,nonreversed,easy,5,,,,,
,,,,,6413603a62c72120012e05be,001,20,Male,British,High School,2024-02-26_17h51.11.937,CRL1e,2023.2.3,Win32,59.95203837,65dbad3905fde4fe1981dc61,65dccf748945b111c50202d8,,,,,,,,,,,265.949,1.2,267.149,267.149,267.65,right,1,0.497,,267.65,268.651,3,4,28,5,1,partial,2,images/Ex15.jpg,right,nonreversed,easy,5,,,,,
,,,,,6413603a62c72120012e05be,001,20,Male,British,High School,2024-02-26_17h51.11.937,CRL1e,2023.2.3,Win32,59.95203837,65dbad3905fde4fe1981dc61,65dccf748945b111c50202d8,,,,,,,,,,,268.651,0.7,269.351,269.351,269.919,right,0,0.556,,269.919,270.919,3,5,29,6,1,partial,2,images/Ex16.jpg,left,reversed,easy,5,,,,,
,,,,,6413603a62c72120012e05be,001,20,Male,British,High School,2024-02-26_17h51.11.937,CRL1e,2023.2.3,Win32,59.95203837,65dbad3905fde4fe1981dc61,65dccf748945b111c50202d8,,,,,,,,,,,270.92,0.9,271.82,271.82,272.22,left,1,0.393,,272.22,273.22,3,6,30,7,1,partial,2,images/Ex16.jpg,left,reversed,easy,5,,,,,
,,,,,6413603a62c72120012e05be,001,20,Male,British,High School,2024-02-26_17h51.11.937,CRL1e,2023.2.3,Win32,59.95203837,65dbad3905fde4fe1981dc61,65dccf748945b111c50202d8,,,,,,,,,,,273.222,1,274.222,274.222,275.089,right,0,0.864,,275.09,276.09,3,7,31,0,1,partial,2,images/Ex13.jpg,left,nonreversed,easy,5,,,,,
,,,,,6413603a62c72120012e05be,001,20,Male,British,High School,2024-02-26_17h51.11.937,CRL1e,2023.2.3,Win32,59.95203837,65dbad3905fde4fe1981dc61,65dccf748945b111c50202d8,,,,,,,,,,,276.091,1.2,277.291,277.291,277.974,left,1,0.671,,277.974,278.975,4,0,32,6,1,partial,2,images/Ex16.jpg,left,reversed,easy,5,,,,,
,,,,,6413603a62c72120012e05be,001,20,Male,British,High School,2024-02-26_17h51.11.937,CRL1e,2023.2.3,Win32,59.95203837,65dbad3905fde4fe1981dc61,65dccf748945b111c50202d8,,,,,,,,,,,278.976,0.8,279.776,279.776,280.694,left,1,0.907,,280.694,281.694,4,1,33,7,1,partial,2,images/Ex16.jpg,left,reversed,easy,5,,,,,
,,,,,6413603a62c72120012e05be,001,20,Male,British,High School,2024-02-26_17h51.11.937,CRL1e,2023.2.3,Win32,59.95203837,65dbad3905fde4fe1981dc61,65dccf748945b111c50202d8,,,,,,,,,,,281.695,1,282.695,282.695,283.379,right,1,0.673,,283.379,284.38,4,2,34,2,1,partial,2,images/Ex14.jpg,right,reversed,easy,5,,,,,
,,,,,6413603a62c72120012e05be,001,20,Male,British,High School,2024-02-26_17h51.11.937,CRL1e,2023.2.3,Win32,59.95203837,65dbad3905fde4fe1981dc61,65dccf748945b111c50202d8,,,,,,,,,,,284.38,1.2,285.581,285.581,286.498,left,0,0.912,,286.498,287.499,4,3,35,4,1,partial,2,images/Ex15.jpg,right,nonreversed,easy,5,,,,,
,,,,,6413603a62c72120012e05be,001,20,Male,British,High School,2024-02-26_17h51.11.937,CRL1e,2023.2.3,Win32,59.95203837,65dbad3905fde4fe1981dc61,65dccf748945b111c50202d8,,,,,,,,,,,287.5,0.9,288.4,288.4,289.1,left,1,0.694,,289.1,290.102,4,4,36,1,1,partial,2,images/Ex13.jpg,left,nonreversed,easy,5,,,,,
,,,,,6413603a62c72120012e05be,001,20,Male,British,High School,2024-02-26_17h51.11.937,CRL1e,2023.2.3,Win32,59.95203837,65dbad3905fde4fe1981dc61,65dccf748945b111c50202d8,,,,,,,,,,,290.104,1.4,291.502,291.502,292.119,right,1,0.604,,292.119,293.12,4,5,37,5,1,partial,2,images/Ex15.jpg,right,nonreversed,easy,5,,,,,
,,,,,6413603a62c72120012e05be,001,20,Male,British,High School,2024-02-26_17h51.11.937,CRL1e,2023.2.3,Win32,59.95203837,65dbad3905fde4fe1981dc61,65dccf748945b111c50202d8,,,,,,,,,,,293.12,1.2,294.321,294.321,295.038,right,1,0.708,,295.038,296.04,4,6,38,3,1,partial,2,images/Ex14.jpg,right,reversed,easy,5,,,,,
,,,,,6413603a62c72120012e05be,001,20,Male,British,High School,2024-02-26_17h51.11.937,CRL1e,2023.2.3,Win32,59.95203837,65dbad3905fde4fe1981dc61,65dccf748945b111c50202d8,,,,,,,,,,,296.04,0.7,296.739,296.739,297.407,left,1,0.666,,297.407,298.408,4,7,39,0,1,partial,2,images/Ex13.jpg,left,nonreversed,easy,5,,,,,
,,,,,6413603a62c72120012e05be,001,20,Male,British,High School,2024-02-26_17h51.11.937,CRL1e,2023.2.3,Win32,59.95203837,65dbad3905fde4fe1981dc61,65dccf748945b111c50202d8,,,,,,,,,,,298.409,0.9,299.308,299.308,299.859,right,1,0.547,,299.859,300.86,5,0,40,4,1,partial,2,images/Ex15.jpg,right,nonreversed,easy,5,,,,,
,,,,,6413603a62c72120012e05be,001,20,Male,British,High School,2024-02-26_17h51.11.937,CRL1e,2023.2.3,Win32,59.95203837,65dbad3905fde4fe1981dc61,65dccf748945b111c50202d8,,,,,,,,,,,300.861,0.7,301.56,301.56,302.044,right,1,0.478,,302.044,303.044,5,1,41,2,1,partial,2,images/Ex14.jpg,right,reversed,easy,5,,,,,
,,,,,6413603a62c72120012e05be,001,20,Male,British,High School,2024-02-26_17h51.11.937,CRL1e,2023.2.3,Win32,59.95203837,65dbad3905fde4fe1981dc61,65dccf748945b111c50202d8,,,,,,,,,,,303.046,0.7,303.745,303.745,304.329,left,1,0.572,,304.329,305.33,5,2,42,1,1,partial,2,images/Ex13.jpg,left,nonreversed,easy,5,,,,,
,,,,,6413603a62c72120012e05be,001,20,Male,British,High School,2024-02-26_17h51.11.937,CRL1e,2023.2.3,Win32,59.95203837,65dbad3905fde4fe1981dc61,65dccf748945b111c50202d8,,,,,,,,,,,305.331,1.4,306.73,306.73,307.281,right,1,0.537,,307.281,308.282,5,3,43,5,1,partial,2,images/Ex15.jpg,right,nonreversed,easy,5,,,,,
,,,,,6413603a62c72120012e05be,001,20,Male,British,High School,2024-02-26_17h51.11.937,CRL1e,2023.2.3,Win32,59.95203837,65dbad3905fde4fe1981dc61,65dccf748945b111c50202d8,,,,,,,,,,,308.282,1.3,309.582,309.582,310.133,left,1,0.54,,310.133,311.135,5,4,44,7,1,partial,2,images/Ex16.jpg,left,reversed,easy,5,,,,,
,,,,,6413603a62c72120012e05be,001,20,Male,British,High School,2024-02-26_17h51.11.937,CRL1e,2023.2.3,Win32,59.95203837,65dbad3905fde4fe1981dc61,65dccf748945b111c50202d8,,,,,,,,,,,311.136,0.5,311.635,311.635,312.168,left,1,0.531,,312.168,313.17,5,5,45,6,1,partial,2,images/Ex16.jpg,left,reversed,easy,5,,,,,
,,,,,6413603a62c72120012e05be,001,20,Male,British,High School,2024-02-26_17h51.11.937,CRL1e,2023.2.3,Win32,59.95203837,65dbad3905fde4fe1981dc61,65dccf748945b111c50202d8,,,,,,,,,,,313.171,1.4,314.569,314.569,315.054,right,1,0.475,,315.054,316.054,5,6,46,3,1,partial,2,images/Ex14.jpg,right,reversed,easy,5,,,,,
,,,,,6413603a62c72120012e05be,001,20,Male,British,High School,2024-02-26_17h51.11.937,CRL1e,2023.2.3,Win32,59.95203837,65dbad3905fde4fe1981dc61,65dccf748945b111c50202d8,,,,,,,,,,,316.055,0.7,316.755,316.755,317.289,left,1,0.523,,317.289,318.29,5,7,47,0,1,partial,2,images/Ex13.jpg,left,nonreversed,easy,5,,,,,
,,,,,6413603a62c72120012e05be,001,20,Male,British,High School,2024-02-26_17h51.11.937,CRL1e,2023.2.3,Win32,59.95203837,65dbad3905fde4fe1981dc61,65dccf748945b111c50202d8,,,,,,318.291,322.477,space,4.169,,322.483,0.6,323.078,323.078,324.211,right,1,1.12,,324.212,325.212,0,0,0,5,1,total,1,images/Ex11.jpg,right,training,easy,5,,,,,
,,,,,6413603a62c72120012e05be,001,20,Male,British,High School,2024-02-26_17h51.11.937,CRL1e,2023.2.3,Win32,59.95203837,65dbad3905fde4fe1981dc61,65dccf748945b111c50202d8,,,,,,,,,,,325.213,0.8,326.012,326.012,326.679,left,0,0.654,,326.679,327.681,0,1,1,7,1,total,1,images/Ex12.jpg,right,training,easy,5,,,,,
,,,,,6413603a62c72120012e05be,001,20,Male,British,High School,2024-02-26_17h51.11.937,CRL1e,2023.2.3,Win32,59.95203837,65dbad3905fde4fe1981dc61,65dccf748945b111c50202d8,,,,,,,,,,,327.682,1.4,329.081,329.081,330.133,left,1,1.038,,330.133,331.133,0,2,2,2,1,total,1,images/Ex10.jpg,left,training,easy,5,,,,,
,,,,,6413603a62c72120012e05be,001,20,Male,British,High School,2024-02-26_17h51.11.937,CRL1e,2023.2.3,Win32,59.95203837,65dbad3905fde4fe1981dc61,65dccf748945b111c50202d8,,,,,,,,,,,331.133,1.2,332.334,332.335,333.318,left,1,0.97,,333.318,334.319,0,3,3,0,1,total,1,images/Ex9.jpg,left,training,easy,5,,,,,
,,,,,6413603a62c72120012e05be,001,20,Male,British,High School,2024-02-26_17h51.11.937,CRL1e,2023.2.3,Win32,59.95203837,65dbad3905fde4fe1981dc61,65dccf748945b111c50202d8,,,,,,,,,,,334.32,1.4,335.72,335.72,336.371,left,1,0.644,,336.371,337.371,0,4,4,1,1,total,1,images/Ex9.jpg,left,training,easy,5,,,,,
,,,,,6413603a62c72120012e05be,001,20,Male,British,High School,2024-02-26_17h51.11.937,CRL1e,2023.2.3,Win32,59.95203837,65dbad3905fde4fe1981dc61,65dccf748945b111c50202d8,,,,,,,,,,,337.372,1.2,338.572,338.572,339.456,left,1,0.88,,339.456,340.458,0,5,5,3,1,total,1,images/Ex10.jpg,left,training,easy,5,,,,,
,,,,,6413603a62c72120012e05be,001,20,Male,British,High School,2024-02-26_17h51.11.937,CRL1e,2023.2.3,Win32,59.95203837,65dbad3905fde4fe1981dc61,65dccf748945b111c50202d8,,,,,,,,,,,340.46,0.9,341.357,341.358,341.908,right,1,0.543,,341.908,342.91,0,6,6,4,1,total,1,images/Ex11.jpg,right,training,easy,5,,,,,
,,,,,6413603a62c72120012e05be,001,20,Male,British,High School,2024-02-26_17h51.11.937,CRL1e,2023.2.3,Win32,59.95203837,65dbad3905fde4fe1981dc61,65dccf748945b111c50202d8,,,,,,,,,,,342.91,1.2,344.11,344.11,344.644,right,1,0.528,,344.645,345.644,0,7,7,6,1,total,1,images/Ex12.jpg,right,training,easy,5,,,,,
,,,,,6413603a62c72120012e05be,001,20,Male,British,High School,2024-02-26_17h51.11.937,CRL1e,2023.2.3,Win32,59.95203837,65dbad3905fde4fe1981dc61,65dccf748945b111c50202d8,,,,,,,,,,,345.645,1.1,346.745,346.745,347.429,left,1,0.672,,347.429,348.431,1,0,8,1,1,total,1,images/Ex9.jpg,left,training,easy,5,,,,,
,,,,,6413603a62c72120012e05be,001,20,Male,British,High School,2024-02-26_17h51.11.937,CRL1e,2023.2.3,Win32,59.95203837,65dbad3905fde4fe1981dc61,65dccf748945b111c50202d8,,,,,,,,,,,348.432,0.5,348.931,348.931,349.464,left,0,0.531,,349.464,350.465,1,1,9,7,1,total,1,images/Ex12.jpg,right,training,easy,5,,,,,
,,,,,6413603a62c72120012e05be,001,20,Male,British,High School,2024-02-26_17h51.11.937,CRL1e,2023.2.3,Win32,59.95203837,65dbad3905fde4fe1981dc61,65dccf748945b111c50202d8,,,,,,,,,,,350.465,0.7,351.165,351.165,351.849,left,1,0.68,,351.849,352.851,1,2,10,2,1,total,1,images/Ex10.jpg,left,training,easy,5,,,,,
,,,,,6413603a62c72120012e05be,001,20,Male,British,High School,2024-02-26_17h51.11.937,CRL1e,2023.2.3,Win32,59.95203837,65dbad3905fde4fe1981dc61,65dccf748945b111c50202d8,,,,,,,,,,,352.852,1,353.851,353.851,354.485,right,1,0.622,,354.485,355.485,1,3,11,4,1,total,1,images/Ex11.jpg,right,training,easy,5,,,,,
,,,,,6413603a62c72120012e05be,001,20,Male,British,High School,2024-02-26_17h51.11.937,CRL1e,2023.2.3,Win32,59.95203837,65dbad3905fde4fe1981dc61,65dccf748945b111c50202d8,,,,,,,,,,,355.486,1,356.487,356.487,357.055,right,1,0.556,,357.055,358.055,1,4,12,6,1,total,1,images/Ex12.jpg,right,training,easy,5,,,,,
,,,,,6413603a62c72120012e05be,001,20,Male,British,High School,2024-02-26_17h51.11.937,CRL1e,2023.2.3,Win32,59.95203837,65dbad3905fde4fe1981dc61,65dccf748945b111c50202d8,,,,,,,,,,,358.056,1,359.055,359.055,359.639,right,1,0.575,,359.639,360.64,1,5,13,5,1,total,1,images/Ex11.jpg,right,training,easy,5,,,,,
,,,,,6413603a62c72120012e05be,001,20,Male,British,High School,2024-02-26_17h51.11.937,CRL1e,2023.2.3,Win32,59.95203837,65dbad3905fde4fe1981dc61,65dccf748945b111c50202d8,,,,,,,,,,,360.641,1.2,361.841,361.841,362.425,left,1,0.572,,362.425,363.425,1,6,14,0,1,total,1,images/Ex9.jpg,left,training,easy,5,,,,,
,,,,,6413603a62c72120012e05be,001,20,Male,British,High School,2024-02-26_17h51.11.937,CRL1e,2023.2.3,Win32,59.95203837,65dbad3905fde4fe1981dc61,65dccf748945b111c50202d8,,,,,,,,,,,363.427,1.1,364.526,364.526,365.027,left,1,0.49,,365.027,366.028,1,7,15,3,1,total,1,images/Ex10.jpg,left,training,easy,5,,,,,
,,,,,6413603a62c72120012e05be,001,20,Male,British,High School,2024-02-26_17h51.11.937,CRL1e,2023.2.3,Win32,59.95203837,65dbad3905fde4fe1981dc61,65dccf748945b111c50202d8,,,,,,,,,,,366.029,0.7,366.728,366.728,367.178,left,1,0.439,,367.178,368.18,2,0,16,3,1,total,1,images/Ex10.jpg,left,training,easy,5,,,,,
,,,,,6413603a62c72120012e05be,001,20,Male,British,High School,2024-02-26_17h51.11.937,CRL1e,2023.2.3,Win32,59.95203837,65dbad3905fde4fe1981dc61,65dccf748945b111c50202d8,,,,,,,,,,,368.18,0.6,368.78,368.78,369.263,left,0,0.482,,369.263,370.264,2,1,17,7,1,total,1,images/Ex12.jpg,right,training,easy,5,,,,,
,,,,,6413603a62c72120012e05be,001,20,Male,British,High School,2024-02-26_17h51.11.937,CRL1e,2023.2.3,Win32,59.95203837,65dbad3905fde4fe1981dc61,65dccf748945b111c50202d8,,,,,,,,,,,370.265,1.3,371.564,371.564,372.366,right,1,0.793,,372.366,373.367,2,2,18,6,1,total,1,images/Ex12.jpg,right,training,easy,5,,,,,
,,,,,6413603a62c72120012e05be,001,20,Male,British,High School,2024-02-26_17h51.11.937,CRL1e,2023.2.3,Win32,59.95203837,65dbad3905fde4fe1981dc61,65dccf748945b111c50202d8,,,,,,,,,,,373.368,0.9,374.267,374.268,374.868,left,1,0.593,,374.868,375.868,2,3,19,2,1,total,1,images/Ex10.jpg,left,training,easy,5,,,,,
,,,,,6413603a62c72120012e05be,001,20,Male,British,High School,2024-02-26_17h51.11.937,CRL1e,2023.2.3,Win32,59.95203837,65dbad3905fde4fe1981dc61,65dccf748945b111c50202d8,,,,,,,,,,,375.869,0.9,376.77,376.77,377.369,right,1,0.595,,377.369,378.37,2,4,20,4,1,total,1,images/Ex11.jpg,right,training,easy,5,,,,,
,,,,,6413603a62c72120012e05be,001,20,Male,British,High School,2024-02-26_17h51.11.937,CRL1e,2023.2.3,Win32,59.95203837,65dbad3905fde4fe1981dc61,65dccf748945b111c50202d8,,,,,,,,,,,378.371,1.2,379.572,379.572,380.139,left,1,0.555,,380.139,381.14,2,5,21,1,1,total,1,images/Ex9.jpg,left,training,easy,5,,,,,
,,,,,6413603a62c72120012e05be,001,20,Male,British,High School,2024-02-26_17h51.11.937,CRL1e,2023.2.3,Win32,59.95203837,65dbad3905fde4fe1981dc61,65dccf748945b111c50202d8,,,,,,,,,,,381.141,1,382.14,382.14,382.774,right,1,0.621,,382.775,383.775,2,6,22,5,1,total,1,images/Ex11.jpg,right,training,easy,5,,,,,
,,,,,6413603a62c72120012e05be,001,20,Male,British,High School,2024-02-26_17h51.11.937,CRL1e,2023.2.3,Win32,59.95203837,65dbad3905fde4fe1981dc61,65dccf748945b111c50202d8,,,,,,,,,,,383.776,0.8,384.576,384.576,385.526,left,1,0.939,,385.527,386.528,2,7,23,0,1,total,1,images/Ex9.jpg,left,training,easy,5,,,,,
,,,,,6413603a62c72120012e05be,001,20,Male,British,High School,2024-02-26_17h51.11.937,CRL1e,2023.2.3,Win32,59.95203837,65dbad3905fde4fe1981dc61,65dccf748945b111c50202d8,,,,,,,,,,,386.528,1.2,387.728,387.728,388.262,left,1,0.525,,388.262,389.262,3,0,24,2,1,total,1,images/Ex10.jpg,left,training,easy,5,,,,,
,,,,,6413603a62c72120012e05be,001,20,Male,British,High School,2024-02-26_17h51.11.937,CRL1e,2023.2.3,Win32,59.95203837,65dbad3905fde4fe1981dc61,65dccf748945b111c50202d8,,,,,,,,,,,389.263,0.8,390.065,390.065,390.731,left,0,0.658,,390.731,391.732,3,1,25,6,1,total,1,images/Ex12.jpg,right,training,easy,5,,,,,
,,,,,6413603a62c72120012e05be,001,20,Male,British,High School,2024-02-26_17h51.11.937,CRL1e,2023.2.3,Win32,59.95203837,65dbad3905fde4fe1981dc61,65dccf748945b111c50202d8,,,,,,,,,,,391.733,0.5,392.231,392.231,392.715,right,1,0.469,,392.716,393.716,3,2,26,4,1,total,1,images/Ex11.jpg,right,training,easy,5,,,,,
,,,,,6413603a62c72120012e05be,001,20,Male,British,High School,2024-02-26_17h51.11.937,CRL1e,2023.2.3,Win32,59.95203837,65dbad3905fde4fe1981dc61,65dccf748945b111c50202d8,,,,,,,,,,,393.716,1.5,395.217,395.217,395.767,left,1,0.547,,395.768,396.768,3,3,27,3,1,total,1,images/Ex10.jpg,left,training,easy,5,,,,,
,,,,,6413603a62c72120012e05be,001,20,Male,British,High School,2024-02-26_17h51.11.937,CRL1e,2023.2.3,Win32,59.95203837,65dbad3905fde4fe1981dc61,65dccf748945b111c50202d8,,,,,,,,,,,396.769,1.1,397.87,397.87,398.386,right,1,0.502,,398.387,399.387,3,4,28,5,1,total,1,images/Ex11.jpg,right,training,easy,5,,,,,
,,,,,6413603a62c72120012e05be,001,20,Male,British,High School,2024-02-26_17h51.11.937,CRL1e,2023.2.3,Win32,59.95203837,65dbad3905fde4fe1981dc61,65dccf748945b111c50202d8,,,,,,,,,,,399.387,0.8,400.188,400.188,400.738,left,1,0.537,,400.738,401.739,3,5,29,1,1,total,1,images/Ex9.jpg,left,training,easy,5,,,,,
,,,,,6413603a62c72120012e05be,001,20,Male,British,High School,2024-02-26_17h51.11.937,CRL1e,2023.2.3,Win32,59.95203837,65dbad3905fde4fe1981dc61,65dccf748945b111c50202d8,,,,,,,,,,,401.74,0.6,402.339,402.339,402.923,right,1,0.576,,402.923,403.924,3,6,30,7,1,total,1,images/Ex12.jpg,right,training,easy,5,,,,,
,,,,,6413603a62c72120012e05be,001,20,Male,British,High School,2024-02-26_17h51.11.937,CRL1e,2023.2.3,Win32,59.95203837,65dbad3905fde4fe1981dc61,65dccf748945b111c50202d8,,,,,,,,,,,403.924,1,404.924,404.924,405.658,left,1,0.723,,405.658,406.659,3,7,31,0,1,total,1,images/Ex9.jpg,left,training,easy,5,,,,,
,,,,,6413603a62c72120012e05be,001,20,Male,British,High School,2024-02-26_17h51.11.937,CRL1e,2023.2.3,Win32,59.95203837,65dbad3905fde4fe1981dc61,65dccf748945b111c50202d8,,,,,,,,,,,406.659,0.5,407.159,407.159,407.727,right,1,0.566,,407.728,408.728,4,0,32,5,1,total,1,images/Ex11.jpg,right,training,easy,5,,,,,
,,,,,6413603a62c72120012e05be,001,20,Male,British,High School,2024-02-26_17h51.11.937,CRL1e,2023.2.3,Win32,59.95203837,65dbad3905fde4fe1981dc61,65dccf748945b111c50202d8,,,,,,,,,,,408.729,0.7,409.429,409.429,409.962,left,1,0.527,,409.962,410.963,4,1,33,2,1,total,1,images/Ex10.jpg,left,training,easy,5,,,,,
,,,,,6413603a62c72120012e05be,001,20,Male,British,High School,2024-02-26_17h51.11.937,CRL1e,2023.2.3,Win32,59.95203837,65dbad3905fde4fe1981dc61,65dccf748945b111c50202d8,,,,,,,,,,,410.964,0.9,411.863,411.863,412.447,left,1,0.584,,412.447,413.448,4,2,34,1,1,total,1,images/Ex9.jpg,left,training,easy,5,,,,,
,,,,,6413603a62c72120012e05be,001,20,Male,British,High School,2024-02-26_17h51.11.937,CRL1e,2023.2.3,Win32,59.95203837,65dbad3905fde4fe1981dc61,65dccf748945b111c50202d8,,,,,,,,,,,413.448,1.4,414.85,414.85,415.516,right,1,0.659,,415.516,416.517,4,3,35,6,1,total,1,images/Ex12.jpg,right,training,easy,5,,,,,
,,,,,6413603a62c72120012e05be,001,20,Male,British,High School,2024-02-26_17h51.11.937,CRL1e,2023.2.3,Win32,59.95203837,65dbad3905fde4fe1981dc61,65dccf748945b111c50202d8,,,,,,,,,,,416.518,1.4,417.918,417.918,418.552,right,1,0.632,,418.552,419.553,4,4,36,7,1,total,1,images/Ex12.jpg,right,training,easy,5,,,,,
,,,,,6413603a62c72120012e05be,001,20,Male,British,High School,2024-02-26_17h51.11.937,CRL1e,2023.2.3,Win32,59.95203837,65dbad3905fde4fe1981dc61,65dccf748945b111c50202d8,,,,,,,,,,,419.553,0.9,420.454,420.454,420.987,left,1,0.527,,420.987,421.987,4,5,37,3,1,total,1,images/Ex10.jpg,left,training,easy,5,,,,,
,,,,,6413603a62c72120012e05be,001,20,Male,British,High School,2024-02-26_17h51.11.937,CRL1e,2023.2.3,Win32,59.95203837,65dbad3905fde4fe1981dc61,65dccf748945b111c50202d8,,,,,,,,,,,421.988,1.3,423.289,423.29,423.84,left,1,0.546,,423.841,424.84,4,6,38,0,1,total,1,images/Ex9.jpg,left,training,easy,5,,,,,
,,,,,6413603a62c72120012e05be,001,20,Male,British,High School,2024-02-26_17h51.11.937,CRL1e,2023.2.3,Win32,59.95203837,65dbad3905fde4fe1981dc61,65dccf748945b111c50202d8,,,,,,,,,,,424.841,0.6,425.441,425.441,426.074,right,1,0.621,,426.076,427.076,4,7,39,4,1,total,1,images/Ex11.jpg,right,training,easy,5,,,,,
,,,,,6413603a62c72120012e05be,001,20,Male,British,High School,2024-02-26_17h51.11.937,CRL1e,2023.2.3,Win32,59.95203837,65dbad3905fde4fe1981dc61,65dccf748945b111c50202d8,,,,,,,,,,,427.077,0.8,427.876,427.876,428.426,left,1,0.538,,428.426,429.427,5,0,40,3,1,total,1,images/Ex10.jpg,left,training,easy,5,,,,,
,,,,,6413603a62c72120012e05be,001,20,Male,British,High School,2024-02-26_17h51.11.937,CRL1e,2023.2.3,Win32,59.95203837,65dbad3905fde4fe1981dc61,65dccf748945b111c50202d8,,,,,,,,,,,429.428,1.2,430.628,430.629,431.179,right,1,0.545,,431.179,432.179,5,1,41,5,1,total,1,images/Ex11.jpg,right,training,easy,5,,,,,
,,,,,6413603a62c72120012e05be,001,20,Male,British,High School,2024-02-26_17h51.11.937,CRL1e,2023.2.3,Win32,59.95203837,65dbad3905fde4fe1981dc61,65dccf748945b111c50202d8,,,,,,,,,,,432.181,0.8,432.98,432.98,433.431,left,1,0.45,,433.431,434.432,5,2,42,2,1,total,1,images/Ex10.jpg,left,training,easy,5,,,,,
,,,,,6413603a62c72120012e05be,001,20,Male,British,High School,2024-02-26_17h51.11.937,CRL1e,2023.2.3,Win32,59.95203837,65dbad3905fde4fe1981dc61,65dccf748945b111c50202d8,,,,,,,,,,,434.432,0.6,435.032,435.032,435.699,right,1,0.654,,435.699,436.7,5,3,43,7,1,total,1,images/Ex12.jpg,right,training,easy,5,,,,,
,,,,,6413603a62c72120012e05be,001,20,Male,British,High School,2024-02-26_17h51.11.937,CRL1e,2023.2.3,Win32,59.95203837,65dbad3905fde4fe1981dc61,65dccf748945b111c50202d8,,,,,,,,,,,436.701,1,437.7,437.7,438.267,left,1,0.556,,438.267,439.269,5,4,44,0,1,total,1,images/Ex9.jpg,left,training,easy,5,,,,,
,,,,,6413603a62c72120012e05be,001,20,Male,British,High School,2024-02-26_17h51.11.937,CRL1e,2023.2.3,Win32,59.95203837,65dbad3905fde4fe1981dc61,65dccf748945b111c50202d8,,,,,,,,,,,439.27,0.9,440.169,440.169,441.037,right,1,0.855,,441.037,442.038,5,5,45,6,1,total,1,images/Ex12.jpg,right,training,easy,5,,,,,
,,,,,6413603a62c72120012e05be,001,20,Male,British,High School,2024-02-26_17h51.11.937,CRL1e,2023.2.3,Win32,59.95203837,65dbad3905fde4fe1981dc61,65dccf748945b111c50202d8,,,,,,,,,,,442.038,1.3,443.338,443.338,443.872,right,1,0.524,,443.872,444.873,5,6,46,4,1,total,1,images/Ex11.jpg,right,training,easy,5,,,,,
,,,,,6413603a62c72120012e05be,001,20,Male,British,High School,2024-02-26_17h51.11.937,CRL1e,2023.2.3,Win32,59.95203837,65dbad3905fde4fe1981dc61,65dccf748945b111c50202d8,,,,,,,,,,,444.874,1.2,446.074,446.074,446.708,left,1,0.62,,446.708,447.709,5,7,47,1,1,total,1,images/Ex9.jpg,left,training,easy,5,,,,,
,,,,,6413603a62c72120012e05be,001,20,Male,British,High School,2024-02-26_17h51.11.937,CRL1e,2023.2.3,Win32,59.95203837,65dbad3905fde4fe1981dc61,65dccf748945b111c50202d8,,,,,,,,,,,447.716,1,448.709,448.709,449.56,left,1,0.839,,449.56,450.561,0,0,0,7,1,total,2,images/Ex12.jpg,left,reversed,easy,5,,,,,
,,,,,6413603a62c72120012e05be,001,20,Male,British,High School,2024-02-26_17h51.11.937,CRL1e,2023.2.3,Win32,59.95203837,65dbad3905fde4fe1981dc61,65dccf748945b111c50202d8,,,,,,,,,,,450.562,0.8,451.361,451.361,452.012,right,0,0.639,,452.012,453.012,0,1,1,4,1,total,2,images/Ex11.jpg,left,reversed,easy,5,,,,,
,,,,,6413603a62c72120012e05be,001,20,Male,British,High School,2024-02-26_17h51.11.937,CRL1e,2023.2.3,Win32,59.95203837,65dbad3905fde4fe1981dc61,65dccf748945b111c50202d8,,,,,,,,,,,453.012,0.9,453.913,453.913,454.497,left,0,0.582,,454.497,455.498,0,2,2,2,1,total,2,images/Ex10.jpg,right,reversed,easy,5,,,,,
,,,,,6413603a62c72120012e05be,001,20,Male,British,High School,2024-02-26_17h51.11.937,CRL1e,2023.2.3,Win32,59.95203837,65dbad3905fde4fe1981dc61,65dccf748945b111c50202d8,,,,,,,,,,,455.499,1.3,456.799,456.799,457.516,left,1,0.709,,457.516,458.517,0,3,3,5,1,total,2,images/Ex11.jpg,left,reversed,easy,5,,,,,
,,,,,6413603a62c72120012e05be,001,20,Male,British,High School,2024-02-26_17h51.11.937,CRL1e,2023.2.3,Win32,59.95203837,65dbad3905fde4fe1981dc61,65dccf748945b111c50202d8,,,,,,,,,,,458.519,1.3,459.818,459.818,460.602,right,1,0.778,,460.602,461.603,0,4,4,0,1,total,2,images/Ex9.jpg,right,reversed,easy,5,,,,,
,,,,,6413603a62c72120012e05be,001,20,Male,British,High School,2024-02-26_17h51.11.937,CRL1e,2023.2.3,Win32,59.95203837,65dbad3905fde4fe1981dc61,65dccf748945b111c50202d8,,,,,,,,,,,461.604,0.9,462.503,462.503,463.037,left,0,0.52,,463.037,464.038,0,5,5,3,1,total,2,images/Ex10.jpg,right,reversed,easy,5,,,,,
,,,,,6413603a62c72120012e05be,001,20,Male,British,High School,2024-02-26_17h51.11.937,CRL1e,2023.2.3,Win32,59.95203837,65dbad3905fde4fe1981dc61,65dccf748945b111c50202d8,,,,,,,,,,,464.039,0.6,464.638,464.638,465.473,left,1,0.829,,465.473,466.473,0,6,6,6,1,total,2,images/Ex12.jpg,left,reversed,easy,5,,,,,
,,,,,6413603a62c72120012e05be,001,20,Male,British,High School,2024-02-26_17h51.11.937,CRL1e,2023.2.3,Win32,59.95203837,65dbad3905fde4fe1981dc61,65dccf748945b111c50202d8,,,,,,,,,,,466.474,0.8,467.274,467.274,467.991,right,1,0.716,,467.991,468.992,0,7,7,1,1,total,2,images/Ex9.jpg,right,reversed,easy,5,,,,,
,,,,,6413603a62c72120012e05be,001,20,Male,British,High School,2024-02-26_17h51.11.937,CRL1e,2023.2.3,Win32,59.95203837,65dbad3905fde4fe1981dc61,65dccf748945b111c50202d8,,,,,,,,,,,468.994,0.8,469.793,469.793,470.426,right,1,0.62,,470.426,471.427,1,0,8,2,1,total,2,images/Ex10.jpg,right,reversed,easy,5,,,,,
,,,,,6413603a62c72120012e05be,001,20,Male,British,High School,2024-02-26_17h51.11.937,CRL1e,2023.2.3,Win32,59.95203837,65dbad3905fde4fe1981dc61,65dccf748945b111c50202d8,,,,,,,,,,,471.427,1.3,472.728,472.728,473.412,left,1,0.672,,473.412,474.412,1,1,9,5,1,total,2,images/Ex11.jpg,left,reversed,easy,5,,,,,
,,,,,6413603a62c72120012e05be,001,20,Male,British,High School,2024-02-26_17h51.11.937,CRL1e,2023.2.3,Win32,59.95203837,65dbad3905fde4fe1981dc61,65dccf748945b111c50202d8,,,,,,,,,,,474.412,1.2,475.614,475.614,476.181,right,0,0.554,,476.181,477.182,1,2,10,7,1,total,2,images/Ex12.jpg,left,reversed,easy,5,,,,,
,,,,,6413603a62c72120012e05be,001,20,Male,British,High School,2024-02-26_17h51.11.937,CRL1e,2023.2.3,Win32,59.95203837,65dbad3905fde4fe1981dc61,65dccf748945b111c50202d8,,,,,,,,,,,477.182,0.6,477.781,477.781,478.383,left,1,0.588,,478.383,479.384,1,3,11,6,1,total,2,images/Ex12.jpg,left,reversed,easy,5,,,,,
,,,,,6413603a62c72120012e05be,001,20,Male,British,High School,2024-02-26_17h51.11.937,CRL1e,2023.2.3,Win32,59.95203837,65dbad3905fde4fe1981dc61,65dccf748945b111c50202d8,,,,,,,,,,,479.385,0.8,480.184,480.184,481.135,left,1,0.94,,481.135,482.136,1,4,12,4,1,total,2,images/Ex11.jpg,left,reversed,easy,5,,,,,
,,,,,6413603a62c72120012e05be,001,20,Male,British,High School,2024-02-26_17h51.11.937,CRL1e,2023.2.3,Win32,59.95203837,65dbad3905fde4fe1981dc61,65dccf748945b111c50202d8,,,,,,,,,,,482.136,1,483.137,483.137,483.787,right,1,0.636,,483.787,484.787,1,5,13,3,1,total,2,images/Ex10.jpg,right,reversed,easy,5,,,,,
,,,,,6413603a62c72120012e05be,001,20,Male,British,High School,2024-02-26_17h51.11.937,CRL1e,2023.2.3,Win32,59.95203837,65dbad3905fde4fe1981dc61,65dccf748945b111c50202d8,,,,,,,,,,,484.787,0.6,485.388,485.388,486.089,right,1,0.689,,486.089,487.089,1,6,14,0,1,total,2,images/Ex9.jpg,right,reversed,easy,5,,,,,
,,,,,6413603a62c72120012e05be,001,20,Male,British,High School,2024-02-26_17h51.11.937,CRL1e,2023.2.3,Win32,59.95203837,65dbad3905fde4fe1981dc61,65dccf748945b111c50202d8,,,,,,,,,,,487.089,0.8,487.891,487.891,488.324,right,1,0.421,,488.324,489.324,1,7,15,1,1,total,2,images/Ex9.jpg,right,reversed,easy,5,,,,,
,,,,,6413603a62c72120012e05be,001,20,Male,British,High School,2024-02-26_17h51.11.937,CRL1e,2023.2.3,Win32,59.95203837,65dbad3905fde4fe1981dc61,65dccf748945b111c50202d8,,,,,,,,,,,489.325,1.1,490.425,490.425,490.959,right,1,0.531,,490.959,491.96,2,0,16,2,1,total,2,images/Ex10.jpg,right,reversed,easy,5,,,,,
,,,,,6413603a62c72120012e05be,001,20,Male,British,High School,2024-02-26_17h51.11.937,CRL1e,2023.2.3,Win32,59.95203837,65dbad3905fde4fe1981dc61,65dccf748945b111c50202d8,,,,,,,,,,,491.961,1.3,493.261,493.261,493.828,right,0,0.554,,493.828,494.829,2,1,17,6,1,total,2,images/Ex12.jpg,left,reversed,easy,5,,,,,
,,,,,6413603a62c72120012e05be,001,20,Male,British,High School,2024-02-26_17h51.11.937,CRL1e,2023.2.3,Win32,59.95203837,65dbad3905fde4fe1981dc61,65dccf748945b111c50202d8,,,,,,,,,,,494.829,0.8,495.629,495.629,496.413,left,1,0.771,,496.414,497.414,2,2,18,4,1,total,2,images/Ex11.jpg,left,reversed,easy,5,,,,,
,,,,,6413603a62c72120012e05be,001,20,Male,British,High School,2024-02-26_17h51.11.937,CRL1e,2023.2.3,Win32,59.95203837,65dbad3905fde4fe1981dc61,65dccf748945b111c50202d8,,,,,,,,,,,497.414,0.9,498.315,498.315,499.099,right,1,0.771,,499.099,500.1,2,3,19,0,1,total,2,images/Ex9.jpg,right,reversed,easy,5,,,,,
,,,,,6413603a62c72120012e05be,001,20,Male,British,High School,2024-02-26_17h51.11.937,CRL1e,2023.2.3,Win32,59.95203837,65dbad3905fde4fe1981dc61,65dccf748945b111c50202d8,,,,,,,,,,,500.101,1.2,501.301,501.301,502.085,left,1,0.775,,502.085,503.086,2,4,20,7,1,total,2,images/Ex12.jpg,left,reversed,easy,5,,,,,
,,,,,6413603a62c72120012e05be,001,20,Male,British,High School,2024-02-26_17h51.11.937,CRL1e,2023.2.3,Win32,59.95203837,65dbad3905fde4fe1981dc61,65dccf748945b111c50202d8,,,,,,,,,,,503.086,1.4,504.487,504.487,505.12,right,1,0.631,,505.12,506.121,2,5,21,3,1,total,2,images/Ex10.jpg,right,reversed,easy,5,,,,,
,,,,,6413603a62c72120012e05be,001,20,Male,British,High School,2024-02-26_17h51.11.937,CRL1e,2023.2.3,Win32,59.95203837,65dbad3905fde4fe1981dc61,65dccf748945b111c50202d8,,,,,,,,,,,506.121,0.6,506.722,506.722,507.257,right,0,0.532,,507.257,508.256,2,6,22,5,1,total,2,images/Ex11.jpg,left,reversed,easy,5,,,,,
,,,,,6413603a62c72120012e05be,001,20,Male,British,High School,2024-02-26_17h51.11.937,CRL1e,2023.2.3,Win32,59.95203837,65dbad3905fde4fe1981dc61,65dccf748945b111c50202d8,,,,,,,,,,,508.257,1,509.257,509.257,510.024,right,1,0.763,,510.024,511.025,2,7,23,1,1,total,2,images/Ex9.jpg,right,reversed,easy,5,,,,,
,,,,,6413603a62c72120012e05be,001,20,Male,British,High School,2024-02-26_17h51.11.937,CRL1e,2023.2.3,Win32,59.95203837,65dbad3905fde4fe1981dc61,65dccf748945b111c50202d8,,,,,,,,,,,511.025,0.6,511.625,511.625,512.393,right,1,0.765,,512.393,513.393,3,0,24,2,1,total,2,images/Ex10.jpg,right,reversed,easy,5,,,,,
,,,,,6413603a62c72120012e05be,001,20,Male,British,High School,2024-02-26_17h51.11.937,CRL1e,2023.2.3,Win32,59.95203837,65dbad3905fde4fe1981dc61,65dccf748945b111c50202d8,,,,,,,,,,,513.395,1.1,514.495,514.495,515.295,left,1,0.789,,515.295,516.296,3,1,25,4,1,total,2,images/Ex11.jpg,left,reversed,easy,5,,,,,
,,,,,6413603a62c72120012e05be,001,20,Male,British,High School,2024-02-26_17h51.11.937,CRL1e,2023.2.3,Win32,59.95203837,65dbad3905fde4fe1981dc61,65dccf748945b111c50202d8,,,,,,,,,,,516.296,0.8,517.096,517.096,517.864,left,0,0.758,,517.865,518.865,3,2,26,1,1,total,2,images/Ex9.jpg,right,reversed,easy,5,,,,,
,,,,,6413603a62c72120012e05be,001,20,Male,British,High School,2024-02-26_17h51.11.937,CRL1e,2023.2.3,Win32,59.95203837,65dbad3905fde4fe1981dc61,65dccf748945b111c50202d8,,,,,,,,,,,518.866,0.9,519.765,519.765,520.599,left,1,0.824,,520.599,521.6,3,3,27,5,1,total,2,images/Ex11.jpg,left,reversed,easy,5,,,,,
,,,,,6413603a62c72120012e05be,001,20,Male,British,High School,2024-02-26_17h51.11.937,CRL1e,2023.2.3,Win32,59.95203837,65dbad3905fde4fe1981dc61,65dccf748945b111c50202d8,,,,,,,,,,,521.601,1.2,522.803,522.803,523.334,right,1,0.526,,523.334,524.336,3,4,28,0,1,total,2,images/Ex9.jpg,right,reversed,easy,5,,,,,
,,,,,6413603a62c72120012e05be,001,20,Male,British,High School,2024-02-26_17h51.11.937,CRL1e,2023.2.3,Win32,59.95203837,65dbad3905fde4fe1981dc61,65dccf748945b111c50202d8,,,,,,,,,,,524.336,0.6,524.936,524.936,525.586,right,0,0.646,,525.587,526.587,3,5,29,7,1,total,2,images/Ex12.jpg,left,reversed,easy,5,,,,,
,,,,,6413603a62c72120012e05be,001,20,Male,British,High School,2024-02-26_17h51.11.937,CRL1e,2023.2.3,Win32,59.95203837,65dbad3905fde4fe1981dc61,65dccf748945b111c50202d8,,,,,,,,,,,526.588,1,527.588,527.588,528.256,right,1,0.658,,528.256,529.256,3,6,30,3,1,total,2,images/Ex10.jpg,right,reversed,easy,5,,,,,
,,,,,6413603a62c72120012e05be,001,20,Male,British,High School,2024-02-26_17h51.11.937,CRL1e,2023.2.3,Win32,59.95203837,65dbad3905fde4fe1981dc61,65dccf748945b111c50202d8,,,,,,,,,,,529.258,1.2,530.457,530.457,531.257,left,1,0.788,,531.258,532.258,3,7,31,6,1,total,2,images/Ex12.jpg,left,reversed,easy,5,,,,,
,,,,,6413603a62c72120012e05be,001,20,Male,British,High School,2024-02-26_17h51.11.937,CRL1e,2023.2.3,Win32,59.95203837,65dbad3905fde4fe1981dc61,65dccf748945b111c50202d8,,,,,,,,,,,532.258,1.4,533.659,533.659,534.244,right,1,0.571,,534.244,535.244,4,0,32,1,1,total,2,images/Ex9.jpg,right,reversed,easy,5,,,,,
,,,,,6413603a62c72120012e05be,001,20,Male,British,High School,2024-02-26_17h51.11.937,CRL1e,2023.2.3,Win32,59.95203837,65dbad3905fde4fe1981dc61,65dccf748945b111c50202d8,,,,,,,,,,,535.246,1,536.245,536.245,536.929,right,1,0.675,,536.929,537.93,4,1,33,3,1,total,2,images/Ex10.jpg,right,reversed,easy,5,,,,,
,,,,,6413603a62c72120012e05be,001,20,Male,British,High School,2024-02-26_17h51.11.937,CRL1e,2023.2.3,Win32,59.95203837,65dbad3905fde4fe1981dc61,65dccf748945b111c50202d8,,,,,,,,,,,537.931,1.4,539.331,539.331,540.165,left,1,0.825,,540.165,541.165,4,2,34,4,1,total,2,images/Ex11.jpg,left,reversed,easy,5,,,,,
,,,,,6413603a62c72120012e05be,001,20,Male,British,High School,2024-02-26_17h51.11.937,CRL1e,2023.2.3,Win32,59.95203837,65dbad3905fde4fe1981dc61,65dccf748945b111c50202d8,,,,,,,,,,,541.165,0.6,541.766,541.766,542.383,left,1,0.616,,542.383,543.383,4,3,35,5,1,total,2,images/Ex11.jpg,left,reversed,easy,5,,,,,
,,,,,6413603a62c72120012e05be,001,20,Male,British,High School,2024-02-26_17h51.11.937,CRL1e,2023.2.3,Win32,59.95203837,65dbad3905fde4fe1981dc61,65dccf748945b111c50202d8,,,,,,,,,,,543.384,1.2,544.585,544.585,545.702,right,0,1.108,,545.702,546.703,4,4,36,6,1,total,2,images/Ex12.jpg,left,reversed,easy,5,,,,,
,,,,,6413603a62c72120012e05be,001,20,Male,British,High School,2024-02-26_17h51.11.937,CRL1e,2023.2.3,Win32,59.95203837,65dbad3905fde4fe1981dc61,65dccf748945b111c50202d8,,,,,,,,,,,546.703,1.3,548.004,548.004,548.654,right,1,0.64,,548.654,549.656,4,5,37,0,1,total,2,images/Ex9.jpg,right,reversed,easy,5,,,,,
,,,,,6413603a62c72120012e05be,001,20,Male,British,High School,2024-02-26_17h51.11.937,CRL1e,2023.2.3,Win32,59.95203837,65dbad3905fde4fe1981dc61,65dccf748945b111c50202d8,,,,,,,,,,,549.656,1.3,550.956,550.956,551.573,right,1,0.609,,551.573,552.574,4,6,38,2,1,total,2,images/Ex10.jpg,right,reversed,easy,5,,,,,
,,,,,6413603a62c72120012e05be,001,20,Male,British,High School,2024-02-26_17h51.11.937,CRL1e,2023.2.3,Win32,59.95203837,65dbad3905fde4fe1981dc61,65dccf748945b111c50202d8,,,,,,,,,,,552.575,0.6,553.175,553.175,553.875,left,1,0.694,,553.875,554.876,4,7,39,7,1,total,2,images/Ex12.jpg,left,reversed,easy,5,,,,,
,,,,,6413603a62c72120012e05be,001,20,Male,British,High School,2024-02-26_17h51.11.937,CRL1e,2023.2.3,Win32,59.95203837,65dbad3905fde4fe1981dc61,65dccf748945b111c50202d8,,,,,,,,,,,554.876,0.7,555.577,555.577,556.228,right,1,0.639,,556.229,557.228,5,0,40,0,1,total,2,images/Ex9.jpg,right,reversed,easy,5,,,,,
,,,,,6413603a62c72120012e05be,001,20,Male,British,High School,2024-02-26_17h51.11.937,CRL1e,2023.2.3,Win32,59.95203837,65dbad3905fde4fe1981dc61,65dccf748945b111c50202d8,,,,,,,,,,,557.23,1.2,558.429,558.429,559.013,right,1,0.572,,559.013,560.013,5,1,41,1,1,total,2,images/Ex9.jpg,right,reversed,easy,5,,,,,
,,,,,6413603a62c72120012e05be,001,20,Male,British,High School,2024-02-26_17h51.11.937,CRL1e,2023.2.3,Win32,59.95203837,65dbad3905fde4fe1981dc61,65dccf748945b111c50202d8,,,,,,,,,,,560.013,0.6,560.614,560.614,561.565,left,1,0.938,,561.565,562.565,5,2,42,5,1,total,2,images/Ex11.jpg,left,reversed,easy,5,,,,,
,,,,,6413603a62c72120012e05be,001,20,Male,British,High School,2024-02-26_17h51.11.937,CRL1e,2023.2.3,Win32,59.95203837,65dbad3905fde4fe1981dc61,65dccf748945b111c50202d8,,,,,,,,,,,562.567,0.7,563.266,563.266,563.917,right,1,0.64,,563.917,564.917,5,3,43,3,1,total,2,images/Ex10.jpg,right,reversed,easy,5,,,,,
,,,,,6413603a62c72120012e05be,001,20,Male,British,High School,2024-02-26_17h51.11.937,CRL1e,2023.2.3,Win32,59.95203837,65dbad3905fde4fe1981dc61,65dccf748945b111c50202d8,,,,,,,,,,,564.918,1.3,566.219,566.219,566.852,right,0,0.622,,566.852,567.853,5,4,44,7,1,total,2,images/Ex12.jpg,left,reversed,easy,5,,,,,
,,,,,6413603a62c72120012e05be,001,20,Male,British,High School,2024-02-26_17h51.11.937,CRL1e,2023.2.3,Win32,59.95203837,65dbad3905fde4fe1981dc61,65dccf748945b111c50202d8,,,,,,,,,,,567.854,1.2,569.054,569.054,569.705,right,1,0.649,,569.705,570.706,5,5,45,2,1,total,2,images/Ex10.jpg,right,reversed,easy,5,,,,,
,,,,,6413603a62c72120012e05be,001,20,Male,British,High School,2024-02-26_17h51.11.937,CRL1e,2023.2.3,Win32,59.95203837,65dbad3905fde4fe1981dc61,65dccf748945b111c50202d8,,,,,,,,,,,570.707,1.4,572.107,572.107,572.907,left,1,0.794,,572.907,573.907,5,6,46,4,1,total,2,images/Ex11.jpg,left,reversed,easy,5,,,,,
,,,,,6413603a62c72120012e05be,001,20,Male,British,High School,2024-02-26_17h51.11.937,CRL1e,2023.2.3,Win32,59.95203837,65dbad3905fde4fe1981dc61,65dccf748945b111c50202d8,,,,,,,,,,,573.908,1.2,575.109,575.109,575.81,left,1,0.696,,575.81,576.811,5,7,47,6,1,total,2,images/Ex12.jpg,left,reversed,easy,5,,,,,
,,,,,6413603a62c72120012e05be,001,20,Male,British,High School,2024-02-26_17h51.11.937,CRL1e,2023.2.3,Win32,59.95203837,65dbad3905fde4fe1981dc61,65dccf748945b111c50202d8,,,,,,,,,,,,,,,,,,,,,,,,,,,,,,,,,,576.811,614.124,space,37.291,