infCons.started,infCons.stopped,resp_consent.keys,resp_consent.rt,resp_consent.duration,participant,session,Age?,Gender?,Nationality?,Highest Educational Degree?,date,expName,psychopyVersion,OS,frameRate,STUDY_ID,SESSION_ID,instructions.started,instructions.stopped,resp_instructions.keys,resp_instructions.rt,resp_instructions.duration,nextTask.started,nextTask.stopped,ready_task.keys,ready_task.rt,ready_task.duration,fixation.started,ITI,fixation.stopped,stim.started,stim.stopped,response.keys,response.corr,response.rt,response.duration,feedback.started,feedback.stopped,trials.thisRepN,trials.thisTrialN,trials.thisN,trials.thisIndex,trials.ran,task,phase,Exemplars,r_correct,condition,difficulty,set,end.started,end.stopped,resp_end.keys,resp_end.rt,resp_end.duration
0.0003,10.1515,space,10.1402,,644cdee223c4b93bf46c7301,001,30,male,nigerian,msc,2024-02-26_19h16.50.990,CRL1e,2023.2.3,Win32,59.88023952,65dbad3905fde4fe1981dc61,65dcd565f40fd5cad9b7b5a5,,,,,,,,,,,,,,,,,,,,,,,,,,,,,,,,,,,,,,
,,,,,644cdee223c4b93bf46c7301,001,30,male,nigerian,msc,2024-02-26_19h16.50.990,CRL1e,2023.2.3,Win32,59.88023952,65dbad3905fde4fe1981dc61,65dcd565f40fd5cad9b7b5a5,10.1526,35.5291,space,25.3432,,,,,,,,,,,,,,,,,,,,,,,,,,,,,,,,,,
,,,,,644cdee223c4b93bf46c7301,001,30,male,nigerian,msc,2024-02-26_19h16.50.990,CRL1e,2023.2.3,Win32,59.88023952,65dbad3905fde4fe1981dc61,65dcd565f40fd5cad9b7b5a5,,,,,,35.5686,38.1598,space,2.5751,,38.172,1.4,39.576,39.5763,96.7087,right,1,57.1032,,96.7362,97.7058,0,0,0,6,1,partial,1,images/Ex16.jpg,right,training,easy,6,,,,,
,,,,,644cdee223c4b93bf46c7301,001,30,male,nigerian,msc,2024-02-26_19h16.50.990,CRL1e,2023.2.3,Win32,59.88023952,65dbad3905fde4fe1981dc61,65dcd565f40fd5cad9b7b5a5,,,,,,,,,,,97.7069,1.3,99.0062,99.0063,113.6896,right,1,14.672,,113.6897,114.6893,0,1,1,7,1,partial,1,images/Ex16.jpg,right,training,easy,6,,,,,
,,,,,644cdee223c4b93bf46c7301,001,30,male,nigerian,msc,2024-02-26_19h16.50.990,CRL1e,2023.2.3,Win32,59.88023952,65dbad3905fde4fe1981dc61,65dcd565f40fd5cad9b7b5a5,,,,,,,,,,,114.6906,0.7,115.3889,115.389,115.4719,left,1,0.0706,,115.4719,116.4722,0,2,2,3,1,partial,1,images/Ex14.jpg,left,training,easy,6,,,,,
,,,,,644cdee223c4b93bf46c7301,001,30,male,nigerian,msc,2024-02-26_19h16.50.990,CRL1e,2023.2.3,Win32,59.88023952,65dbad3905fde4fe1981dc61,65dcd565f40fd5cad9b7b5a5,,,,,,,,,,,116.4731,0.8,117.2723,117.2724,117.738,left,0,0.4528,,117.738,118.7381,0,3,3,4,1,partial,1,images/Ex15.jpg,right,training,easy,6,,,,,
,,,,,644cdee223c4b93bf46c7301,001,30,male,nigerian,msc,2024-02-26_19h16.50.990,CRL1e,2023.2.3,Win32,59.88023952,65dbad3905fde4fe1981dc61,65dcd565f40fd5cad9b7b5a5,,,,,,,,,,,118.7386,1.4,120.1391,120.1392,120.6722,right,0,0.5282,,120.6725,121.672,0,4,4,1,1,partial,1,images/Ex13.jpg,left,training,easy,6,,,,,
,,,,,644cdee223c4b93bf46c7301,001,30,male,nigerian,msc,2024-02-26_19h16.50.990,CRL1e,2023.2.3,Win32,59.88023952,65dbad3905fde4fe1981dc61,65dcd565f40fd5cad9b7b5a5,,,,,,,,,,,121.6729,1,122.671,122.671,123.7047,left,0,1.0218,,123.7047,124.7047,0,5,5,5,1,partial,1,images/Ex15.jpg,right,training,easy,6,,,,,
,,,,,644cdee223c4b93bf46c7301,001,30,male,nigerian,msc,2024-02-26_19h16.50.990,CRL1e,2023.2.3,Win32,59.88023952,65dbad3905fde4fe1981dc61,65dcd565f40fd5cad9b7b5a5,,,,,,,,,,,124.7054,0.7,125.4048,125.4049,126.0721,right,0,0.6557,,126.0723,127.0717,0,6,6,2,1,partial,1,images/Ex14.jpg,left,training,easy,6,,,,,
,,,,,644cdee223c4b93bf46c7301,001,30,male,nigerian,msc,2024-02-26_19h16.50.990,CRL1e,2023.2.3,Win32,59.88023952,65dbad3905fde4fe1981dc61,65dcd565f40fd5cad9b7b5a5,,,,,,,,,,,127.073,0.5,127.5717,127.5718,127.9049,right,0,0.3282,,127.905,128.9049,0,7,7,0,1,partial,1,images/Ex13.jpg,left,training,easy,6,,,,,
,,,,,644cdee223c4b93bf46c7301,001,30,male,nigerian,msc,2024-02-26_19h16.50.990,CRL1e,2023.2.3,Win32,59.88023952,65dbad3905fde4fe1981dc61,65dcd565f40fd5cad9b7b5a5,,,,,,,,,,,128.906,1.2,130.1048,130.1049,130.405,left,0,0.2933,,130.405,131.4046,1,0,8,6,1,partial,1,images/Ex16.jpg,right,training,easy,6,,,,,
,,,,,644cdee223c4b93bf46c7301,001,30,male,nigerian,msc,2024-02-26_19h16.50.990,CRL1e,2023.2.3,Win32,59.88023952,65dbad3905fde4fe1981dc61,65dcd565f40fd5cad9b7b5a5,,,,,,,,,,,131.4057,1.4,132.8046,132.8046,133.0553,left,1,0.2395,,133.0554,134.0548,1,1,9,1,1,partial,1,images/Ex13.jpg,left,training,easy,6,,,,,
,,,,,644cdee223c4b93bf46c7301,001,30,male,nigerian,msc,2024-02-26_19h16.50.990,CRL1e,2023.2.3,Win32,59.88023952,65dbad3905fde4fe1981dc61,65dcd565f40fd5cad9b7b5a5,,,,,,,,,,,134.0557,0.6,134.6547,134.6553,135.1719,right,0,0.5063,,135.172,136.1715,1,2,10,0,1,partial,1,images/Ex13.jpg,left,training,easy,6,,,,,
,,,,,644cdee223c4b93bf46c7301,001,30,male,nigerian,msc,2024-02-26_19h16.50.990,CRL1e,2023.2.3,Win32,59.88023952,65dbad3905fde4fe1981dc61,65dcd565f40fd5cad9b7b5a5,,,,,,,,,,,136.1723,1.2,137.3716,137.3717,137.7212,left,1,0.3459,,137.7213,138.7211,1,3,11,2,1,partial,1,images/Ex14.jpg,left,training,easy,6,,,,,
,,,,,644cdee223c4b93bf46c7301,001,30,male,nigerian,msc,2024-02-26_19h16.50.990,CRL1e,2023.2.3,Win32,59.88023952,65dbad3905fde4fe1981dc61,65dcd565f40fd5cad9b7b5a5,,,,,,,,,,,138.722,1.5,140.221,140.2212,140.6214,left,0,0.3896,,140.6215,141.6213,1,4,12,7,1,partial,1,images/Ex16.jpg,right,training,easy,6,,,,,
,,,,,644cdee223c4b93bf46c7301,001,30,male,nigerian,msc,2024-02-26_19h16.50.990,CRL1e,2023.2.3,Win32,59.88023952,65dbad3905fde4fe1981dc61,65dcd565f40fd5cad9b7b5a5,,,,,,,,,,,141.6221,1.2,142.8211,142.8212,143.2048,right,0,0.3794,,143.2049,144.2044,1,5,13,3,1,partial,1,images/Ex14.jpg,left,training,easy,6,,,,,
,,,,,644cdee223c4b93bf46c7301,001,30,male,nigerian,msc,2024-02-26_19h16.50.990,CRL1e,2023.2.3,Win32,59.88023952,65dbad3905fde4fe1981dc61,65dcd565f40fd5cad9b7b5a5,,,,,,,,,,,144.2057,1.1,145.3039,145.3039,148.4708,left,0,3.1635,,148.4709,149.4706,1,6,14,4,1,partial,1,images/Ex15.jpg,right,training,easy,6,,,,,
,,,,,644cdee223c4b93bf46c7301,001,30,male,nigerian,msc,2024-02-26_19h16.50.990,CRL1e,2023.2.3,Win32,59.88023952,65dbad3905fde4fe1981dc61,65dcd565f40fd5cad9b7b5a5,,,,,,,,,,,149.4981,1.3,150.7874,150.7875,151.2211,right,1,0.4236,,151.2212,152.2205,1,7,15,5,1,partial,1,images/Ex15.jpg,right,training,easy,6,,,,,
,,,,,644cdee223c4b93bf46c7301,001,30,male,nigerian,msc,2024-02-26_19h16.50.990,CRL1e,2023.2.3,Win32,59.88023952,65dbad3905fde4fe1981dc61,65dcd565f40fd5cad9b7b5a5,,,,,,,,,,,152.2213,1.1,153.3206,153.3206,154.0207,right,0,0.6883,,154.0208,155.0206,2,0,16,1,1,partial,1,images/Ex13.jpg,left,training,easy,6,,,,,
,,,,,644cdee223c4b93bf46c7301,001,30,male,nigerian,msc,2024-02-26_19h16.50.990,CRL1e,2023.2.3,Win32,59.88023952,65dbad3905fde4fe1981dc61,65dcd565f40fd5cad9b7b5a5,,,,,,,,,,,155.0217,1.3,156.3204,156.3204,156.6372,left,0,0.3081,,156.6374,157.6371,2,1,17,6,1,partial,1,images/Ex16.jpg,right,training,easy,6,,,,,
,,,,,644cdee223c4b93bf46c7301,001,30,male,nigerian,msc,2024-02-26_19h16.50.990,CRL1e,2023.2.3,Win32,59.88023952,65dbad3905fde4fe1981dc61,65dcd565f40fd5cad9b7b5a5,,,,,,,,,,,157.6381,1,158.637,158.637,159.0872,right,0,0.4381,,159.0872,160.0868,2,2,18,0,1,partial,1,images/Ex13.jpg,left,training,easy,6,,,,,
,,,,,644cdee223c4b93bf46c7301,001,30,male,nigerian,msc,2024-02-26_19h16.50.990,CRL1e,2023.2.3,Win32,59.88023952,65dbad3905fde4fe1981dc61,65dcd565f40fd5cad9b7b5a5,,,,,,,,,,,160.0877,0.8,160.8869,160.887,162.154,right,0,1.2567,,162.1542,163.1534,2,3,19,2,1,partial,1,images/Ex14.jpg,left,training,easy,6,,,,,
,,,,,644cdee223c4b93bf46c7301,001,30,male,nigerian,msc,2024-02-26_19h16.50.990,CRL1e,2023.2.3,Win32,59.88023952,65dbad3905fde4fe1981dc61,65dcd565f40fd5cad9b7b5a5,,,,,,,,,,,163.1545,0.7,163.8532,163.8534,164.2378,left,0,0.3818,,164.2379,165.2364,2,4,20,7,1,partial,1,images/Ex16.jpg,right,training,easy,6,,,,,
,,,,,644cdee223c4b93bf46c7301,001,30,male,nigerian,msc,2024-02-26_19h16.50.990,CRL1e,2023.2.3,Win32,59.88023952,65dbad3905fde4fe1981dc61,65dcd565f40fd5cad9b7b5a5,,,,,,,,,,,165.2375,1.4,166.6368,166.6368,167.0194,right,1,0.379,,167.0195,168.0198,2,5,21,4,1,partial,1,images/Ex15.jpg,right,training,easy,6,,,,,
,,,,,644cdee223c4b93bf46c7301,001,30,male,nigerian,msc,2024-02-26_19h16.50.990,CRL1e,2023.2.3,Win32,59.88023952,65dbad3905fde4fe1981dc61,65dcd565f40fd5cad9b7b5a5,,,,,,,,,,,168.0208,1.3,169.3197,169.3198,170.0031,right,1,0.6811,,170.0032,171.003,2,6,22,5,1,partial,1,images/Ex15.jpg,right,training,easy,6,,,,,
,,,,,644cdee223c4b93bf46c7301,001,30,male,nigerian,msc,2024-02-26_19h16.50.990,CRL1e,2023.2.3,Win32,59.88023952,65dbad3905fde4fe1981dc61,65dcd565f40fd5cad9b7b5a5,,,,,,,,,,,171.0041,0.5,171.5031,171.5033,172.0864,right,0,0.5711,,172.0864,173.086,2,7,23,3,1,partial,1,images/Ex14.jpg,left,training,easy,6,,,,,
,,,,,644cdee223c4b93bf46c7301,001,30,male,nigerian,msc,2024-02-26_19h16.50.990,CRL1e,2023.2.3,Win32,59.88023952,65dbad3905fde4fe1981dc61,65dcd565f40fd5cad9b7b5a5,,,,,,,,,,,173.0869,1.3,174.3861,174.3861,174.6363,left,0,0.2468,,174.6364,175.636,3,0,24,6,1,partial,1,images/Ex16.jpg,right,training,easy,6,,,,,
,,,,,644cdee223c4b93bf46c7301,001,30,male,nigerian,msc,2024-02-26_19h16.50.990,CRL1e,2023.2.3,Win32,59.88023952,65dbad3905fde4fe1981dc61,65dcd565f40fd5cad9b7b5a5,,,,,,,,,,,175.6369,0.6,176.2361,176.2361,179.2198,right,0,2.9747,,179.2199,180.2192,3,1,25,2,1,partial,1,images/Ex14.jpg,left,training,easy,6,,,,,
,,,,,644cdee223c4b93bf46c7301,001,30,male,nigerian,msc,2024-02-26_19h16.50.990,CRL1e,2023.2.3,Win32,59.88023952,65dbad3905fde4fe1981dc61,65dcd565f40fd5cad9b7b5a5,,,,,,,,,,,180.2462,0.8,181.0355,181.0356,181.6692,left,0,0.6231,,181.6693,182.669,3,2,26,4,1,partial,1,images/Ex15.jpg,right,training,easy,6,,,,,
,,,,,644cdee223c4b93bf46c7301,001,30,male,nigerian,msc,2024-02-26_19h16.50.990,CRL1e,2023.2.3,Win32,59.88023952,65dbad3905fde4fe1981dc61,65dcd565f40fd5cad9b7b5a5,,,,,,,,,,,182.67,0.7,183.3691,183.3691,183.8526,right,0,0.4736,,183.8526,184.8525,3,3,27,3,1,partial,1,images/Ex14.jpg,left,training,easy,6,,,,,
,,,,,644cdee223c4b93bf46c7301,001,30,male,nigerian,msc,2024-02-26_19h16.50.990,CRL1e,2023.2.3,Win32,59.88023952,65dbad3905fde4fe1981dc61,65dcd565f40fd5cad9b7b5a5,,,,,,,,,,,184.8538,1,185.8526,185.8527,185.8773,left,1,0.0218,,185.8773,186.8691,3,4,28,1,1,partial,1,images/Ex13.jpg,left,training,easy,6,,,,,
,,,,,644cdee223c4b93bf46c7301,001,30,male,nigerian,msc,2024-02-26_19h16.50.990,CRL1e,2023.2.3,Win32,59.88023952,65dbad3905fde4fe1981dc61,65dcd565f40fd5cad9b7b5a5,,,,,,,,,,,186.8701,1.2,188.0688,188.0689,188.9027,right,1,0.8237,,188.9028,189.9024,3,5,29,5,1,partial,1,images/Ex15.jpg,right,training,easy,6,,,,,
,,,,,644cdee223c4b93bf46c7301,001,30,male,nigerian,msc,2024-02-26_19h16.50.990,CRL1e,2023.2.3,Win32,59.88023952,65dbad3905fde4fe1981dc61,65dcd565f40fd5cad9b7b5a5,,,,,,,,,,,189.9034,1.5,191.4033,191.4033,191.6532,left,1,0.238,,191.6534,192.6527,3,6,30,0,1,partial,1,images/Ex13.jpg,left,training,easy,6,,,,,
,,,,,644cdee223c4b93bf46c7301,001,30,male,nigerian,msc,2024-02-26_19h16.50.990,CRL1e,2023.2.3,Win32,59.88023952,65dbad3905fde4fe1981dc61,65dcd565f40fd5cad9b7b5a5,,,,,,,,,,,192.6543,1.3,193.9523,193.9524,194.4377,left,0,0.4772,,194.4378,195.4355,3,7,31,7,1,partial,1,images/Ex16.jpg,right,training,easy,6,,,,,
,,,,,644cdee223c4b93bf46c7301,001,30,male,nigerian,msc,2024-02-26_19h16.50.990,CRL1e,2023.2.3,Win32,59.88023952,65dbad3905fde4fe1981dc61,65dcd565f40fd5cad9b7b5a5,,,,,,,,,,,195.4368,1.5,196.9353,196.9354,197.2746,right,0,0.3351,,197.2748,198.2689,4,0,32,1,1,partial,1,images/Ex13.jpg,left,training,easy,6,,,,,
,,,,,644cdee223c4b93bf46c7301,001,30,male,nigerian,msc,2024-02-26_19h16.50.990,CRL1e,2023.2.3,Win32,59.88023952,65dbad3905fde4fe1981dc61,65dcd565f40fd5cad9b7b5a5,,,,,,,,,,,198.2699,1.1,199.3688,199.369,199.7526,left,0,0.3721,,199.7528,200.7523,4,1,33,7,1,partial,1,images/Ex16.jpg,right,training,easy,6,,,,,
,,,,,644cdee223c4b93bf46c7301,001,30,male,nigerian,msc,2024-02-26_19h16.50.990,CRL1e,2023.2.3,Win32,59.88023952,65dbad3905fde4fe1981dc61,65dcd565f40fd5cad9b7b5a5,,,,,,,,,,,200.7536,0.7,201.4523,201.4524,202.0187,right,1,0.5545,,202.0188,203.0189,4,2,34,5,1,partial,1,images/Ex15.jpg,right,training,easy,6,,,,,
,,,,,644cdee223c4b93bf46c7301,001,30,male,nigerian,msc,2024-02-26_19h16.50.990,CRL1e,2023.2.3,Win32,59.88023952,65dbad3905fde4fe1981dc61,65dcd565f40fd5cad9b7b5a5,,,,,,,,,,,203.0199,0.9,203.9186,203.9187,204.3688,right,0,0.4401,,204.3693,205.3683,4,3,35,3,1,partial,1,images/Ex14.jpg,left,training,easy,6,,,,,
,,,,,644cdee223c4b93bf46c7301,001,30,male,nigerian,msc,2024-02-26_19h16.50.990,CRL1e,2023.2.3,Win32,59.88023952,65dbad3905fde4fe1981dc61,65dcd565f40fd5cad9b7b5a5,,,,,,,,,,,205.3693,1.2,206.5672,206.5673,206.968,left,0,0.3879,,206.9681,207.9682,4,4,36,4,1,partial,1,images/Ex15.jpg,right,training,easy,6,,,,,
,,,,,644cdee223c4b93bf46c7301,001,30,male,nigerian,msc,2024-02-26_19h16.50.990,CRL1e,2023.2.3,Win32,59.88023952,65dbad3905fde4fe1981dc61,65dcd565f40fd5cad9b7b5a5,,,,,,,,,,,207.9692,1,208.9683,208.9684,209.4693,right,0,0.4982,,209.4695,210.4683,4,5,37,0,1,partial,1,images/Ex13.jpg,left,training,easy,6,,,,,
,,,,,644cdee223c4b93bf46c7301,001,30,male,nigerian,msc,2024-02-26_19h16.50.990,CRL1e,2023.2.3,Win32,59.88023952,65dbad3905fde4fe1981dc61,65dcd565f40fd5cad9b7b5a5,,,,,,,,,,,210.4696,0.6,211.0688,211.0689,211.5842,left,0,0.5023,,211.5842,212.5847,4,6,38,6,1,partial,1,images/Ex16.jpg,right,training,easy,6,,,,,
,,,,,644cdee223c4b93bf46c7301,001,30,male,nigerian,msc,2024-02-26_19h16.50.990,CRL1e,2023.2.3,Win32,59.88023952,65dbad3905fde4fe1981dc61,65dcd565f40fd5cad9b7b5a5,,,,,,,,,,,212.586,1.3,213.8847,213.8848,214.2746,right,0,0.3746,,214.2748,215.2677,4,7,39,2,1,partial,1,images/Ex14.jpg,left,training,easy,6,,,,,
,,,,,644cdee223c4b93bf46c7301,001,30,male,nigerian,msc,2024-02-26_19h16.50.990,CRL1e,2023.2.3,Win32,59.88023952,65dbad3905fde4fe1981dc61,65dcd565f40fd5cad9b7b5a5,,,,,,,,,,,215.2686,0.6,215.868,215.8681,218.6521,left,1,2.7728,,218.6524,219.6509,5,0,40,1,1,partial,1,images/Ex13.jpg,left,training,easy,6,,,,,
,,,,,644cdee223c4b93bf46c7301,001,30,male,nigerian,msc,2024-02-26_19h16.50.990,CRL1e,2023.2.3,Win32,59.88023952,65dbad3905fde4fe1981dc61,65dcd565f40fd5cad9b7b5a5,,,,,,,,,,,219.6832,1.3,220.9843,220.9843,222.0353,right,1,1.0402,,222.0354,223.0343,5,1,41,5,1,partial,1,images/Ex15.jpg,right,training,easy,6,,,,,
,,,,,644cdee223c4b93bf46c7301,001,30,male,nigerian,msc,2024-02-26_19h16.50.990,CRL1e,2023.2.3,Win32,59.88023952,65dbad3905fde4fe1981dc61,65dcd565f40fd5cad9b7b5a5,,,,,,,,,,,223.0355,0.8,223.834,223.8341,224.4676,left,0,0.6298,,224.4677,225.4669,5,2,42,7,1,partial,1,images/Ex16.jpg,right,training,easy,6,,,,,
,,,,,644cdee223c4b93bf46c7301,001,30,male,nigerian,msc,2024-02-26_19h16.50.990,CRL1e,2023.2.3,Win32,59.88023952,65dbad3905fde4fe1981dc61,65dcd565f40fd5cad9b7b5a5,,,,,,,,,,,225.4677,1.5,226.9674,226.9675,227.2848,right,1,0.3148,,227.285,228.2845,5,3,43,6,1,partial,1,images/Ex16.jpg,right,training,easy,6,,,,,
,,,,,644cdee223c4b93bf46c7301,001,30,male,nigerian,msc,2024-02-26_19h16.50.990,CRL1e,2023.2.3,Win32,59.88023952,65dbad3905fde4fe1981dc61,65dcd565f40fd5cad9b7b5a5,,,,,,,,,,,228.2858,1,229.2837,229.2838,229.834,right,0,0.5398,,229.8341,230.8337,5,4,44,0,1,partial,1,images/Ex13.jpg,left,training,easy,6,,,,,
,,,,,644cdee223c4b93bf46c7301,001,30,male,nigerian,msc,2024-02-26_19h16.50.990,CRL1e,2023.2.3,Win32,59.88023952,65dbad3905fde4fe1981dc61,65dcd565f40fd5cad9b7b5a5,,,,,,,,,,,230.8347,1,231.8337,231.8338,232.2172,left,1,0.372,,232.2174,233.2169,5,5,45,3,1,partial,1,images/Ex14.jpg,left,training,easy,6,,,,,
,,,,,644cdee223c4b93bf46c7301,001,30,male,nigerian,msc,2024-02-26_19h16.50.990,CRL1e,2023.2.3,Win32,59.88023952,65dbad3905fde4fe1981dc61,65dcd565f40fd5cad9b7b5a5,,,,,,,,,,,233.2179,1.2,234.417,234.417,234.8011,left,0,0.3762,,234.8012,235.7996,5,6,46,4,1,partial,1,images/Ex15.jpg,right,training,easy,6,,,,,
,,,,,644cdee223c4b93bf46c7301,001,30,male,nigerian,msc,2024-02-26_19h16.50.990,CRL1e,2023.2.3,Win32,59.88023952,65dbad3905fde4fe1981dc61,65dcd565f40fd5cad9b7b5a5,,,,,,,,,,,235.8001,1.2,237,237.0001,237.3004,right,0,0.2899,,237.3005,238.3006,5,7,47,2,1,partial,1,images/Ex14.jpg,left,training,easy,6,,,,,
,,,,,644cdee223c4b93bf46c7301,001,30,male,nigerian,msc,2024-02-26_19h16.50.990,CRL1e,2023.2.3,Win32,59.88023952,65dbad3905fde4fe1981dc61,65dcd565f40fd5cad9b7b5a5,,,,,,,,,,,238.3116,0.7,239,239,239.5334,left,0,0.5267,,239.5337,240.5331,0,0,0,6,1,partial,2,images/Ex16.jpg,right,nonreversed,easy,6,,,,,
,,,,,644cdee223c4b93bf46c7301,001,30,male,nigerian,msc,2024-02-26_19h16.50.990,CRL1e,2023.2.3,Win32,59.88023952,65dbad3905fde4fe1981dc61,65dcd565f40fd5cad9b7b5a5,,,,,,,,,,,240.5345,0.9,241.4332,241.4333,241.8004,right,1,0.3567,,241.8005,242.7994,0,1,1,7,1,partial,2,images/Ex16.jpg,right,nonreversed,easy,6,,,,,
,,,,,644cdee223c4b93bf46c7301,001,30,male,nigerian,msc,2024-02-26_19h16.50.990,CRL1e,2023.2.3,Win32,59.88023952,65dbad3905fde4fe1981dc61,65dcd565f40fd5cad9b7b5a5,,,,,,,,,,,242.8002,1,243.7998,243.7999,244.2,right,0,0.3947,,244.2002,245.1992,0,2,2,4,1,partial,2,images/Ex15.jpg,left,reversed,easy,6,,,,,
,,,,,644cdee223c4b93bf46c7301,001,30,male,nigerian,msc,2024-02-26_19h16.50.990,CRL1e,2023.2.3,Win32,59.88023952,65dbad3905fde4fe1981dc61,65dcd565f40fd5cad9b7b5a5,,,,,,,,,,,245.1997,0.7,245.9007,245.9007,246.2498,left,1,0.3383,,246.2499,247.2495,0,3,3,3,1,partial,2,images/Ex14.jpg,left,nonreversed,easy,6,,,,,
,,,,,644cdee223c4b93bf46c7301,001,30,male,nigerian,msc,2024-02-26_19h16.50.990,CRL1e,2023.2.3,Win32,59.88023952,65dbad3905fde4fe1981dc61,65dcd565f40fd5cad9b7b5a5,,,,,,,,,,,247.2503,1.3,248.5495,248.5495,252.2329,left,0,3.6734,,252.233,253.2325,0,4,4,1,1,partial,2,images/Ex13.jpg,right,reversed,easy,6,,,,,
,,,,,644cdee223c4b93bf46c7301,001,30,male,nigerian,msc,2024-02-26_19h16.50.990,CRL1e,2023.2.3,Win32,59.88023952,65dbad3905fde4fe1981dc61,65dcd565f40fd5cad9b7b5a5,,,,,,,,,,,253.2612,0.9,254.1491,254.1491,254.6329,left,1,0.4715,,254.6331,255.6319,0,5,5,2,1,partial,2,images/Ex14.jpg,left,nonreversed,easy,6,,,,,
,,,,,644cdee223c4b93bf46c7301,001,30,male,nigerian,msc,2024-02-26_19h16.50.990,CRL1e,2023.2.3,Win32,59.88023952,65dbad3905fde4fe1981dc61,65dcd565f40fd5cad9b7b5a5,,,,,,,,,,,255.6324,1.3,256.9326,256.9327,257.516,right,0,0.5732,,257.5161,258.5154,0,6,6,5,1,partial,2,images/Ex15.jpg,left,reversed,easy,6,,,,,
,,,,,644cdee223c4b93bf46c7301,001,30,male,nigerian,msc,2024-02-26_19h16.50.990,CRL1e,2023.2.3,Win32,59.88023952,65dbad3905fde4fe1981dc61,65dcd565f40fd5cad9b7b5a5,,,,,,,,,,,258.5163,1.2,259.7153,259.7154,260.0657,left,0,0.3442,,260.0659,261.0654,0,7,7,0,1,partial,2,images/Ex13.jpg,right,reversed,easy,6,,,,,
,,,,,644cdee223c4b93bf46c7301,001,30,male,nigerian,msc,2024-02-26_19h16.50.990,CRL1e,2023.2.3,Win32,59.88023952,65dbad3905fde4fe1981dc61,65dcd565f40fd5cad9b7b5a5,,,,,,,,,,,261.0664,1.1,262.1654,262.1656,262.4494,right,0,0.275,,262.4495,263.4488,1,0,8,2,1,partial,2,images/Ex14.jpg,left,nonreversed,easy,6,,,,,
,,,,,644cdee223c4b93bf46c7301,001,30,male,nigerian,msc,2024-02-26_19h16.50.990,CRL1e,2023.2.3,Win32,59.88023952,65dbad3905fde4fe1981dc61,65dcd565f40fd5cad9b7b5a5,,,,,,,,,,,263.4496,0.9,264.3487,264.3488,264.6654,left,0,0.3058,,264.6655,265.6654,1,1,9,0,1,partial,2,images/Ex13.jpg,right,reversed,easy,6,,,,,
,,,,,644cdee223c4b93bf46c7301,001,30,male,nigerian,msc,2024-02-26_19h16.50.990,CRL1e,2023.2.3,Win32,59.88023952,65dbad3905fde4fe1981dc61,65dcd565f40fd5cad9b7b5a5,,,,,,,,,,,265.6662,1.5,267.1647,267.1648,267.5156,left,0,0.3412,,267.5157,268.5153,1,2,10,6,1,partial,2,images/Ex16.jpg,right,nonreversed,easy,6,,,,,
,,,,,644cdee223c4b93bf46c7301,001,30,male,nigerian,msc,2024-02-26_19h16.50.990,CRL1e,2023.2.3,Win32,59.88023952,65dbad3905fde4fe1981dc61,65dcd565f40fd5cad9b7b5a5,,,,,,,,,,,268.5165,0.6,269.1152,269.1154,269.449,left,1,0.3229,,269.4491,270.4486,1,3,11,3,1,partial,2,images/Ex14.jpg,left,nonreversed,easy,6,,,,,
,,,,,644cdee223c4b93bf46c7301,001,30,male,nigerian,msc,2024-02-26_19h16.50.990,CRL1e,2023.2.3,Win32,59.88023952,65dbad3905fde4fe1981dc61,65dcd565f40fd5cad9b7b5a5,,,,,,,,,,,270.4495,0.7,271.1486,271.1486,271.6318,right,1,0.4789,,271.6319,272.6317,1,4,12,1,1,partial,2,images/Ex13.jpg,right,reversed,easy,6,,,,,
,,,,,644cdee223c4b93bf46c7301,001,30,male,nigerian,msc,2024-02-26_19h16.50.990,CRL1e,2023.2.3,Win32,59.88023952,65dbad3905fde4fe1981dc61,65dcd565f40fd5cad9b7b5a5,,,,,,,,,,,272.6325,0.9,273.5319,273.5321,273.8487,left,1,0.3066,,273.8488,274.8482,1,5,13,4,1,partial,2,images/Ex15.jpg,left,reversed,easy,6,,,,,
,,,,,644cdee223c4b93bf46c7301,001,30,male,nigerian,msc,2024-02-26_19h16.50.990,CRL1e,2023.2.3,Win32,59.88023952,65dbad3905fde4fe1981dc61,65dcd565f40fd5cad9b7b5a5,,,,,,,,,,,274.8489,1.5,276.3475,276.3476,276.682,right,1,0.325,,276.6821,277.6815,1,6,14,7,1,partial,2,images/Ex16.jpg,right,nonreversed,easy,6,,,,,
,,,,,644cdee223c4b93bf46c7301,001,30,male,nigerian,msc,2024-02-26_19h16.50.990,CRL1e,2023.2.3,Win32,59.88023952,65dbad3905fde4fe1981dc61,65dcd565f40fd5cad9b7b5a5,,,,,,,,,,,277.6824,1.4,279.0812,279.0813,279.4151,left,1,0.3229,,279.4152,280.4146,1,7,15,5,1,partial,2,images/Ex15.jpg,left,reversed,easy,6,,,,,
,,,,,644cdee223c4b93bf46c7301,001,30,male,nigerian,msc,2024-02-26_19h16.50.990,CRL1e,2023.2.3,Win32,59.88023952,65dbad3905fde4fe1981dc61,65dcd565f40fd5cad9b7b5a5,,,,,,,,,,,280.4164,0.6,281.0149,281.0149,281.4482,right,1,0.4262,,281.4482,282.4479,2,0,16,7,1,partial,2,images/Ex16.jpg,right,nonreversed,easy,6,,,,,
,,,,,644cdee223c4b93bf46c7301,001,30,male,nigerian,msc,2024-02-26_19h16.50.990,CRL1e,2023.2.3,Win32,59.88023952,65dbad3905fde4fe1981dc61,65dcd565f40fd5cad9b7b5a5,,,,,,,,,,,282.4486,1,283.4482,283.4483,283.748,left,1,0.2951,,283.7482,284.7481,2,1,17,5,1,partial,2,images/Ex15.jpg,left,reversed,easy,6,,,,,
,,,,,644cdee223c4b93bf46c7301,001,30,male,nigerian,msc,2024-02-26_19h16.50.990,CRL1e,2023.2.3,Win32,59.88023952,65dbad3905fde4fe1981dc61,65dcd565f40fd5cad9b7b5a5,,,,,,,,,,,284.7492,0.9,285.6478,285.6479,285.948,right,0,0.293,,285.948,286.9475,2,2,18,4,1,partial,2,images/Ex15.jpg,left,reversed,easy,6,,,,,
,,,,,644cdee223c4b93bf46c7301,001,30,male,nigerian,msc,2024-02-26_19h16.50.990,CRL1e,2023.2.3,Win32,59.88023952,65dbad3905fde4fe1981dc61,65dcd565f40fd5cad9b7b5a5,,,,,,,,,,,286.9482,1.5,288.4474,288.4475,288.8317,left,0,0.3786,,288.8319,289.8309,2,3,19,0,1,partial,2,images/Ex13.jpg,right,reversed,easy,6,,,,,
,,,,,644cdee223c4b93bf46c7301,001,30,male,nigerian,msc,2024-02-26_19h16.50.990,CRL1e,2023.2.3,Win32,59.88023952,65dbad3905fde4fe1981dc61,65dcd565f40fd5cad9b7b5a5,,,,,,,,,,,289.8317,1,290.8309,290.831,292.2313,left,0,1.3904,,292.2315,293.2306,2,4,20,1,1,partial,2,images/Ex13.jpg,right,reversed,easy,6,,,,,
,,,,,644cdee223c4b93bf46c7301,001,30,male,nigerian,msc,2024-02-26_19h16.50.990,CRL1e,2023.2.3,Win32,59.88023952,65dbad3905fde4fe1981dc61,65dcd565f40fd5cad9b7b5a5,,,,,,,,,,,293.2313,0.9,294.1308,294.1308,294.4976,right,0,0.3571,,294.4977,295.4971,2,5,21,3,1,partial,2,images/Ex14.jpg,left,nonreversed,easy,6,,,,,
,,,,,644cdee223c4b93bf46c7301,001,30,male,nigerian,msc,2024-02-26_19h16.50.990,CRL1e,2023.2.3,Win32,59.88023952,65dbad3905fde4fe1981dc61,65dcd565f40fd5cad9b7b5a5,,,,,,,,,,,295.4979,0.6,296.0972,296.0973,296.4642,left,0,0.3572,,296.4643,297.4642,2,6,22,6,1,partial,2,images/Ex16.jpg,right,nonreversed,easy,6,,,,,
,,,,,644cdee223c4b93bf46c7301,001,30,male,nigerian,msc,2024-02-26_19h16.50.990,CRL1e,2023.2.3,Win32,59.88023952,65dbad3905fde4fe1981dc61,65dcd565f40fd5cad9b7b5a5,,,,,,,,,,,297.4654,0.8,298.264,298.2642,298.6651,right,0,0.3968,,298.6653,299.6639,2,7,23,2,1,partial,2,images/Ex14.jpg,left,nonreversed,easy,6,,,,,
,,,,,644cdee223c4b93bf46c7301,001,30,male,nigerian,msc,2024-02-26_19h16.50.990,CRL1e,2023.2.3,Win32,59.88023952,65dbad3905fde4fe1981dc61,65dcd565f40fd5cad9b7b5a5,,,,,,,,,,,299.6653,1.4,301.0642,301.0643,301.5641,right,1,0.4962,,301.5643,302.5637,3,0,24,0,1,partial,2,images/Ex13.jpg,right,reversed,easy,6,,,,,
,,,,,644cdee223c4b93bf46c7301,001,30,male,nigerian,msc,2024-02-26_19h16.50.990,CRL1e,2023.2.3,Win32,59.88023952,65dbad3905fde4fe1981dc61,65dcd565f40fd5cad9b7b5a5,,,,,,,,,,,302.5648,1.5,304.0636,304.0636,304.3807,left,0,0.3071,,304.3809,305.3804,3,1,25,1,1,partial,2,images/Ex13.jpg,right,reversed,easy,6,,,,,
,,,,,644cdee223c4b93bf46c7301,001,30,male,nigerian,msc,2024-02-26_19h16.50.990,CRL1e,2023.2.3,Win32,59.88023952,65dbad3905fde4fe1981dc61,65dcd565f40fd5cad9b7b5a5,,,,,,,,,,,305.3813,0.8,306.1804,306.1804,306.6306,right,0,0.442,,306.6306,307.6302,3,2,26,2,1,partial,2,images/Ex14.jpg,left,nonreversed,easy,6,,,,,
,,,,,644cdee223c4b93bf46c7301,001,30,male,nigerian,msc,2024-02-26_19h16.50.990,CRL1e,2023.2.3,Win32,59.88023952,65dbad3905fde4fe1981dc61,65dcd565f40fd5cad9b7b5a5,,,,,,,,,,,307.6311,0.7,308.3301,308.3301,308.7802,left,1,0.4402,,308.7803,309.78,3,3,27,5,1,partial,2,images/Ex15.jpg,left,reversed,easy,6,,,,,
,,,,,644cdee223c4b93bf46c7301,001,30,male,nigerian,msc,2024-02-26_19h16.50.990,CRL1e,2023.2.3,Win32,59.88023952,65dbad3905fde4fe1981dc61,65dcd565f40fd5cad9b7b5a5,,,,,,,,,,,309.7808,0.6,310.3801,310.3802,311.513,right,1,1.1225,,311.5131,312.5132,3,4,28,6,1,partial,2,images/Ex16.jpg,right,nonreversed,easy,6,,,,,
,,,,,644cdee223c4b93bf46c7301,001,30,male,nigerian,msc,2024-02-26_19h16.50.990,CRL1e,2023.2.3,Win32,59.88023952,65dbad3905fde4fe1981dc61,65dcd565f40fd5cad9b7b5a5,,,,,,,,,,,312.5144,0.6,313.1132,313.1132,313.7632,right,1,0.6465,,313.7634,314.7635,3,5,29,7,1,partial,2,images/Ex16.jpg,right,nonreversed,easy,6,,,,,
,,,,,644cdee223c4b93bf46c7301,001,30,male,nigerian,msc,2024-02-26_19h16.50.990,CRL1e,2023.2.3,Win32,59.88023952,65dbad3905fde4fe1981dc61,65dcd565f40fd5cad9b7b5a5,,,,,,,,,,,314.7645,0.7,315.4632,315.4633,315.8464,left,1,0.3728,,315.8465,316.8463,3,6,30,4,1,partial,2,images/Ex15.jpg,left,reversed,easy,6,,,,,
,,,,,644cdee223c4b93bf46c7301,001,30,male,nigerian,msc,2024-02-26_19h16.50.990,CRL1e,2023.2.3,Win32,59.88023952,65dbad3905fde4fe1981dc61,65dcd565f40fd5cad9b7b5a5,,,,,,,,,,,316.8473,1.4,318.2465,318.2466,318.6803,left,1,0.4222,,318.6804,319.6797,3,7,31,3,1,partial,2,images/Ex14.jpg,left,nonreversed,easy,6,,,,,
,,,,,644cdee223c4b93bf46c7301,001,30,male,nigerian,msc,2024-02-26_19h16.50.990,CRL1e,2023.2.3,Win32,59.88023952,65dbad3905fde4fe1981dc61,65dcd565f40fd5cad9b7b5a5,,,,,,,,,,,319.6807,0.6,320.2797,320.2798,320.8297,right,0,0.5398,,320.8297,321.8297,4,0,32,5,1,partial,2,images/Ex15.jpg,left,reversed,easy,6,,,,,
,,,,,644cdee223c4b93bf46c7301,001,30,male,nigerian,msc,2024-02-26_19h16.50.990,CRL1e,2023.2.3,Win32,59.88023952,65dbad3905fde4fe1981dc61,65dcd565f40fd5cad9b7b5a5,,,,,,,,,,,321.8308,0.9,322.7294,322.7295,323.0626,left,0,0.3275,,323.0628,324.063,4,1,33,7,1,partial,2,images/Ex16.jpg,right,nonreversed,easy,6,,,,,
,,,,,644cdee223c4b93bf46c7301,001,30,male,nigerian,msc,2024-02-26_19h16.50.990,CRL1e,2023.2.3,Win32,59.88023952,65dbad3905fde4fe1981dc61,65dcd565f40fd5cad9b7b5a5,,,,,,,,,,,324.0641,0.6,324.6628,324.663,325.0959,right,1,0.428,,325.0961,326.0958,4,2,34,1,1,partial,2,images/Ex13.jpg,right,reversed,easy,6,,,,,
,,,,,644cdee223c4b93bf46c7301,001,30,male,nigerian,msc,2024-02-26_19h16.50.990,CRL1e,2023.2.3,Win32,59.88023952,65dbad3905fde4fe1981dc61,65dcd565f40fd5cad9b7b5a5,,,,,,,,,,,326.0967,0.7,326.7957,326.7957,328.0798,right,0,1.2749,,328.0799,329.079,4,3,35,2,1,partial,2,images/Ex14.jpg,left,nonreversed,easy,6,,,,,
,,,,,644cdee223c4b93bf46c7301,001,30,male,nigerian,msc,2024-02-26_19h16.50.990,CRL1e,2023.2.3,Win32,59.88023952,65dbad3905fde4fe1981dc61,65dcd565f40fd5cad9b7b5a5,,,,,,,,,,,329.0799,0.9,329.9791,329.9791,330.3795,left,0,0.3943,,330.3796,331.3793,4,4,36,6,1,partial,2,images/Ex16.jpg,right,nonreversed,easy,6,,,,,
,,,,,644cdee223c4b93bf46c7301,001,30,male,nigerian,msc,2024-02-26_19h16.50.990,CRL1e,2023.2.3,Win32,59.88023952,65dbad3905fde4fe1981dc61,65dcd565f40fd5cad9b7b5a5,,,,,,,,,,,331.3803,0.8,332.1791,332.1792,332.5456,right,1,0.3621,,332.5457,333.5451,4,5,37,0,1,partial,2,images/Ex13.jpg,right,reversed,easy,6,,,,,
,,,,,644cdee223c4b93bf46c7301,001,30,male,nigerian,msc,2024-02-26_19h16.50.990,CRL1e,2023.2.3,Win32,59.88023952,65dbad3905fde4fe1981dc61,65dcd565f40fd5cad9b7b5a5,,,,,,,,,,,333.5456,1,334.5454,334.5455,335.3626,right,0,0.8066,,335.3627,336.3614,4,6,38,3,1,partial,2,images/Ex14.jpg,left,nonreversed,easy,6,,,,,
,,,,,644cdee223c4b93bf46c7301,001,30,male,nigerian,msc,2024-02-26_19h16.50.990,CRL1e,2023.2.3,Win32,59.88023952,65dbad3905fde4fe1981dc61,65dcd565f40fd5cad9b7b5a5,,,,,,,,,,,336.3618,1.3,337.6625,337.6626,338.2791,right,0,0.606,,338.2793,339.2784,4,7,39,4,1,partial,2,images/Ex15.jpg,left,reversed,easy,6,,,,,
,,,,,644cdee223c4b93bf46c7301,001,30,male,nigerian,msc,2024-02-26_19h16.50.990,CRL1e,2023.2.3,Win32,59.88023952,65dbad3905fde4fe1981dc61,65dcd565f40fd5cad9b7b5a5,,,,,,,,,,,339.2793,1.1,340.3786,340.3787,340.5464,left,1,0.1656,,340.5465,341.5449,5,0,40,5,1,partial,2,images/Ex15.jpg,left,reversed,easy,6,,,,,
,,,,,644cdee223c4b93bf46c7301,001,30,male,nigerian,msc,2024-02-26_19h16.50.990,CRL1e,2023.2.3,Win32,59.88023952,65dbad3905fde4fe1981dc61,65dcd565f40fd5cad9b7b5a5,,,,,,,,,,,341.5454,1.4,342.9449,342.9449,343.4625,left,1,0.507,,343.4625,344.4619,5,1,41,3,1,partial,2,images/Ex14.jpg,left,nonreversed,easy,6,,,,,
,,,,,644cdee223c4b93bf46c7301,001,30,male,nigerian,msc,2024-02-26_19h16.50.990,CRL1e,2023.2.3,Win32,59.88023952,65dbad3905fde4fe1981dc61,65dcd565f40fd5cad9b7b5a5,,,,,,,,,,,344.4629,0.9,345.3617,345.3618,345.8286,right,1,0.4608,,345.8287,346.8284,5,2,42,7,1,partial,2,images/Ex16.jpg,right,nonreversed,easy,6,,,,,
,,,,,644cdee223c4b93bf46c7301,001,30,male,nigerian,msc,2024-02-26_19h16.50.990,CRL1e,2023.2.3,Win32,59.88023952,65dbad3905fde4fe1981dc61,65dcd565f40fd5cad9b7b5a5,,,,,,,,,,,346.8294,0.7,347.5282,347.5283,347.9788,right,1,0.4397,,347.9788,348.9783,5,3,43,1,1,partial,2,images/Ex13.jpg,right,reversed,easy,6,,,,,
,,,,,644cdee223c4b93bf46c7301,001,30,male,nigerian,msc,2024-02-26_19h16.50.990,CRL1e,2023.2.3,Win32,59.88023952,65dbad3905fde4fe1981dc61,65dcd565f40fd5cad9b7b5a5,,,,,,,,,,,348.979,0.8,349.7781,349.7781,350.1785,left,0,0.3905,,350.1787,351.1781,5,4,44,6,1,partial,2,images/Ex16.jpg,right,nonreversed,easy,6,,,,,
,,,,,644cdee223c4b93bf46c7301,001,30,male,nigerian,msc,2024-02-26_19h16.50.990,CRL1e,2023.2.3,Win32,59.88023952,65dbad3905fde4fe1981dc61,65dcd565f40fd5cad9b7b5a5,,,,,,,,,,,351.1789,1.1,352.2782,352.2784,352.6119,right,0,0.324,,352.612,353.6116,5,5,45,2,1,partial,2,images/Ex14.jpg,left,nonreversed,easy,6,,,,,
,,,,,644cdee223c4b93bf46c7301,001,30,male,nigerian,msc,2024-02-26_19h16.50.990,CRL1e,2023.2.3,Win32,59.88023952,65dbad3905fde4fe1981dc61,65dcd565f40fd5cad9b7b5a5,,,,,,,,,,,353.6125,1,354.6117,354.6118,354.6367,right,1,0.0228,,354.6368,355.6274,5,6,46,0,1,partial,2,images/Ex13.jpg,right,reversed,easy,6,,,,,
,,,,,644cdee223c4b93bf46c7301,001,30,male,nigerian,msc,2024-02-26_19h16.50.990,CRL1e,2023.2.3,Win32,59.88023952,65dbad3905fde4fe1981dc61,65dcd565f40fd5cad9b7b5a5,,,,,,,,,,,355.6278,0.9,356.5279,356.5279,356.8447,left,1,0.3114,,356.8448,357.8445,5,7,47,4,1,partial,2,images/Ex15.jpg,left,reversed,easy,6,,,,,
,,,,,644cdee223c4b93bf46c7301,001,30,male,nigerian,msc,2024-02-26_19h16.50.990,CRL1e,2023.2.3,Win32,59.88023952,65dbad3905fde4fe1981dc61,65dcd565f40fd5cad9b7b5a5,,,,,,357.8468,368.0775,space,10.2159,,368.1094,1.5,369.6099,369.61,374.3607,left,0,4.7407,,374.3608,375.3603,0,0,0,4,1,total,1,images/Ex11.jpg,right,training,easy,6,,,,,
,,,,,644cdee223c4b93bf46c7301,001,30,male,nigerian,msc,2024-02-26_19h16.50.990,CRL1e,2023.2.3,Win32,59.88023952,65dbad3905fde4fe1981dc61,65dcd565f40fd5cad9b7b5a5,,,,,,,,,,,375.3851,0.8,376.177,376.1771,376.6608,right,0,0.4741,,376.6609,377.6601,0,1,1,3,1,total,1,images/Ex10.jpg,left,training,easy,6,,,,,
,,,,,644cdee223c4b93bf46c7301,001,30,male,nigerian,msc,2024-02-26_19h16.50.990,CRL1e,2023.2.3,Win32,59.88023952,65dbad3905fde4fe1981dc61,65dcd565f40fd5cad9b7b5a5,,,,,,,,,,,377.6609,0.5,378.1603,378.1603,378.8937,left,0,0.7302,,378.8937,379.8935,0,2,2,6,1,total,1,images/Ex12.jpg,right,training,easy,6,,,,,
,,,,,644cdee223c4b93bf46c7301,001,30,male,nigerian,msc,2024-02-26_19h16.50.990,CRL1e,2023.2.3,Win32,59.88023952,65dbad3905fde4fe1981dc61,65dcd565f40fd5cad9b7b5a5,,,,,,,,,,,379.8954,0.9,380.7936,380.7937,381.194,right,0,0.3892,,381.1943,382.1932,0,3,3,2,1,total,1,images/Ex10.jpg,left,training,easy,6,,,,,
,,,,,644cdee223c4b93bf46c7301,001,30,male,nigerian,msc,2024-02-26_19h16.50.990,CRL1e,2023.2.3,Win32,59.88023952,65dbad3905fde4fe1981dc61,65dcd565f40fd5cad9b7b5a5,,,,,,,,,,,382.1941,1.1,383.2931,383.2931,383.7772,left,0,0.4763,,383.7774,384.7765,0,4,4,7,1,total,1,images/Ex12.jpg,right,training,easy,6,,,,,
,,,,,644cdee223c4b93bf46c7301,001,30,male,nigerian,msc,2024-02-26_19h16.50.990,CRL1e,2023.2.3,Win32,59.88023952,65dbad3905fde4fe1981dc61,65dcd565f40fd5cad9b7b5a5,,,,,,,,,,,384.7771,1.4,386.1767,386.1768,386.7103,right,0,0.5224,,386.7104,387.7101,0,5,5,0,1,total,1,images/Ex9.jpg,left,training,easy,6,,,,,
,,,,,644cdee223c4b93bf46c7301,001,30,male,nigerian,msc,2024-02-26_19h16.50.990,CRL1e,2023.2.3,Win32,59.88023952,65dbad3905fde4fe1981dc61,65dcd565f40fd5cad9b7b5a5,,,,,,,,,,,387.7111,1.1,388.8097,388.8098,389.1426,left,0,0.3198,,389.1426,390.1432,0,6,6,5,1,total,1,images/Ex11.jpg,right,training,easy,6,,,,,
,,,,,644cdee223c4b93bf46c7301,001,30,male,nigerian,msc,2024-02-26_19h16.50.990,CRL1e,2023.2.3,Win32,59.88023952,65dbad3905fde4fe1981dc61,65dcd565f40fd5cad9b7b5a5,,,,,,,,,,,390.1442,0.5,390.6433,390.6434,391.2766,left,1,0.623,,391.2767,392.2761,0,7,7,1,1,total,1,images/Ex9.jpg,left,training,easy,6,,,,,
,,,,,644cdee223c4b93bf46c7301,001,30,male,nigerian,msc,2024-02-26_19h16.50.990,CRL1e,2023.2.3,Win32,59.88023952,65dbad3905fde4fe1981dc61,65dcd565f40fd5cad9b7b5a5,,,,,,,,,,,392.2768,0.9,393.1761,393.1761,393.6264,left,0,0.4433,,393.6264,394.626,1,0,8,6,1,total,1,images/Ex12.jpg,right,training,easy,6,,,,,
,,,,,644cdee223c4b93bf46c7301,001,30,male,nigerian,msc,2024-02-26_19h16.50.990,CRL1e,2023.2.3,Win32,59.88023952,65dbad3905fde4fe1981dc61,65dcd565f40fd5cad9b7b5a5,,,,,,,,,,,394.627,1.4,396.026,396.026,396.476,left,0,0.4452,,396.4762,397.4759,1,1,9,4,1,total,1,images/Ex11.jpg,right,training,easy,6,,,,,
,,,,,644cdee223c4b93bf46c7301,001,30,male,nigerian,msc,2024-02-26_19h16.50.990,CRL1e,2023.2.3,Win32,59.88023952,65dbad3905fde4fe1981dc61,65dcd565f40fd5cad9b7b5a5,,,,,,,,,,,397.4767,1.5,398.976,398.976,399.3263,right,0,0.3394,,399.3264,400.3253,1,2,10,0,1,total,1,images/Ex9.jpg,left,training,easy,6,,,,,
,,,,,644cdee223c4b93bf46c7301,001,30,male,nigerian,msc,2024-02-26_19h16.50.990,CRL1e,2023.2.3,Win32,59.88023952,65dbad3905fde4fe1981dc61,65dcd565f40fd5cad9b7b5a5,,,,,,,,,,,400.3259,0.8,401.1259,401.1259,402.426,left,1,1.291,,402.4261,403.4264,1,3,11,2,1,total,1,images/Ex10.jpg,left,training,easy,6,,,,,
,,,,,644cdee223c4b93bf46c7301,001,30,male,nigerian,msc,2024-02-26_19h16.50.990,CRL1e,2023.2.3,Win32,59.88023952,65dbad3905fde4fe1981dc61,65dcd565f40fd5cad9b7b5a5,,,,,,,,,,,403.4275,1.1,404.5255,404.5255,406.2426,right,1,1.7063,,406.2426,407.2424,1,4,12,7,1,total,1,images/Ex12.jpg,right,training,easy,6,,,,,
,,,,,644cdee223c4b93bf46c7301,001,30,male,nigerian,msc,2024-02-26_19h16.50.990,CRL1e,2023.2.3,Win32,59.88023952,65dbad3905fde4fe1981dc61,65dcd565f40fd5cad9b7b5a5,,,,,,,,,,,407.2433,1.1,408.3423,408.3424,409.0754,right,0,0.7282,,409.0755,410.0746,1,5,13,3,1,total,1,images/Ex10.jpg,left,training,easy,6,,,,,
,,,,,644cdee223c4b93bf46c7301,001,30,male,nigerian,msc,2024-02-26_19h16.50.990,CRL1e,2023.2.3,Win32,59.88023952,65dbad3905fde4fe1981dc61,65dcd565f40fd5cad9b7b5a5,,,,,,,,,,,410.075,0.7,410.7746,410.7747,411.0246,left,1,0.2488,,411.0247,412.0245,1,6,14,1,1,total,1,images/Ex9.jpg,left,training,easy,6,,,,,
,,,,,644cdee223c4b93bf46c7301,001,30,male,nigerian,msc,2024-02-26_19h16.50.990,CRL1e,2023.2.3,Win32,59.88023952,65dbad3905fde4fe1981dc61,65dcd565f40fd5cad9b7b5a5,,,,,,,,,,,412.0248,1.1,413.1245,413.1245,413.2424,left,0,0.1088,,413.2425,414.2421,1,7,15,5,1,total,1,images/Ex11.jpg,right,training,easy,6,,,,,
,,,,,644cdee223c4b93bf46c7301,001,30,male,nigerian,msc,2024-02-26_19h16.50.990,CRL1e,2023.2.3,Win32,59.88023952,65dbad3905fde4fe1981dc61,65dcd565f40fd5cad9b7b5a5,,,,,,,,,,,414.2437,0.7,414.9421,414.9422,415.0424,right,0,0.0892,,415.0425,416.0418,2,0,16,1,1,total,1,images/Ex9.jpg,left,training,easy,6,,,,,
,,,,,644cdee223c4b93bf46c7301,001,30,male,nigerian,msc,2024-02-26_19h16.50.990,CRL1e,2023.2.3,Win32,59.88023952,65dbad3905fde4fe1981dc61,65dcd565f40fd5cad9b7b5a5,,,,,,,,,,,416.0426,1.4,417.4418,417.4419,418.4089,left,0,0.9564,,418.409,419.4083,2,1,17,4,1,total,1,images/Ex11.jpg,right,training,easy,6,,,,,
,,,,,644cdee223c4b93bf46c7301,001,30,male,nigerian,msc,2024-02-26_19h16.50.990,CRL1e,2023.2.3,Win32,59.88023952,65dbad3905fde4fe1981dc61,65dcd565f40fd5cad9b7b5a5,,,,,,,,,,,419.4091,1,420.4083,420.4083,420.925,right,0,0.5138,,420.9252,421.9248,2,2,18,2,1,total,1,images/Ex10.jpg,left,training,easy,6,,,,,
,,,,,644cdee223c4b93bf46c7301,001,30,male,nigerian,msc,2024-02-26_19h16.50.990,CRL1e,2023.2.3,Win32,59.88023952,65dbad3905fde4fe1981dc61,65dcd565f40fd5cad9b7b5a5,,,,,,,,,,,421.9256,0.8,422.725,422.7252,423.8258,right,1,1.0898,,423.8259,424.8248,2,3,19,5,1,total,1,images/Ex11.jpg,right,training,easy,6,,,,,
,,,,,644cdee223c4b93bf46c7301,001,30,male,nigerian,msc,2024-02-26_19h16.50.990,CRL1e,2023.2.3,Win32,59.88023952,65dbad3905fde4fe1981dc61,65dcd565f40fd5cad9b7b5a5,,,,,,,,,,,424.8263,0.6,425.4249,425.4249,426.3248,right,1,0.8959,,426.3248,427.3247,2,4,20,7,1,total,1,images/Ex12.jpg,right,training,easy,6,,,,,
,,,,,644cdee223c4b93bf46c7301,001,30,male,nigerian,msc,2024-02-26_19h16.50.990,CRL1e,2023.2.3,Win32,59.88023952,65dbad3905fde4fe1981dc61,65dcd565f40fd5cad9b7b5a5,,,,,,,,,,,427.3257,0.8,428.1247,428.1248,429.1253,right,0,0.9903,,429.1256,430.1246,2,5,21,0,1,total,1,images/Ex9.jpg,left,training,easy,6,,,,,
,,,,,644cdee223c4b93bf46c7301,001,30,male,nigerian,msc,2024-02-26_19h16.50.990,CRL1e,2023.2.3,Win32,59.88023952,65dbad3905fde4fe1981dc61,65dcd565f40fd5cad9b7b5a5,,,,,,,,,,,430.1256,1.4,431.5247,431.5248,432.3416,right,1,0.8059,,432.3418,433.3411,2,6,22,6,1,total,1,images/Ex12.jpg,right,training,easy,6,,,,,
,,,,,644cdee223c4b93bf46c7301,001,30,male,nigerian,msc,2024-02-26_19h16.50.990,CRL1e,2023.2.3,Win32,59.88023952,65dbad3905fde4fe1981dc61,65dcd565f40fd5cad9b7b5a5,,,,,,,,,,,433.3419,1.5,434.8413,434.8414,435.1749,right,0,0.3282,,435.1752,436.1742,2,7,23,3,1,total,1,images/Ex10.jpg,left,training,easy,6,,,,,
,,,,,644cdee223c4b93bf46c7301,001,30,male,nigerian,msc,2024-02-26_19h16.50.990,CRL1e,2023.2.3,Win32,59.88023952,65dbad3905fde4fe1981dc61,65dcd565f40fd5cad9b7b5a5,,,,,,,,,,,436.1755,1.4,437.5744,437.5746,438.1414,left,1,0.5602,,438.1414,439.1409,3,0,24,2,1,total,1,images/Ex10.jpg,left,training,easy,6,,,,,
,,,,,644cdee223c4b93bf46c7301,001,30,male,nigerian,msc,2024-02-26_19h16.50.990,CRL1e,2023.2.3,Win32,59.88023952,65dbad3905fde4fe1981dc61,65dcd565f40fd5cad9b7b5a5,,,,,,,,,,,439.1424,1.3,440.4415,440.4416,441.3409,left,1,0.8886,,441.341,442.3409,3,1,25,1,1,total,1,images/Ex9.jpg,left,training,easy,6,,,,,
,,,,,644cdee223c4b93bf46c7301,001,30,male,nigerian,msc,2024-02-26_19h16.50.990,CRL1e,2023.2.3,Win32,59.88023952,65dbad3905fde4fe1981dc61,65dcd565f40fd5cad9b7b5a5,,,,,,,,,,,442.3418,1.4,443.7406,443.7406,444.4408,left,0,0.6919,,444.4409,445.4405,3,2,26,4,1,total,1,images/Ex11.jpg,right,training,easy,6,,,,,
,,,,,644cdee223c4b93bf46c7301,001,30,male,nigerian,msc,2024-02-26_19h16.50.990,CRL1e,2023.2.3,Win32,59.88023952,65dbad3905fde4fe1981dc61,65dcd565f40fd5cad9b7b5a5,,,,,,,,,,,445.4412,0.9,446.3408,446.3409,447.4243,right,1,1.0758,,447.4245,448.4238,3,3,27,7,1,total,1,images/Ex12.jpg,right,training,easy,6,,,,,
,,,,,644cdee223c4b93bf46c7301,001,30,male,nigerian,msc,2024-02-26_19h16.50.990,CRL1e,2023.2.3,Win32,59.88023952,65dbad3905fde4fe1981dc61,65dcd565f40fd5cad9b7b5a5,,,,,,,,,,,448.4248,0.8,449.2237,449.2238,450.4091,right,0,1.183,,450.4092,451.4065,3,4,28,3,1,total,1,images/Ex10.jpg,left,training,easy,6,,,,,
,,,,,644cdee223c4b93bf46c7301,001,30,male,nigerian,msc,2024-02-26_19h16.50.990,CRL1e,2023.2.3,Win32,59.88023952,65dbad3905fde4fe1981dc61,65dcd565f40fd5cad9b7b5a5,,,,,,,,,,,451.4073,1.3,452.7065,452.7066,453.4739,right,1,0.7584,,453.4743,454.4733,3,5,29,5,1,total,1,images/Ex11.jpg,right,training,easy,6,,,,,
,,,,,644cdee223c4b93bf46c7301,001,30,male,nigerian,msc,2024-02-26_19h16.50.990,CRL1e,2023.2.3,Win32,59.88023952,65dbad3905fde4fe1981dc61,65dcd565f40fd5cad9b7b5a5,,,,,,,,,,,454.4744,0.7,455.1735,455.1736,455.9063,left,1,0.7305,,455.9063,456.9062,3,6,30,0,1,total,1,images/Ex9.jpg,left,training,easy,6,,,,,
,,,,,644cdee223c4b93bf46c7301,001,30,male,nigerian,msc,2024-02-26_19h16.50.990,CRL1e,2023.2.3,Win32,59.88023952,65dbad3905fde4fe1981dc61,65dcd565f40fd5cad9b7b5a5,,,,,,,,,,,456.9069,1.4,458.3063,458.3064,459.2235,left,0,0.9074,,459.2236,460.2232,3,7,31,6,1,total,1,images/Ex12.jpg,right,training,easy,6,,,,,
,,,,,644cdee223c4b93bf46c7301,001,30,male,nigerian,msc,2024-02-26_19h16.50.990,CRL1e,2023.2.3,Win32,59.88023952,65dbad3905fde4fe1981dc61,65dcd565f40fd5cad9b7b5a5,,,,,,,,,,,460.2249,0.7,460.9233,460.9233,461.8064,right,0,0.872,,461.8065,462.8062,4,0,32,1,1,total,1,images/Ex9.jpg,left,training,easy,6,,,,,
,,,,,644cdee223c4b93bf46c7301,001,30,male,nigerian,msc,2024-02-26_19h16.50.990,CRL1e,2023.2.3,Win32,59.88023952,65dbad3905fde4fe1981dc61,65dcd565f40fd5cad9b7b5a5,,,,,,,,,,,462.8074,0.7,463.506,463.5061,464.3064,right,0,0.7948,,464.3065,465.306,4,1,33,0,1,total,1,images/Ex9.jpg,left,training,easy,6,,,,,
,,,,,644cdee223c4b93bf46c7301,001,30,male,nigerian,msc,2024-02-26_19h16.50.990,CRL1e,2023.2.3,Win32,59.88023952,65dbad3905fde4fe1981dc61,65dcd565f40fd5cad9b7b5a5,,,,,,,,,,,465.3067,1,466.3059,466.306,466.6222,left,0,0.3033,,466.6222,467.623,4,2,34,6,1,total,1,images/Ex12.jpg,right,training,easy,6,,,,,
,,,,,644cdee223c4b93bf46c7301,001,30,male,nigerian,msc,2024-02-26_19h16.50.990,CRL1e,2023.2.3,Win32,59.88023952,65dbad3905fde4fe1981dc61,65dcd565f40fd5cad9b7b5a5,,,,,,,,,,,467.6237,1.1,468.723,468.723,469.0733,left,1,0.3383,,469.0733,470.0731,4,3,35,2,1,total,1,images/Ex10.jpg,left,training,easy,6,,,,,
,,,,,644cdee223c4b93bf46c7301,001,30,male,nigerian,msc,2024-02-26_19h16.50.990,CRL1e,2023.2.3,Win32,59.88023952,65dbad3905fde4fe1981dc61,65dcd565f40fd5cad9b7b5a5,,,,,,,,,,,470.0744,0.7,470.7727,470.7728,471.7231,right,1,0.9448,,471.7232,472.723,4,4,36,7,1,total,1,images/Ex12.jpg,right,training,easy,6,,,,,
,,,,,644cdee223c4b93bf46c7301,001,30,male,nigerian,msc,2024-02-26_19h16.50.990,CRL1e,2023.2.3,Win32,59.88023952,65dbad3905fde4fe1981dc61,65dcd565f40fd5cad9b7b5a5,,,,,,,,,,,472.7239,0.5,473.2225,473.2226,474.9227,right,0,1.6936,,474.9228,475.9226,4,5,37,3,1,total,1,images/Ex10.jpg,left,training,easy,6,,,,,
,,,,,644cdee223c4b93bf46c7301,001,30,male,nigerian,msc,2024-02-26_19h16.50.990,CRL1e,2023.2.3,Win32,59.88023952,65dbad3905fde4fe1981dc61,65dcd565f40fd5cad9b7b5a5,,,,,,,,,,,475.9238,0.9,476.8231,476.8232,476.8543,left,0,0.028,,476.8544,477.8556,4,6,38,5,1,total,1,images/Ex11.jpg,right,training,easy,6,,,,,
,,,,,644cdee223c4b93bf46c7301,001,30,male,nigerian,msc,2024-02-26_19h16.50.990,CRL1e,2023.2.3,Win32,59.88023952,65dbad3905fde4fe1981dc61,65dcd565f40fd5cad9b7b5a5,,,,,,,,,,,477.8567,1,478.8553,478.8554,479.5559,right,1,0.6898,,479.556,480.5553,4,7,39,4,1,total,1,images/Ex11.jpg,right,training,easy,6,,,,,
,,,,,644cdee223c4b93bf46c7301,001,30,male,nigerian,msc,2024-02-26_19h16.50.990,CRL1e,2023.2.3,Win32,59.88023952,65dbad3905fde4fe1981dc61,65dcd565f40fd5cad9b7b5a5,,,,,,,,,,,480.5562,1.4,481.9556,481.9556,482.6724,right,1,0.7061,,482.6725,483.6723,5,0,40,7,1,total,1,images/Ex12.jpg,right,training,easy,6,,,,,
,,,,,644cdee223c4b93bf46c7301,001,30,male,nigerian,msc,2024-02-26_19h16.50.990,CRL1e,2023.2.3,Win32,59.88023952,65dbad3905fde4fe1981dc61,65dcd565f40fd5cad9b7b5a5,,,,,,,,,,,483.6734,1.3,484.9722,484.9722,485.4552,left,0,0.4778,,485.4553,486.455,5,1,41,4,1,total,1,images/Ex11.jpg,right,training,easy,6,,,,,
,,,,,644cdee223c4b93bf46c7301,001,30,male,nigerian,msc,2024-02-26_19h16.50.990,CRL1e,2023.2.3,Win32,59.88023952,65dbad3905fde4fe1981dc61,65dcd565f40fd5cad9b7b5a5,,,,,,,,,,,486.4559,0.5,486.9553,486.9554,487.889,left,1,0.925,,487.8891,488.8884,5,2,42,1,1,total,1,images/Ex9.jpg,left,training,easy,6,,,,,
,,,,,644cdee223c4b93bf46c7301,001,30,male,nigerian,msc,2024-02-26_19h16.50.990,CRL1e,2023.2.3,Win32,59.88023952,65dbad3905fde4fe1981dc61,65dcd565f40fd5cad9b7b5a5,,,,,,,,,,,488.8893,1.4,490.2884,490.2885,490.9387,right,1,0.6426,,490.9389,491.9382,5,3,43,6,1,total,1,images/Ex12.jpg,right,training,easy,6,,,,,
,,,,,644cdee223c4b93bf46c7301,001,30,male,nigerian,msc,2024-02-26_19h16.50.990,CRL1e,2023.2.3,Win32,59.88023952,65dbad3905fde4fe1981dc61,65dcd565f40fd5cad9b7b5a5,,,,,,,,,,,491.9392,0.7,492.6383,492.6384,493.8555,right,0,1.2067,,493.8556,494.8547,5,4,44,2,1,total,1,images/Ex10.jpg,left,training,easy,6,,,,,
,,,,,644cdee223c4b93bf46c7301,001,30,male,nigerian,msc,2024-02-26_19h16.50.990,CRL1e,2023.2.3,Win32,59.88023952,65dbad3905fde4fe1981dc61,65dcd565f40fd5cad9b7b5a5,,,,,,,,,,,494.8556,0.5,495.355,495.3552,496.205,left,1,0.8393,,496.2051,497.2048,5,5,45,3,1,total,1,images/Ex10.jpg,left,training,easy,6,,,,,
,,,,,644cdee223c4b93bf46c7301,001,30,male,nigerian,msc,2024-02-26_19h16.50.990,CRL1e,2023.2.3,Win32,59.88023952,65dbad3905fde4fe1981dc61,65dcd565f40fd5cad9b7b5a5,,,,,,,,,,,497.2058,1.1,498.3048,498.305,498.8714,left,0,0.5553,,498.8716,499.8714,5,6,46,5,1,total,1,images/Ex11.jpg,right,training,easy,6,,,,,
,,,,,644cdee223c4b93bf46c7301,001,30,male,nigerian,msc,2024-02-26_19h16.50.990,CRL1e,2023.2.3,Win32,59.88023952,65dbad3905fde4fe1981dc61,65dcd565f40fd5cad9b7b5a5,,,,,,,,,,,499.8724,1.3,501.1714,501.1714,501.5057,right,0,0.3225,,501.5058,502.5045,5,7,47,0,1,total,1,images/Ex9.jpg,left,training,easy,6,,,,,
,,,,,644cdee223c4b93bf46c7301,001,30,male,nigerian,msc,2024-02-26_19h16.50.990,CRL1e,2023.2.3,Win32,59.88023952,65dbad3905fde4fe1981dc61,65dcd565f40fd5cad9b7b5a5,,,,,,,,,,,502.5124,1,503.5044,503.5045,504.5716,right,0,1.0577,,504.5718,505.5714,0,0,0,6,1,total,2,images/Ex12.jpg,left,reversed,easy,6,,,,,
,,,,,644cdee223c4b93bf46c7301,001,30,male,nigerian,msc,2024-02-26_19h16.50.990,CRL1e,2023.2.3,Win32,59.88023952,65dbad3905fde4fe1981dc61,65dcd565f40fd5cad9b7b5a5,,,,,,,,,,,505.5723,0.6,506.171,506.1711,507.4202,left,0,1.2465,,507.4202,508.421,0,1,1,3,1,total,2,images/Ex10.jpg,right,reversed,easy,6,,,,,
,,,,,644cdee223c4b93bf46c7301,001,30,male,nigerian,msc,2024-02-26_19h16.50.990,CRL1e,2023.2.3,Win32,59.88023952,65dbad3905fde4fe1981dc61,65dcd565f40fd5cad9b7b5a5,,,,,,,,,,,508.4218,1.1,509.5209,509.5209,511.3875,right,1,1.8526,,511.3876,512.3877,0,2,2,1,1,total,2,images/Ex9.jpg,right,reversed,easy,6,,,,,
,,,,,644cdee223c4b93bf46c7301,001,30,male,nigerian,msc,2024-02-26_19h16.50.990,CRL1e,2023.2.3,Win32,59.88023952,65dbad3905fde4fe1981dc61,65dcd565f40fd5cad9b7b5a5,,,,,,,,,,,512.3886,0.6,512.9874,512.9875,514.7873,right,1,1.7972,,514.7874,515.7872,0,3,3,0,1,total,2,images/Ex9.jpg,right,reversed,easy,6,,,,,
,,,,,644cdee223c4b93bf46c7301,001,30,male,nigerian,msc,2024-02-26_19h16.50.990,CRL1e,2023.2.3,Win32,59.88023952,65dbad3905fde4fe1981dc61,65dcd565f40fd5cad9b7b5a5,,,,,,,,,,,515.7881,0.6,516.3871,516.3872,517.1544,left,1,0.7649,,517.1547,518.1539,0,4,4,5,1,total,2,images/Ex11.jpg,left,reversed,easy,6,,,,,
,,,,,644cdee223c4b93bf46c7301,001,30,male,nigerian,msc,2024-02-26_19h16.50.990,CRL1e,2023.2.3,Win32,59.88023952,65dbad3905fde4fe1981dc61,65dcd565f40fd5cad9b7b5a5,,,,,,,,,,,518.155,1.4,519.5538,519.5538,520.0872,left,1,0.5239,,520.0874,521.0867,0,5,5,7,1,total,2,images/Ex12.jpg,left,reversed,easy,6,,,,,
,,,,,644cdee223c4b93bf46c7301,001,30,male,nigerian,msc,2024-02-26_19h16.50.990,CRL1e,2023.2.3,Win32,59.88023952,65dbad3905fde4fe1981dc61,65dcd565f40fd5cad9b7b5a5,,,,,,,,,,,521.0877,1.3,522.3863,522.3864,523.0376,right,1,0.6415,,523.0377,524.0369,0,6,6,2,1,total,2,images/Ex10.jpg,right,reversed,easy,6,,,,,
,,,,,644cdee223c4b93bf46c7301,001,30,male,nigerian,msc,2024-02-26_19h16.50.990,CRL1e,2023.2.3,Win32,59.88023952,65dbad3905fde4fe1981dc61,65dcd565f40fd5cad9b7b5a5,,,,,,,,,,,524.0376,1.3,525.3372,525.3372,528.5037,right,0,3.1551,,528.5038,529.5033,0,7,7,4,1,total,2,images/Ex11.jpg,left,reversed,easy,6,,,,,
,,,,,644cdee223c4b93bf46c7301,001,30,male,nigerian,msc,2024-02-26_19h16.50.990,CRL1e,2023.2.3,Win32,59.88023952,65dbad3905fde4fe1981dc61,65dcd565f40fd5cad9b7b5a5,,,,,,,,,,,529.5286,1.4,530.9197,530.9198,531.4199,right,0,0.4897,,531.42,532.4199,1,0,8,6,1,total,2,images/Ex12.jpg,left,reversed,easy,6,,,,,
,,,,,644cdee223c4b93bf46c7301,001,30,male,nigerian,msc,2024-02-26_19h16.50.990,CRL1e,2023.2.3,Win32,59.88023952,65dbad3905fde4fe1981dc61,65dcd565f40fd5cad9b7b5a5,,,,,,,,,,,532.4207,0.5,532.9201,532.9201,533.5694,left,0,0.6411,,533.5694,534.5697,1,1,9,1,1,total,2,images/Ex9.jpg,right,reversed,easy,6,,,,,
,,,,,644cdee223c4b93bf46c7301,001,30,male,nigerian,msc,2024-02-26_19h16.50.990,CRL1e,2023.2.3,Win32,59.88023952,65dbad3905fde4fe1981dc61,65dcd565f40fd5cad9b7b5a5,,,,,,,,,,,534.5706,0.9,535.4692,535.4692,535.8037,left,1,0.3244,,535.8038,536.8031,1,2,10,7,1,total,2,images/Ex12.jpg,left,reversed,easy,6,,,,,
,,,,,644cdee223c4b93bf46c7301,001,30,male,nigerian,msc,2024-02-26_19h16.50.990,CRL1e,2023.2.3,Win32,59.88023952,65dbad3905fde4fe1981dc61,65dcd565f40fd5cad9b7b5a5,,,,,,,,,,,536.8041,0.6,537.4031,537.4031,538.3699,right,1,0.9551,,538.3699,539.3697,1,3,11,2,1,total,2,images/Ex10.jpg,right,reversed,easy,6,,,,,
,,,,,644cdee223c4b93bf46c7301,001,30,male,nigerian,msc,2024-02-26_19h16.50.990,CRL1e,2023.2.3,Win32,59.88023952,65dbad3905fde4fe1981dc61,65dcd565f40fd5cad9b7b5a5,,,,,,,,,,,539.3706,1.4,540.7694,540.7695,541.3532,right,0,0.5729,,541.3534,542.3534,1,4,12,5,1,total,2,images/Ex11.jpg,left,reversed,easy,6,,,,,
,,,,,644cdee223c4b93bf46c7301,001,30,male,nigerian,msc,2024-02-26_19h16.50.990,CRL1e,2023.2.3,Win32,59.88023952,65dbad3905fde4fe1981dc61,65dcd565f40fd5cad9b7b5a5,,,,,,,,,,,542.3546,1.1,543.453,543.4531,544.1864,left,0,0.7223,,544.1866,545.1858,1,5,13,0,1,total,2,images/Ex9.jpg,right,reversed,easy,6,,,,,
,,,,,644cdee223c4b93bf46c7301,001,30,male,nigerian,msc,2024-02-26_19h16.50.990,CRL1e,2023.2.3,Win32,59.88023952,65dbad3905fde4fe1981dc61,65dcd565f40fd5cad9b7b5a5,,,,,,,,,,,545.1867,1.4,546.5856,546.5857,547.1864,left,1,0.593,,547.1866,548.1858,1,6,14,4,1,total,2,images/Ex11.jpg,left,reversed,easy,6,,,,,
,,,,,644cdee223c4b93bf46c7301,001,30,male,nigerian,msc,2024-02-26_19h16.50.990,CRL1e,2023.2.3,Win32,59.88023952,65dbad3905fde4fe1981dc61,65dcd565f40fd5cad9b7b5a5,,,,,,,,,,,548.1868,0.7,548.8858,548.8859,553.9359,right,1,5.043,,553.936,554.9352,1,7,15,3,1,total,2,images/Ex10.jpg,right,reversed,easy,6,,,,,
,,,,,644cdee223c4b93bf46c7301,001,30,male,nigerian,msc,2024-02-26_19h16.50.990,CRL1e,2023.2.3,Win32,59.88023952,65dbad3905fde4fe1981dc61,65dcd565f40fd5cad9b7b5a5,,,,,,,,,,,554.9601,1.5,556.4521,556.4522,557.2028,right,1,0.7395,,557.203,558.202,2,0,16,1,1,total,2,images/Ex9.jpg,right,reversed,easy,6,,,,,
,,,,,644cdee223c4b93bf46c7301,001,30,male,nigerian,msc,2024-02-26_19h16.50.990,CRL1e,2023.2.3,Win32,59.88023952,65dbad3905fde4fe1981dc61,65dcd565f40fd5cad9b7b5a5,,,,,,,,,,,558.203,1.1,559.302,559.3021,560.0192,right,1,0.7069,,560.0193,561.0186,2,1,17,0,1,total,2,images/Ex9.jpg,right,reversed,easy,6,,,,,
,,,,,644cdee223c4b93bf46c7301,001,30,male,nigerian,msc,2024-02-26_19h16.50.990,CRL1e,2023.2.3,Win32,59.88023952,65dbad3905fde4fe1981dc61,65dcd565f40fd5cad9b7b5a5,,,,,,,,,,,561.0194,0.9,561.9185,561.9185,564.1686,right,0,2.2385,,564.1687,565.1683,2,2,18,4,1,total,2,images/Ex11.jpg,left,reversed,easy,6,,,,,
,,,,,644cdee223c4b93bf46c7301,001,30,male,nigerian,msc,2024-02-26_19h16.50.990,CRL1e,2023.2.3,Win32,59.88023952,65dbad3905fde4fe1981dc61,65dcd565f40fd5cad9b7b5a5,,,,,,,,,,,565.1949,0.5,565.6853,565.6854,566.8341,right,0,1.1465,,566.8341,567.8349,2,3,19,7,1,total,2,images/Ex12.jpg,left,reversed,easy,6,,,,,
,,,,,644cdee223c4b93bf46c7301,001,30,male,nigerian,msc,2024-02-26_19h16.50.990,CRL1e,2023.2.3,Win32,59.88023952,65dbad3905fde4fe1981dc61,65dcd565f40fd5cad9b7b5a5,,,,,,,,,,,567.8359,1.4,569.2348,569.2348,569.9187,left,1,0.6786,,569.9187,570.918,2,4,20,6,1,total,2,images/Ex12.jpg,left,reversed,easy,6,,,,,
,,,,,644cdee223c4b93bf46c7301,001,30,male,nigerian,msc,2024-02-26_19h16.50.990,CRL1e,2023.2.3,Win32,59.88023952,65dbad3905fde4fe1981dc61,65dcd565f40fd5cad9b7b5a5,,,,,,,,,,,570.9188,1.2,572.1181,572.1181,572.6853,right,0,0.5563,,572.6854,573.6846,2,5,21,5,1,total,2,images/Ex11.jpg,left,reversed,easy,6,,,,,
,,,,,644cdee223c4b93bf46c7301,001,30,male,nigerian,msc,2024-02-26_19h16.50.990,CRL1e,2023.2.3,Win32,59.88023952,65dbad3905fde4fe1981dc61,65dcd565f40fd5cad9b7b5a5,,,,,,,,,,,573.6857,1.4,575.0844,575.0845,575.8681,left,0,0.7737,,575.8681,576.8677,2,6,22,2,1,total,2,images/Ex10.jpg,right,reversed,easy,6,,,,,
,,,,,644cdee223c4b93bf46c7301,001,30,male,nigerian,msc,2024-02-26_19h16.50.990,CRL1e,2023.2.3,Win32,59.88023952,65dbad3905fde4fe1981dc61,65dcd565f40fd5cad9b7b5a5,,,,,,,,,,,576.8687,0.6,577.4672,577.4673,578.3512,right,1,0.8797,,578.3515,579.3515,2,7,23,3,1,total,2,images/Ex10.jpg,right,reversed,easy,6,,,,,
,,,,,644cdee223c4b93bf46c7301,001,30,male,nigerian,msc,2024-02-26_19h16.50.990,CRL1e,2023.2.3,Win32,59.88023952,65dbad3905fde4fe1981dc61,65dcd565f40fd5cad9b7b5a5,,,,,,,,,,,579.3529,0.7,580.0512,580.0512,580.7355,right,0,0.6816,,580.7356,581.7342,3,0,24,6,1,total,2,images/Ex12.jpg,left,reversed,easy,6,,,,,
,,,,,644cdee223c4b93bf46c7301,001,30,male,nigerian,msc,2024-02-26_19h16.50.990,CRL1e,2023.2.3,Win32,59.88023952,65dbad3905fde4fe1981dc61,65dcd565f40fd5cad9b7b5a5,,,,,,,,,,,581.7351,0.6,582.3343,582.3344,583.0014,right,1,0.6572,,583.0015,584.001,3,1,25,2,1,total,2,images/Ex10.jpg,right,reversed,easy,6,,,,,
,,,,,644cdee223c4b93bf46c7301,001,30,male,nigerian,msc,2024-02-26_19h16.50.990,CRL1e,2023.2.3,Win32,59.88023952,65dbad3905fde4fe1981dc61,65dcd565f40fd5cad9b7b5a5,,,,,,,,,,,584.002,1.1,585.101,585.1012,585.6849,left,1,0.5794,,585.6852,586.6843,3,2,26,5,1,total,2,images/Ex11.jpg,left,reversed,easy,6,,,,,
,,,,,644cdee223c4b93bf46c7301,001,30,male,nigerian,msc,2024-02-26_19h16.50.990,CRL1e,2023.2.3,Win32,59.88023952,65dbad3905fde4fe1981dc61,65dcd565f40fd5cad9b7b5a5,,,,,,,,,,,586.6854,0.8,587.4846,587.4847,587.8174,left,0,0.3291,,587.8176,588.8172,3,3,27,1,1,total,2,images/Ex9.jpg,right,reversed,easy,6,,,,,
,,,,,644cdee223c4b93bf46c7301,001,30,male,nigerian,msc,2024-02-26_19h16.50.990,CRL1e,2023.2.3,Win32,59.88023952,65dbad3905fde4fe1981dc61,65dcd565f40fd5cad9b7b5a5,,,,,,,,,,,588.818,0.6,589.4172,589.4172,589.9177,left,0,0.4902,,589.9178,590.9174,3,4,28,3,1,total,2,images/Ex10.jpg,right,reversed,easy,6,,,,,
,,,,,644cdee223c4b93bf46c7301,001,30,male,nigerian,msc,2024-02-26_19h16.50.990,CRL1e,2023.2.3,Win32,59.88023952,65dbad3905fde4fe1981dc61,65dcd565f40fd5cad9b7b5a5,,,,,,,,,,,590.9183,0.8,591.7173,591.7174,592.6007,right,1,0.8806,,592.6008,593.5997,3,5,29,0,1,total,2,images/Ex9.jpg,right,reversed,easy,6,,,,,
,,,,,644cdee223c4b93bf46c7301,001,30,male,nigerian,msc,2024-02-26_19h16.50.990,CRL1e,2023.2.3,Win32,59.88023952,65dbad3905fde4fe1981dc61,65dcd565f40fd5cad9b7b5a5,,,,,,,,,,,593.6002,0.5,594.1005,594.1005,595.4007,right,0,1.2904,,595.4008,596.4006,3,6,30,4,1,total,2,images/Ex11.jpg,left,reversed,easy,6,,,,,
,,,,,644cdee223c4b93bf46c7301,001,30,male,nigerian,msc,2024-02-26_19h16.50.990,CRL1e,2023.2.3,Win32,59.88023952,65dbad3905fde4fe1981dc61,65dcd565f40fd5cad9b7b5a5,,,,,,,,,,,596.4015,0.8,597.2002,597.2003,597.7338,right,0,0.5242,,597.7339,598.7335,3,7,31,7,1,total,2,images/Ex12.jpg,left,reversed,easy,6,,,,,
,,,,,644cdee223c4b93bf46c7301,001,30,male,nigerian,msc,2024-02-26_19h16.50.990,CRL1e,2023.2.3,Win32,59.88023952,65dbad3905fde4fe1981dc61,65dcd565f40fd5cad9b7b5a5,,,,,,,,,,,598.7346,0.9,599.6336,599.6337,601.7172,left,0,2.0769,,601.7173,602.7166,4,0,32,2,1,total,2,images/Ex10.jpg,right,reversed,easy,6,,,,,
,,,,,644cdee223c4b93bf46c7301,001,30,male,nigerian,msc,2024-02-26_19h16.50.990,CRL1e,2023.2.3,Win32,59.88023952,65dbad3905fde4fe1981dc61,65dcd565f40fd5cad9b7b5a5,,,,,,,,,,,602.7434,0.6,603.3333,603.3334,604.3002,right,0,0.9587,,604.3003,605.3001,4,1,33,5,1,total,2,images/Ex11.jpg,left,reversed,easy,6,,,,,
,,,,,644cdee223c4b93bf46c7301,001,30,male,nigerian,msc,2024-02-26_19h16.50.990,CRL1e,2023.2.3,Win32,59.88023952,65dbad3905fde4fe1981dc61,65dcd565f40fd5cad9b7b5a5,,,,,,,,,,,605.3012,1.2,606.4996,606.4997,606.8665,right,1,0.3562,,606.8665,607.8663,4,2,34,0,1,total,2,images/Ex9.jpg,right,reversed,easy,6,,,,,
,,,,,644cdee223c4b93bf46c7301,001,30,male,nigerian,msc,2024-02-26_19h16.50.990,CRL1e,2023.2.3,Win32,59.88023952,65dbad3905fde4fe1981dc61,65dcd565f40fd5cad9b7b5a5,,,,,,,,,,,607.8672,1,608.8665,608.8667,609.4834,left,1,0.6142,,609.4835,610.4833,4,3,35,6,1,total,2,images/Ex12.jpg,left,reversed,easy,6,,,,,
,,,,,644cdee223c4b93bf46c7301,001,30,male,nigerian,msc,2024-02-26_19h16.50.990,CRL1e,2023.2.3,Win32,59.88023952,65dbad3905fde4fe1981dc61,65dcd565f40fd5cad9b7b5a5,,,,,,,,,,,610.4844,0.9,611.3831,611.3832,612.0166,right,0,0.6225,,612.0167,613.0161,4,4,36,7,1,total,2,images/Ex12.jpg,left,reversed,easy,6,,,,,
,,,,,644cdee223c4b93bf46c7301,001,30,male,nigerian,msc,2024-02-26_19h16.50.990,CRL1e,2023.2.3,Win32,59.88023952,65dbad3905fde4fe1981dc61,65dcd565f40fd5cad9b7b5a5,,,,,,,,,,,613.0168,1.4,614.416,614.4161,615.2165,left,1,0.7903,,615.2166,616.2164,4,5,37,4,1,total,2,images/Ex11.jpg,left,reversed,easy,6,,,,,
,,,,,644cdee223c4b93bf46c7301,001,30,male,nigerian,msc,2024-02-26_19h16.50.990,CRL1e,2023.2.3,Win32,59.88023952,65dbad3905fde4fe1981dc61,65dcd565f40fd5cad9b7b5a5,,,,,,,,,,,616.2173,0.6,616.816,616.8161,618.0831,right,1,1.2581,,618.0832,619.083,4,6,38,3,1,total,2,images/Ex10.jpg,right,reversed,easy,6,,,,,
,,,,,644cdee223c4b93bf46c7301,001,30,male,nigerian,msc,2024-02-26_19h16.50.990,CRL1e,2023.2.3,Win32,59.88023952,65dbad3905fde4fe1981dc61,65dcd565f40fd5cad9b7b5a5,,,,,,,,,,,619.084,1.2,620.2827,620.2827,621.5662,right,1,1.2765,,621.5664,622.5656,4,7,39,1,1,total,2,images/Ex9.jpg,right,reversed,easy,6,,,,,
,,,,,644cdee223c4b93bf46c7301,001,30,male,nigerian,msc,2024-02-26_19h16.50.990,CRL1e,2023.2.3,Win32,59.88023952,65dbad3905fde4fe1981dc61,65dcd565f40fd5cad9b7b5a5,,,,,,,,,,,622.5666,0.6,623.1657,623.1658,623.983,left,1,0.8067,,623.9834,624.9825,5,0,40,7,1,total,2,images/Ex12.jpg,left,reversed,easy,6,,,,,
,,,,,644cdee223c4b93bf46c7301,001,30,male,nigerian,msc,2024-02-26_19h16.50.990,CRL1e,2023.2.3,Win32,59.88023952,65dbad3905fde4fe1981dc61,65dcd565f40fd5cad9b7b5a5,,,,,,,,,,,624.9837,0.6,625.5824,625.5825,626.7999,right,1,1.2065,,626.8001,627.7989,5,1,41,1,1,total,2,images/Ex9.jpg,right,reversed,easy,6,,,,,
,,,,,644cdee223c4b93bf46c7301,001,30,male,nigerian,msc,2024-02-26_19h16.50.990,CRL1e,2023.2.3,Win32,59.88023952,65dbad3905fde4fe1981dc61,65dcd565f40fd5cad9b7b5a5,,,,,,,,,,,627.7997,0.8,628.5989,628.599,629.549,left,1,0.9417,,629.5491,630.5487,5,2,42,4,1,total,2,images/Ex11.jpg,left,reversed,easy,6,,,,,
,,,,,644cdee223c4b93bf46c7301,001,30,male,nigerian,msc,2024-02-26_19h16.50.990,CRL1e,2023.2.3,Win32,59.88023952,65dbad3905fde4fe1981dc61,65dcd565f40fd5cad9b7b5a5,,,,,,,,,,,630.5495,0.7,631.249,631.249,632.6654,right,0,1.4132,,632.6655,633.6646,5,3,43,5,1,total,2,images/Ex11.jpg,left,reversed,easy,6,,,,,
,,,,,644cdee223c4b93bf46c7301,001,30,male,nigerian,msc,2024-02-26_19h16.50.990,CRL1e,2023.2.3,Win32,59.88023952,65dbad3905fde4fe1981dc61,65dcd565f40fd5cad9b7b5a5,,,,,,,,,,,633.6651,0.8,634.4653,634.4654,634.883,left,0,0.4146,,634.8831,635.882,5,4,44,2,1,total,2,images/Ex10.jpg,right,reversed,easy,6,,,,,
,,,,,644cdee223c4b93bf46c7301,001,30,male,nigerian,msc,2024-02-26_19h16.50.990,CRL1e,2023.2.3,Win32,59.88023952,65dbad3905fde4fe1981dc61,65dcd565f40fd5cad9b7b5a5,,,,,,,,,,,635.8831,1.2,637.0819,637.082,637.7489,left,0,0.6576,,637.7489,638.7486,5,5,45,3,1,total,2,images/Ex10.jpg,right,reversed,easy,6,,,,,
,,,,,644cdee223c4b93bf46c7301,001,30,male,nigerian,msc,2024-02-26_19h16.50.990,CRL1e,2023.2.3,Win32,59.88023952,65dbad3905fde4fe1981dc61,65dcd565f40fd5cad9b7b5a5,,,,,,,,,,,638.7495,0.5,639.2485,639.2485,640.0813,right,1,0.8218,,640.0814,641.0816,5,6,46,0,1,total,2,images/Ex9.jpg,right,reversed,easy,6,,,,,
,,,,,644cdee223c4b93bf46c7301,001,30,male,nigerian,msc,2024-02-26_19h16.50.990,CRL1e,2023.2.3,Win32,59.88023952,65dbad3905fde4fe1981dc61,65dcd565f40fd5cad9b7b5a5,,,,,,,,,,,641.0823,0.8,641.8818,641.8819,642.8485,right,0,0.9564,,642.8485,643.8483,5,7,47,6,1,total,2,images/Ex12.jpg,left,reversed,easy,6,,,,,
,,,,,644cdee223c4b93bf46c7301,001,30,male,nigerian,msc,2024-02-26_19h16.50.990,CRL1e,2023.2.3,Win32,59.88023952,65dbad3905fde4fe1981dc61,65dcd565f40fd5cad9b7b5a5,,,,,,,,,,,,,,,,,,,,,,,,,,,,,,,,,,643.8505,685.2642,space,41.39,