infCons.started,infCons.stopped,resp_consent.keys,resp_consent.rt,resp_consent.duration,participant,session,Age?,Gender?,Nationality?,Highest Educational Degree?,date,expName,psychopyVersion,OS,frameRate,STUDY_ID,SESSION_ID,instructions.started,instructions.stopped,resp_instructions.keys,resp_instructions.rt,resp_instructions.duration,nextTask.started,nextTask.stopped,ready_task.keys,ready_task.rt,ready_task.duration,fixation.started,ITI,fixation.stopped,stim.started,stim.stopped,response.keys,response.corr,response.rt,response.duration,feedback.started,feedback.stopped,trials.thisRepN,trials.thisTrialN,trials.thisN,trials.thisIndex,trials.ran,task,phase,Exemplars,r_correct,condition,difficulty,set,end.started,end.stopped,resp_end.keys,resp_end.rt,resp_end.duration
0.0003,8.9663,space,8.9235,,65d88c96834862408313a6c4,001,33,Male,Nigeria,B.Sc,2024-02-26_21h43.05.618,CRL1e,2023.2.3,Win32,58.82352941,65dbad3905fde4fe1981dc61,65dcf7514b7aacd5998af130,,,,,,,,,,,,,,,,,,,,,,,,,,,,,,,,,,,,,,
,,,,,65d88c96834862408313a6c4,001,33,Male,Nigeria,B.Sc,2024-02-26_21h43.05.618,CRL1e,2023.2.3,Win32,58.82352941,65dbad3905fde4fe1981dc61,65dcf7514b7aacd5998af130,8.967,12.1489,space,3.1503,,,,,,,,,,,,,,,,,,,,,,,,,,,,,,,,,,
,,,,,65d88c96834862408313a6c4,001,33,Male,Nigeria,B.Sc,2024-02-26_21h43.05.618,CRL1e,2023.2.3,Win32,58.82352941,65dbad3905fde4fe1981dc61,65dcf7514b7aacd5998af130,,,,,,12.1692,17.7265,space,5.5303,,17.7775,0.8,18.5753,18.5767,67.4679,right,1,48.8484,,67.5101,68.4614,0,0,0,6,1,partial,1,images/Ex12.jpg,right,training,easy,8,,,,,
,,,,,65d88c96834862408313a6c4,001,33,Male,Nigeria,B.Sc,2024-02-26_21h43.05.618,CRL1e,2023.2.3,Win32,58.82352941,65dbad3905fde4fe1981dc61,65dcf7514b7aacd5998af130,,,,,,,,,,,68.4648,0.6,69.0604,69.0605,71.892,right,0,2.8218,,71.8925,72.8957,0,1,1,3,1,partial,1,images/Ex10.jpg,left,training,easy,8,,,,,
,,,,,65d88c96834862408313a6c4,001,33,Male,Nigeria,B.Sc,2024-02-26_21h43.05.618,CRL1e,2023.2.3,Win32,58.82352941,65dbad3905fde4fe1981dc61,65dcf7514b7aacd5998af130,,,,,,,,,,,72.8969,1.5,74.3886,74.3888,77.6364,right,1,3.2361,,77.6367,78.6344,0,2,2,4,1,partial,1,images/Ex11.jpg,right,training,easy,8,,,,,
,,,,,65d88c96834862408313a6c4,001,33,Male,Nigeria,B.Sc,2024-02-26_21h43.05.618,CRL1e,2023.2.3,Win32,58.82352941,65dbad3905fde4fe1981dc61,65dcf7514b7aacd5998af130,,,,,,,,,,,78.6715,1,79.6666,79.6667,82.4736,left,1,2.8026,,82.4737,83.4632,0,3,3,0,1,partial,1,images/Ex9.jpg,left,training,easy,8,,,,,
,,,,,65d88c96834862408313a6c4,001,33,Male,Nigeria,B.Sc,2024-02-26_21h43.05.618,CRL1e,2023.2.3,Win32,58.82352941,65dbad3905fde4fe1981dc61,65dcf7514b7aacd5998af130,,,,,,,,,,,83.4984,0.7,84.1958,84.1958,86.9937,left,1,2.7874,,86.994,87.9925,0,4,4,2,1,partial,1,images/Ex10.jpg,left,training,easy,8,,,,,
,,,,,65d88c96834862408313a6c4,001,33,Male,Nigeria,B.Sc,2024-02-26_21h43.05.618,CRL1e,2023.2.3,Win32,58.82352941,65dbad3905fde4fe1981dc61,65dcf7514b7aacd5998af130,,,,,,,,,,,87.9941,1.2,89.1926,89.1927,91.3259,right,1,2.1186,,91.3264,92.3214,0,5,5,5,1,partial,1,images/Ex11.jpg,right,training,easy,8,,,,,
,,,,,65d88c96834862408313a6c4,001,33,Male,Nigeria,B.Sc,2024-02-26_21h43.05.618,CRL1e,2023.2.3,Win32,58.82352941,65dbad3905fde4fe1981dc61,65dcf7514b7aacd5998af130,,,,,,,,,,,92.3586,1.1,93.4537,93.4538,95.5374,left,1,2.0717,,95.5378,96.5347,0,6,6,1,1,partial,1,images/Ex9.jpg,left,training,easy,8,,,,,
,,,,,65d88c96834862408313a6c4,001,33,Male,Nigeria,B.Sc,2024-02-26_21h43.05.618,CRL1e,2023.2.3,Win32,58.82352941,65dbad3905fde4fe1981dc61,65dcf7514b7aacd5998af130,,,,,,,,,,,96.578,1.2,97.7668,97.7668,99.5158,left,0,1.7411,,99.5162,100.5141,0,7,7,7,1,partial,1,images/Ex12.jpg,right,training,easy,8,,,,,
,,,,,65d88c96834862408313a6c4,001,33,Male,Nigeria,B.Sc,2024-02-26_21h43.05.618,CRL1e,2023.2.3,Win32,58.82352941,65dbad3905fde4fe1981dc61,65dcf7514b7aacd5998af130,,,,,,,,,,,100.5567,1,101.5562,101.5563,104.1287,right,0,2.5632,,104.13,105.1263,1,0,8,0,1,partial,1,images/Ex9.jpg,left,training,easy,8,,,,,
,,,,,65d88c96834862408313a6c4,001,33,Male,Nigeria,B.Sc,2024-02-26_21h43.05.618,CRL1e,2023.2.3,Win32,58.82352941,65dbad3905fde4fe1981dc61,65dcf7514b7aacd5998af130,,,,,,,,,,,105.1661,1.3,106.4585,106.4586,107.8914,left,0,1.4194,,107.8918,108.8901,1,1,9,6,1,partial,1,images/Ex12.jpg,right,training,easy,8,,,,,
,,,,,65d88c96834862408313a6c4,001,33,Male,Nigeria,B.Sc,2024-02-26_21h43.05.618,CRL1e,2023.2.3,Win32,58.82352941,65dbad3905fde4fe1981dc61,65dcf7514b7aacd5998af130,,,,,,,,,,,108.8916,0.6,109.489,109.4891,111.2717,right,0,1.7739,,111.272,112.27,1,2,10,1,1,partial,1,images/Ex9.jpg,left,training,easy,8,,,,,
,,,,,65d88c96834862408313a6c4,001,33,Male,Nigeria,B.Sc,2024-02-26_21h43.05.618,CRL1e,2023.2.3,Win32,58.82352941,65dbad3905fde4fe1981dc61,65dcf7514b7aacd5998af130,,,,,,,,,,,112.304,1,113.3017,113.3018,114.988,left,1,1.6818,,114.9881,115.983,1,3,11,2,1,partial,1,images/Ex10.jpg,left,training,easy,8,,,,,
,,,,,65d88c96834862408313a6c4,001,33,Male,Nigeria,B.Sc,2024-02-26_21h43.05.618,CRL1e,2023.2.3,Win32,58.82352941,65dbad3905fde4fe1981dc61,65dcf7514b7aacd5998af130,,,,,,,,,,,115.9854,0.6,116.586,116.5861,117.8332,left,0,1.2365,,117.8333,118.8341,1,4,12,4,1,partial,1,images/Ex11.jpg,right,training,easy,8,,,,,
,,,,,65d88c96834862408313a6c4,001,33,Male,Nigeria,B.Sc,2024-02-26_21h43.05.618,CRL1e,2023.2.3,Win32,58.82352941,65dbad3905fde4fe1981dc61,65dcf7514b7aacd5998af130,,,,,,,,,,,118.8354,0.9,119.7295,119.7299,120.7303,left,1,0.9935,,120.7305,121.7279,1,5,13,3,1,partial,1,images/Ex10.jpg,left,training,easy,8,,,,,
,,,,,65d88c96834862408313a6c4,001,33,Male,Nigeria,B.Sc,2024-02-26_21h43.05.618,CRL1e,2023.2.3,Win32,58.82352941,65dbad3905fde4fe1981dc61,65dcf7514b7aacd5998af130,,,,,,,,,,,121.7306,0.7,122.4272,122.4273,123.9124,right,1,1.473,,123.9128,124.9079,1,6,14,5,1,partial,1,images/Ex11.jpg,right,training,easy,8,,,,,
,,,,,65d88c96834862408313a6c4,001,33,Male,Nigeria,B.Sc,2024-02-26_21h43.05.618,CRL1e,2023.2.3,Win32,58.82352941,65dbad3905fde4fe1981dc61,65dcf7514b7aacd5998af130,,,,,,,,,,,124.9095,1.1,126.0068,126.0069,127.4582,left,0,1.4425,,127.4586,128.4545,1,7,15,7,1,partial,1,images/Ex12.jpg,right,training,easy,8,,,,,
,,,,,65d88c96834862408313a6c4,001,33,Male,Nigeria,B.Sc,2024-02-26_21h43.05.618,CRL1e,2023.2.3,Win32,58.82352941,65dbad3905fde4fe1981dc61,65dcf7514b7aacd5998af130,,,,,,,,,,,128.4907,0.8,129.2871,129.2872,130.5405,right,1,1.244,,130.5406,131.5351,2,0,16,4,1,partial,1,images/Ex11.jpg,right,training,easy,8,,,,,
,,,,,65d88c96834862408313a6c4,001,33,Male,Nigeria,B.Sc,2024-02-26_21h43.05.618,CRL1e,2023.2.3,Win32,58.82352941,65dbad3905fde4fe1981dc61,65dcf7514b7aacd5998af130,,,,,,,,,,,131.5364,0.6,132.1343,132.1344,132.7842,right,1,0.6431,,132.7844,133.7828,2,1,17,5,1,partial,1,images/Ex11.jpg,right,training,easy,8,,,,,
,,,,,65d88c96834862408313a6c4,001,33,Male,Nigeria,B.Sc,2024-02-26_21h43.05.618,CRL1e,2023.2.3,Win32,58.82352941,65dbad3905fde4fe1981dc61,65dcf7514b7aacd5998af130,,,,,,,,,,,133.785,1.1,134.8729,134.8731,136.0158,right,0,1.1336,,136.016,137.0253,2,2,18,1,1,partial,1,images/Ex9.jpg,left,training,easy,8,,,,,
,,,,,65d88c96834862408313a6c4,001,33,Male,Nigeria,B.Sc,2024-02-26_21h43.05.618,CRL1e,2023.2.3,Win32,58.82352941,65dbad3905fde4fe1981dc61,65dcf7514b7aacd5998af130,,,,,,,,,,,137.028,0.8,137.8293,137.8293,138.846,right,1,1.0048,,138.8461,139.8445,2,3,19,6,1,partial,1,images/Ex12.jpg,right,training,easy,8,,,,,
,,,,,65d88c96834862408313a6c4,001,33,Male,Nigeria,B.Sc,2024-02-26_21h43.05.618,CRL1e,2023.2.3,Win32,58.82352941,65dbad3905fde4fe1981dc61,65dcf7514b7aacd5998af130,,,,,,,,,,,139.847,0.8,140.6432,140.6434,141.6786,right,0,1.0255,,141.6789,142.675,2,4,20,2,1,partial,1,images/Ex10.jpg,left,training,easy,8,,,,,
,,,,,65d88c96834862408313a6c4,001,33,Male,Nigeria,B.Sc,2024-02-26_21h43.05.618,CRL1e,2023.2.3,Win32,58.82352941,65dbad3905fde4fe1981dc61,65dcf7514b7aacd5998af130,,,,,,,,,,,142.6772,0.9,143.5657,143.5659,144.4909,right,0,0.9187,,144.491,145.4886,2,5,21,0,1,partial,1,images/Ex9.jpg,left,training,easy,8,,,,,
,,,,,65d88c96834862408313a6c4,001,33,Male,Nigeria,B.Sc,2024-02-26_21h43.05.618,CRL1e,2023.2.3,Win32,58.82352941,65dbad3905fde4fe1981dc61,65dcf7514b7aacd5998af130,,,,,,,,,,,145.4903,0.6,146.0878,146.0879,147.0048,left,1,0.9104,,147.005,147.9954,2,6,22,3,1,partial,1,images/Ex10.jpg,left,training,easy,8,,,,,
,,,,,65d88c96834862408313a6c4,001,33,Male,Nigeria,B.Sc,2024-02-26_21h43.05.618,CRL1e,2023.2.3,Win32,58.82352941,65dbad3905fde4fe1981dc61,65dcf7514b7aacd5998af130,,,,,,,,,,,147.9965,0.9,148.8918,148.892,149.8364,right,1,0.936,,149.8366,150.8416,2,7,23,7,1,partial,1,images/Ex12.jpg,right,training,easy,8,,,,,
,,,,,65d88c96834862408313a6c4,001,33,Male,Nigeria,B.Sc,2024-02-26_21h43.05.618,CRL1e,2023.2.3,Win32,58.82352941,65dbad3905fde4fe1981dc61,65dcf7514b7aacd5998af130,,,,,,,,,,,150.8428,1.2,152.0326,152.0326,152.9827,left,0,0.943,,152.983,153.9814,3,0,24,7,1,partial,1,images/Ex12.jpg,right,training,easy,8,,,,,
,,,,,65d88c96834862408313a6c4,001,33,Male,Nigeria,B.Sc,2024-02-26_21h43.05.618,CRL1e,2023.2.3,Win32,58.82352941,65dbad3905fde4fe1981dc61,65dcf7514b7aacd5998af130,,,,,,,,,,,153.9838,1.4,155.3801,155.3803,156.1632,left,0,0.7709,,156.1636,157.1609,3,1,25,4,1,partial,1,images/Ex11.jpg,right,training,easy,8,,,,,
,,,,,65d88c96834862408313a6c4,001,33,Male,Nigeria,B.Sc,2024-02-26_21h43.05.618,CRL1e,2023.2.3,Win32,58.82352941,65dbad3905fde4fe1981dc61,65dcf7514b7aacd5998af130,,,,,,,,,,,157.1624,1.1,158.2603,158.2604,159.1281,left,1,0.8567,,159.1283,160.1252,3,2,26,2,1,partial,1,images/Ex10.jpg,left,training,easy,8,,,,,
,,,,,65d88c96834862408313a6c4,001,33,Male,Nigeria,B.Sc,2024-02-26_21h43.05.618,CRL1e,2023.2.3,Win32,58.82352941,65dbad3905fde4fe1981dc61,65dcf7514b7aacd5998af130,,,,,,,,,,,160.128,0.6,160.7314,160.7315,162.392,right,1,1.6501,,162.3923,163.3885,3,3,27,5,1,partial,1,images/Ex11.jpg,right,training,easy,8,,,,,
,,,,,65d88c96834862408313a6c4,001,33,Male,Nigeria,B.Sc,2024-02-26_21h43.05.618,CRL1e,2023.2.3,Win32,58.82352941,65dbad3905fde4fe1981dc61,65dcf7514b7aacd5998af130,,,,,,,,,,,163.3917,1.3,164.6875,164.6875,165.3733,right,0,0.6743,,165.3736,166.3692,3,4,28,1,1,partial,1,images/Ex9.jpg,left,training,easy,8,,,,,
,,,,,65d88c96834862408313a6c4,001,33,Male,Nigeria,B.Sc,2024-02-26_21h43.05.618,CRL1e,2023.2.3,Win32,58.82352941,65dbad3905fde4fe1981dc61,65dcf7514b7aacd5998af130,,,,,,,,,,,166.3707,0.6,166.9689,166.969,167.4711,right,0,0.4915,,167.4717,168.4677,3,5,29,3,1,partial,1,images/Ex10.jpg,left,training,easy,8,,,,,
,,,,,65d88c96834862408313a6c4,001,33,Male,Nigeria,B.Sc,2024-02-26_21h43.05.618,CRL1e,2023.2.3,Win32,58.82352941,65dbad3905fde4fe1981dc61,65dcf7514b7aacd5998af130,,,,,,,,,,,168.4699,0.7,169.1671,169.1673,169.7843,right,1,0.6058,,169.7846,170.7813,3,6,30,6,1,partial,1,images/Ex12.jpg,right,training,easy,8,,,,,
,,,,,65d88c96834862408313a6c4,001,33,Male,Nigeria,B.Sc,2024-02-26_21h43.05.618,CRL1e,2023.2.3,Win32,58.82352941,65dbad3905fde4fe1981dc61,65dcf7514b7aacd5998af130,,,,,,,,,,,170.7828,0.7,171.4811,171.4812,172.2831,left,1,0.7973,,172.2832,173.28,3,7,31,0,1,partial,1,images/Ex9.jpg,left,training,easy,8,,,,,
,,,,,65d88c96834862408313a6c4,001,33,Male,Nigeria,B.Sc,2024-02-26_21h43.05.618,CRL1e,2023.2.3,Win32,58.82352941,65dbad3905fde4fe1981dc61,65dcf7514b7aacd5998af130,,,,,,,,,,,173.2827,0.9,174.1789,174.179,175.2979,left,1,1.1064,,175.2984,176.2937,4,0,32,0,1,partial,1,images/Ex9.jpg,left,training,easy,8,,,,,
,,,,,65d88c96834862408313a6c4,001,33,Male,Nigeria,B.Sc,2024-02-26_21h43.05.618,CRL1e,2023.2.3,Win32,58.82352941,65dbad3905fde4fe1981dc61,65dcf7514b7aacd5998af130,,,,,,,,,,,176.2968,0.8,177.0925,177.0926,178.8256,right,1,1.723,,178.8257,179.824,4,1,33,6,1,partial,1,images/Ex12.jpg,right,training,easy,8,,,,,
,,,,,65d88c96834862408313a6c4,001,33,Male,Nigeria,B.Sc,2024-02-26_21h43.05.618,CRL1e,2023.2.3,Win32,58.82352941,65dbad3905fde4fe1981dc61,65dcf7514b7aacd5998af130,,,,,,,,,,,179.8264,1.2,181.0223,181.0225,182.5822,left,0,1.5556,,182.5824,183.5865,4,2,34,7,1,partial,1,images/Ex12.jpg,right,training,easy,8,,,,,
,,,,,65d88c96834862408313a6c4,001,33,Male,Nigeria,B.Sc,2024-02-26_21h43.05.618,CRL1e,2023.2.3,Win32,58.82352941,65dbad3905fde4fe1981dc61,65dcf7514b7aacd5998af130,,,,,,,,,,,183.5878,0.9,184.4858,184.4858,186.0693,right,1,1.5748,,186.0695,187.0667,4,3,35,5,1,partial,1,images/Ex11.jpg,right,training,easy,8,,,,,
,,,,,65d88c96834862408313a6c4,001,33,Male,Nigeria,B.Sc,2024-02-26_21h43.05.618,CRL1e,2023.2.3,Win32,58.82352941,65dbad3905fde4fe1981dc61,65dcf7514b7aacd5998af130,,,,,,,,,,,187.0687,1.5,188.5716,188.5718,189.7985,right,0,1.2176,,189.7995,190.7965,4,4,36,1,1,partial,1,images/Ex9.jpg,left,training,easy,8,,,,,
,,,,,65d88c96834862408313a6c4,001,33,Male,Nigeria,B.Sc,2024-02-26_21h43.05.618,CRL1e,2023.2.3,Win32,58.82352941,65dbad3905fde4fe1981dc61,65dcf7514b7aacd5998af130,,,,,,,,,,,190.7982,1.3,192.0955,192.0956,193.0124,right,0,0.9064,,193.0126,194.0107,4,5,37,2,1,partial,1,images/Ex10.jpg,left,training,easy,8,,,,,
,,,,,65d88c96834862408313a6c4,001,33,Male,Nigeria,B.Sc,2024-02-26_21h43.05.618,CRL1e,2023.2.3,Win32,58.82352941,65dbad3905fde4fe1981dc61,65dcf7514b7aacd5998af130,,,,,,,,,,,194.0128,0.5,194.5118,194.5119,195.6785,right,1,1.1592,,195.6787,196.6742,4,6,38,4,1,partial,1,images/Ex11.jpg,right,training,easy,8,,,,,
,,,,,65d88c96834862408313a6c4,001,33,Male,Nigeria,B.Sc,2024-02-26_21h43.05.618,CRL1e,2023.2.3,Win32,58.82352941,65dbad3905fde4fe1981dc61,65dcf7514b7aacd5998af130,,,,,,,,,,,196.6754,1.4,198.0725,198.0726,199.9229,left,1,1.8402,,199.9232,200.9203,4,7,39,3,1,partial,1,images/Ex10.jpg,left,training,easy,8,,,,,
,,,,,65d88c96834862408313a6c4,001,33,Male,Nigeria,B.Sc,2024-02-26_21h43.05.618,CRL1e,2023.2.3,Win32,58.82352941,65dbad3905fde4fe1981dc61,65dcf7514b7aacd5998af130,,,,,,,,,,,200.9575,0.8,201.7529,201.7531,203.3693,left,0,1.6052,,203.3702,204.3674,5,0,40,7,1,partial,1,images/Ex12.jpg,right,training,easy,8,,,,,
,,,,,65d88c96834862408313a6c4,001,33,Male,Nigeria,B.Sc,2024-02-26_21h43.05.618,CRL1e,2023.2.3,Win32,58.82352941,65dbad3905fde4fe1981dc61,65dcf7514b7aacd5998af130,,,,,,,,,,,204.3704,1.3,205.6701,205.6701,206.6844,left,1,1.0041,,206.6845,207.6808,5,1,41,2,1,partial,1,images/Ex10.jpg,left,training,easy,8,,,,,
,,,,,65d88c96834862408313a6c4,001,33,Male,Nigeria,B.Sc,2024-02-26_21h43.05.618,CRL1e,2023.2.3,Win32,58.82352941,65dbad3905fde4fe1981dc61,65dcf7514b7aacd5998af130,,,,,,,,,,,207.6822,0.9,208.5801,208.5802,210.8785,right,0,2.2915,,210.8786,211.8766,5,2,42,3,1,partial,1,images/Ex10.jpg,left,training,easy,8,,,,,
,,,,,65d88c96834862408313a6c4,001,33,Male,Nigeria,B.Sc,2024-02-26_21h43.05.618,CRL1e,2023.2.3,Win32,58.82352941,65dbad3905fde4fe1981dc61,65dcf7514b7aacd5998af130,,,,,,,,,,,211.8797,1,212.8759,212.876,213.8769,right,1,0.9933,,213.8773,214.8743,5,3,43,5,1,partial,1,images/Ex11.jpg,right,training,easy,8,,,,,
,,,,,65d88c96834862408313a6c4,001,33,Male,Nigeria,B.Sc,2024-02-26_21h43.05.618,CRL1e,2023.2.3,Win32,58.82352941,65dbad3905fde4fe1981dc61,65dcf7514b7aacd5998af130,,,,,,,,,,,214.877,0.6,215.4647,215.4649,216.8931,left,1,1.4175,,216.8932,217.8882,5,4,44,0,1,partial,1,images/Ex9.jpg,left,training,easy,8,,,,,
,,,,,65d88c96834862408313a6c4,001,33,Male,Nigeria,B.Sc,2024-02-26_21h43.05.618,CRL1e,2023.2.3,Win32,58.82352941,65dbad3905fde4fe1981dc61,65dcf7514b7aacd5998af130,,,,,,,,,,,217.8908,0.6,218.4875,218.4876,219.4734,right,0,0.974,,219.4736,220.4717,5,5,45,1,1,partial,1,images/Ex9.jpg,left,training,easy,8,,,,,
,,,,,65d88c96834862408313a6c4,001,33,Male,Nigeria,B.Sc,2024-02-26_21h43.05.618,CRL1e,2023.2.3,Win32,58.82352941,65dbad3905fde4fe1981dc61,65dcf7514b7aacd5998af130,,,,,,,,,,,220.4734,1.3,221.7679,221.7681,222.7372,right,1,0.9593,,222.7374,223.7322,5,6,46,6,1,partial,1,images/Ex12.jpg,right,training,easy,8,,,,,
,,,,,65d88c96834862408313a6c4,001,33,Male,Nigeria,B.Sc,2024-02-26_21h43.05.618,CRL1e,2023.2.3,Win32,58.82352941,65dbad3905fde4fe1981dc61,65dcf7514b7aacd5998af130,,,,,,,,,,,223.7335,1,224.7315,224.7317,225.8337,right,1,1.0921,,225.8339,226.8295,5,7,47,4,1,partial,1,images/Ex11.jpg,right,training,easy,8,,,,,
,,,,,65d88c96834862408313a6c4,001,33,Male,Nigeria,B.Sc,2024-02-26_21h43.05.618,CRL1e,2023.2.3,Win32,58.82352941,65dbad3905fde4fe1981dc61,65dcf7514b7aacd5998af130,,,,,,,,,,,226.8427,1.4,228.2446,228.2447,229.2134,left,0,0.9586,,229.2136,230.2103,0,0,0,7,1,partial,2,images/Ex12.jpg,right,nonreversed,easy,8,,,,,
,,,,,65d88c96834862408313a6c4,001,33,Male,Nigeria,B.Sc,2024-02-26_21h43.05.618,CRL1e,2023.2.3,Win32,58.82352941,65dbad3905fde4fe1981dc61,65dcf7514b7aacd5998af130,,,,,,,,,,,230.2125,1.5,231.7085,231.7087,232.4169,right,1,0.7043,,232.4171,233.4066,0,1,1,6,1,partial,2,images/Ex12.jpg,right,nonreversed,easy,8,,,,,
,,,,,65d88c96834862408313a6c4,001,33,Male,Nigeria,B.Sc,2024-02-26_21h43.05.618,CRL1e,2023.2.3,Win32,58.82352941,65dbad3905fde4fe1981dc61,65dcf7514b7aacd5998af130,,,,,,,,,,,233.4079,0.9,234.3054,234.3054,235.3386,right,1,1.0259,,235.3387,236.337,0,2,2,0,1,partial,2,images/Ex9.jpg,right,reversed,easy,8,,,,,
,,,,,65d88c96834862408313a6c4,001,33,Male,Nigeria,B.Sc,2024-02-26_21h43.05.618,CRL1e,2023.2.3,Win32,58.82352941,65dbad3905fde4fe1981dc61,65dcf7514b7aacd5998af130,,,,,,,,,,,236.3382,1.2,237.536,237.5362,238.6191,right,1,1.0787,,238.6193,239.6175,0,3,3,1,1,partial,2,images/Ex9.jpg,right,reversed,easy,8,,,,,
,,,,,65d88c96834862408313a6c4,001,33,Male,Nigeria,B.Sc,2024-02-26_21h43.05.618,CRL1e,2023.2.3,Win32,58.82352941,65dbad3905fde4fe1981dc61,65dcf7514b7aacd5998af130,,,,,,,,,,,239.6203,1.3,240.9087,240.9088,241.837,left,1,0.9161,,241.8371,242.8312,0,4,4,3,1,partial,2,images/Ex10.jpg,left,nonreversed,easy,8,,,,,
,,,,,65d88c96834862408313a6c4,001,33,Male,Nigeria,B.Sc,2024-02-26_21h43.05.618,CRL1e,2023.2.3,Win32,58.82352941,65dbad3905fde4fe1981dc61,65dcf7514b7aacd5998af130,,,,,,,,,,,242.8323,0.5,243.3307,243.3308,244.9495,right,0,1.6079,,244.9496,245.9453,0,5,5,4,1,partial,2,images/Ex11.jpg,left,reversed,easy,8,,,,,
,,,,,65d88c96834862408313a6c4,001,33,Male,Nigeria,B.Sc,2024-02-26_21h43.05.618,CRL1e,2023.2.3,Win32,58.82352941,65dbad3905fde4fe1981dc61,65dcf7514b7aacd5998af130,,,,,,,,,,,245.9477,1,246.9441,246.9442,247.5526,left,1,0.6038,,247.5527,248.5425,0,6,6,2,1,partial,2,images/Ex10.jpg,left,nonreversed,easy,8,,,,,
,,,,,65d88c96834862408313a6c4,001,33,Male,Nigeria,B.Sc,2024-02-26_21h43.05.618,CRL1e,2023.2.3,Win32,58.82352941,65dbad3905fde4fe1981dc61,65dcf7514b7aacd5998af130,,,,,,,,,,,248.5439,0.5,249.0415,249.0417,250.5142,left,1,1.4697,,250.5143,251.5064,0,7,7,5,1,partial,2,images/Ex11.jpg,left,reversed,easy,8,,,,,
,,,,,65d88c96834862408313a6c4,001,33,Male,Nigeria,B.Sc,2024-02-26_21h43.05.618,CRL1e,2023.2.3,Win32,58.82352941,65dbad3905fde4fe1981dc61,65dcf7514b7aacd5998af130,,,,,,,,,,,251.5082,1.1,252.6053,252.6054,253.374,left,1,0.7585,,253.3752,254.3712,1,0,8,3,1,partial,2,images/Ex10.jpg,left,nonreversed,easy,8,,,,,
,,,,,65d88c96834862408313a6c4,001,33,Male,Nigeria,B.Sc,2024-02-26_21h43.05.618,CRL1e,2023.2.3,Win32,58.82352941,65dbad3905fde4fe1981dc61,65dcf7514b7aacd5998af130,,,,,,,,,,,254.3731,0.6,254.9706,254.971,255.6712,left,1,0.6911,,255.6715,256.6682,1,1,9,2,1,partial,2,images/Ex10.jpg,left,nonreversed,easy,8,,,,,
,,,,,65d88c96834862408313a6c4,001,33,Male,Nigeria,B.Sc,2024-02-26_21h43.05.618,CRL1e,2023.2.3,Win32,58.82352941,65dbad3905fde4fe1981dc61,65dcf7514b7aacd5998af130,,,,,,,,,,,256.67,0.8,257.4674,257.4675,258.2344,right,1,0.759,,258.2345,259.2326,1,2,10,7,1,partial,2,images/Ex12.jpg,right,nonreversed,easy,8,,,,,
,,,,,65d88c96834862408313a6c4,001,33,Male,Nigeria,B.Sc,2024-02-26_21h43.05.618,CRL1e,2023.2.3,Win32,58.82352941,65dbad3905fde4fe1981dc61,65dcf7514b7aacd5998af130,,,,,,,,,,,259.2339,0.9,260.132,260.1321,261.0352,right,1,0.8945,,261.0354,262.0305,1,3,11,6,1,partial,2,images/Ex12.jpg,right,nonreversed,easy,8,,,,,
,,,,,65d88c96834862408313a6c4,001,33,Male,Nigeria,B.Sc,2024-02-26_21h43.05.618,CRL1e,2023.2.3,Win32,58.82352941,65dbad3905fde4fe1981dc61,65dcf7514b7aacd5998af130,,,,,,,,,,,262.0322,1.1,263.1284,263.1285,263.8991,right,1,0.759,,263.8993,264.8936,1,4,12,0,1,partial,2,images/Ex9.jpg,right,reversed,easy,8,,,,,
,,,,,65d88c96834862408313a6c4,001,33,Male,Nigeria,B.Sc,2024-02-26_21h43.05.618,CRL1e,2023.2.3,Win32,58.82352941,65dbad3905fde4fe1981dc61,65dcf7514b7aacd5998af130,,,,,,,,,,,264.8949,1.4,266.2923,266.2924,266.9955,right,1,0.6992,,266.9956,267.9914,1,5,13,1,1,partial,2,images/Ex9.jpg,right,reversed,easy,8,,,,,
,,,,,65d88c96834862408313a6c4,001,33,Male,Nigeria,B.Sc,2024-02-26_21h43.05.618,CRL1e,2023.2.3,Win32,58.82352941,65dbad3905fde4fe1981dc61,65dcf7514b7aacd5998af130,,,,,,,,,,,267.9933,0.7,268.6907,268.6909,269.7112,left,1,1.0143,,269.7115,270.7052,1,6,14,5,1,partial,2,images/Ex11.jpg,left,reversed,easy,8,,,,,
,,,,,65d88c96834862408313a6c4,001,33,Male,Nigeria,B.Sc,2024-02-26_21h43.05.618,CRL1e,2023.2.3,Win32,58.82352941,65dbad3905fde4fe1981dc61,65dcf7514b7aacd5998af130,,,,,,,,,,,270.7071,0.9,271.6044,271.6045,272.4619,left,1,0.8526,,272.462,273.4601,1,7,15,4,1,partial,2,images/Ex11.jpg,left,reversed,easy,8,,,,,
,,,,,65d88c96834862408313a6c4,001,33,Male,Nigeria,B.Sc,2024-02-26_21h43.05.618,CRL1e,2023.2.3,Win32,58.82352941,65dbad3905fde4fe1981dc61,65dcf7514b7aacd5998af130,,,,,,,,,,,273.4619,0.7,274.1627,274.1628,274.8548,left,1,0.6869,,274.8549,275.852,2,0,16,5,1,partial,2,images/Ex11.jpg,left,reversed,easy,8,,,,,
,,,,,65d88c96834862408313a6c4,001,33,Male,Nigeria,B.Sc,2024-02-26_21h43.05.618,CRL1e,2023.2.3,Win32,58.82352941,65dbad3905fde4fe1981dc61,65dcf7514b7aacd5998af130,,,,,,,,,,,275.854,0.6,276.4561,276.4561,277.2325,left,1,0.7691,,277.2327,278.2318,2,1,17,3,1,partial,2,images/Ex10.jpg,left,nonreversed,easy,8,,,,,
,,,,,65d88c96834862408313a6c4,001,33,Male,Nigeria,B.Sc,2024-02-26_21h43.05.618,CRL1e,2023.2.3,Win32,58.82352941,65dbad3905fde4fe1981dc61,65dcf7514b7aacd5998af130,,,,,,,,,,,278.2343,0.6,278.837,278.8371,279.4083,left,1,0.5685,,279.4084,280.4121,2,2,18,2,1,partial,2,images/Ex10.jpg,left,nonreversed,easy,8,,,,,
,,,,,65d88c96834862408313a6c4,001,33,Male,Nigeria,B.Sc,2024-02-26_21h43.05.618,CRL1e,2023.2.3,Win32,58.82352941,65dbad3905fde4fe1981dc61,65dcf7514b7aacd5998af130,,,,,,,,,,,280.4132,1,281.4113,281.4114,282.6821,right,1,1.2624,,282.6823,283.681,2,3,19,0,1,partial,2,images/Ex9.jpg,right,reversed,easy,8,,,,,
,,,,,65d88c96834862408313a6c4,001,33,Male,Nigeria,B.Sc,2024-02-26_21h43.05.618,CRL1e,2023.2.3,Win32,58.82352941,65dbad3905fde4fe1981dc61,65dcf7514b7aacd5998af130,,,,,,,,,,,283.6827,0.9,284.5755,284.5756,285.4439,left,1,0.8567,,285.4441,286.4408,2,4,20,4,1,partial,2,images/Ex11.jpg,left,reversed,easy,8,,,,,
,,,,,65d88c96834862408313a6c4,001,33,Male,Nigeria,B.Sc,2024-02-26_21h43.05.618,CRL1e,2023.2.3,Win32,58.82352941,65dbad3905fde4fe1981dc61,65dcf7514b7aacd5998af130,,,,,,,,,,,286.4425,1.1,287.5408,287.5409,288.3562,right,1,0.8086,,288.3565,289.3544,2,5,21,1,1,partial,2,images/Ex9.jpg,right,reversed,easy,8,,,,,
,,,,,65d88c96834862408313a6c4,001,33,Male,Nigeria,B.Sc,2024-02-26_21h43.05.618,CRL1e,2023.2.3,Win32,58.82352941,65dbad3905fde4fe1981dc61,65dcf7514b7aacd5998af130,,,,,,,,,,,289.3563,1.3,290.6536,290.6539,292.4677,left,0,1.8045,,292.4678,293.4671,2,6,22,7,1,partial,2,images/Ex12.jpg,right,nonreversed,easy,8,,,,,
,,,,,65d88c96834862408313a6c4,001,33,Male,Nigeria,B.Sc,2024-02-26_21h43.05.618,CRL1e,2023.2.3,Win32,58.82352941,65dbad3905fde4fe1981dc61,65dcf7514b7aacd5998af130,,,,,,,,,,,293.5037,0.5,294.0004,294.0005,294.6332,right,1,0.6274,,294.6332,295.6324,2,7,23,6,1,partial,2,images/Ex12.jpg,right,nonreversed,easy,8,,,,,
,,,,,65d88c96834862408313a6c4,001,33,Male,Nigeria,B.Sc,2024-02-26_21h43.05.618,CRL1e,2023.2.3,Win32,58.82352941,65dbad3905fde4fe1981dc61,65dcf7514b7aacd5998af130,,,,,,,,,,,295.6348,0.7,296.3393,296.3393,297.2482,left,1,0.9022,,297.2485,298.2463,3,0,24,2,1,partial,2,images/Ex10.jpg,left,nonreversed,easy,8,,,,,
,,,,,65d88c96834862408313a6c4,001,33,Male,Nigeria,B.Sc,2024-02-26_21h43.05.618,CRL1e,2023.2.3,Win32,58.82352941,65dbad3905fde4fe1981dc61,65dcf7514b7aacd5998af130,,,,,,,,,,,298.2486,0.8,299.0456,299.0458,299.8462,right,1,0.7942,,299.8468,300.8438,3,1,25,1,1,partial,2,images/Ex9.jpg,right,reversed,easy,8,,,,,
,,,,,65d88c96834862408313a6c4,001,33,Male,Nigeria,B.Sc,2024-02-26_21h43.05.618,CRL1e,2023.2.3,Win32,58.82352941,65dbad3905fde4fe1981dc61,65dcf7514b7aacd5998af130,,,,,,,,,,,300.8458,0.9,301.7431,301.7433,303.4771,right,1,1.728,,303.4772,304.4736,3,2,26,7,1,partial,2,images/Ex12.jpg,right,nonreversed,easy,8,,,,,
,,,,,65d88c96834862408313a6c4,001,33,Male,Nigeria,B.Sc,2024-02-26_21h43.05.618,CRL1e,2023.2.3,Win32,58.82352941,65dbad3905fde4fe1981dc61,65dcf7514b7aacd5998af130,,,,,,,,,,,304.4761,0.8,305.2767,305.2767,305.9271,right,1,0.6448,,305.9273,306.9232,3,3,27,6,1,partial,2,images/Ex12.jpg,right,nonreversed,easy,8,,,,,
,,,,,65d88c96834862408313a6c4,001,33,Male,Nigeria,B.Sc,2024-02-26_21h43.05.618,CRL1e,2023.2.3,Win32,58.82352941,65dbad3905fde4fe1981dc61,65dcf7514b7aacd5998af130,,,,,,,,,,,306.9246,1,307.9203,307.9204,308.605,left,1,0.6734,,308.6052,309.6021,3,4,28,5,1,partial,2,images/Ex11.jpg,left,reversed,easy,8,,,,,
,,,,,65d88c96834862408313a6c4,001,33,Male,Nigeria,B.Sc,2024-02-26_21h43.05.618,CRL1e,2023.2.3,Win32,58.82352941,65dbad3905fde4fe1981dc61,65dcf7514b7aacd5998af130,,,,,,,,,,,309.6047,0.6,310.2018,310.2019,310.8567,left,1,0.6495,,310.857,311.8507,3,5,29,3,1,partial,2,images/Ex10.jpg,left,nonreversed,easy,8,,,,,
,,,,,65d88c96834862408313a6c4,001,33,Male,Nigeria,B.Sc,2024-02-26_21h43.05.618,CRL1e,2023.2.3,Win32,58.82352941,65dbad3905fde4fe1981dc61,65dcf7514b7aacd5998af130,,,,,,,,,,,311.8526,0.6,312.4506,312.4507,313.2185,left,1,0.7586,,313.2187,314.2149,3,6,30,4,1,partial,2,images/Ex11.jpg,left,reversed,easy,8,,,,,
,,,,,65d88c96834862408313a6c4,001,33,Male,Nigeria,B.Sc,2024-02-26_21h43.05.618,CRL1e,2023.2.3,Win32,58.82352941,65dbad3905fde4fe1981dc61,65dcf7514b7aacd5998af130,,,,,,,,,,,314.2166,1.2,315.4139,315.414,316.3494,right,1,0.9264,,316.3495,317.345,3,7,31,0,1,partial,2,images/Ex9.jpg,right,reversed,easy,8,,,,,
,,,,,65d88c96834862408313a6c4,001,33,Male,Nigeria,B.Sc,2024-02-26_21h43.05.618,CRL1e,2023.2.3,Win32,58.82352941,65dbad3905fde4fe1981dc61,65dcf7514b7aacd5998af130,,,,,,,,,,,317.3468,0.6,317.9447,317.9449,318.7446,left,1,0.7895,,318.7457,319.746,4,0,32,2,1,partial,2,images/Ex10.jpg,left,nonreversed,easy,8,,,,,
,,,,,65d88c96834862408313a6c4,001,33,Male,Nigeria,B.Sc,2024-02-26_21h43.05.618,CRL1e,2023.2.3,Win32,58.82352941,65dbad3905fde4fe1981dc61,65dcf7514b7aacd5998af130,,,,,,,,,,,319.7473,1.1,320.8426,320.8427,322.0675,right,0,1.2192,,322.0677,323.0563,4,1,33,4,1,partial,2,images/Ex11.jpg,left,reversed,easy,8,,,,,
,,,,,65d88c96834862408313a6c4,001,33,Male,Nigeria,B.Sc,2024-02-26_21h43.05.618,CRL1e,2023.2.3,Win32,58.82352941,65dbad3905fde4fe1981dc61,65dcf7514b7aacd5998af130,,,,,,,,,,,323.0575,0.8,323.8545,323.8546,324.4892,left,1,0.6274,,324.4897,325.4876,4,2,34,5,1,partial,2,images/Ex11.jpg,left,reversed,easy,8,,,,,
,,,,,65d88c96834862408313a6c4,001,33,Male,Nigeria,B.Sc,2024-02-26_21h43.05.618,CRL1e,2023.2.3,Win32,58.82352941,65dbad3905fde4fe1981dc61,65dcf7514b7aacd5998af130,,,,,,,,,,,325.4899,1.1,326.5865,326.5867,327.3225,right,1,0.723,,327.3226,328.3178,4,3,35,1,1,partial,2,images/Ex9.jpg,right,reversed,easy,8,,,,,
,,,,,65d88c96834862408313a6c4,001,33,Male,Nigeria,B.Sc,2024-02-26_21h43.05.618,CRL1e,2023.2.3,Win32,58.82352941,65dbad3905fde4fe1981dc61,65dcf7514b7aacd5998af130,,,,,,,,,,,328.3191,0.5,328.8177,328.8178,329.4676,right,1,0.6414,,329.4679,330.4659,4,4,36,0,1,partial,2,images/Ex9.jpg,right,reversed,easy,8,,,,,
,,,,,65d88c96834862408313a6c4,001,33,Male,Nigeria,B.Sc,2024-02-26_21h43.05.618,CRL1e,2023.2.3,Win32,58.82352941,65dbad3905fde4fe1981dc61,65dcf7514b7aacd5998af130,,,,,,,,,,,330.468,0.9,331.3655,331.3657,334.6125,right,1,3.238,,334.6133,335.6178,4,5,37,6,1,partial,2,images/Ex12.jpg,right,nonreversed,easy,8,,,,,
,,,,,65d88c96834862408313a6c4,001,33,Male,Nigeria,B.Sc,2024-02-26_21h43.05.618,CRL1e,2023.2.3,Win32,58.82352941,65dbad3905fde4fe1981dc61,65dcf7514b7aacd5998af130,,,,,,,,,,,335.6411,0.7,336.3436,336.3438,337.3026,left,1,0.9554,,337.3027,338.2925,4,6,38,3,1,partial,2,images/Ex10.jpg,left,nonreversed,easy,8,,,,,
,,,,,65d88c96834862408313a6c4,001,33,Male,Nigeria,B.Sc,2024-02-26_21h43.05.618,CRL1e,2023.2.3,Win32,58.82352941,65dbad3905fde4fe1981dc61,65dcf7514b7aacd5998af130,,,,,,,,,,,338.2934,0.8,339.0911,339.0911,340.374,right,1,1.2709,,340.3742,341.3724,4,7,39,7,1,partial,2,images/Ex12.jpg,right,nonreversed,easy,8,,,,,
,,,,,65d88c96834862408313a6c4,001,33,Male,Nigeria,B.Sc,2024-02-26_21h43.05.618,CRL1e,2023.2.3,Win32,58.82352941,65dbad3905fde4fe1981dc61,65dcf7514b7aacd5998af130,,,,,,,,,,,341.3743,0.6,341.9779,341.978,342.7562,right,1,0.7719,,342.7566,343.7604,5,0,40,7,1,partial,2,images/Ex12.jpg,right,nonreversed,easy,8,,,,,
,,,,,65d88c96834862408313a6c4,001,33,Male,Nigeria,B.Sc,2024-02-26_21h43.05.618,CRL1e,2023.2.3,Win32,58.82352941,65dbad3905fde4fe1981dc61,65dcf7514b7aacd5998af130,,,,,,,,,,,343.7619,0.8,344.553,344.5531,346.0383,left,1,1.4752,,346.0393,347.0409,5,1,41,2,1,partial,2,images/Ex10.jpg,left,nonreversed,easy,8,,,,,
,,,,,65d88c96834862408313a6c4,001,33,Male,Nigeria,B.Sc,2024-02-26_21h43.05.618,CRL1e,2023.2.3,Win32,58.82352941,65dbad3905fde4fe1981dc61,65dcf7514b7aacd5998af130,,,,,,,,,,,347.0845,0.7,347.7827,347.7829,348.4179,left,1,0.6237,,348.4184,349.4069,5,2,42,3,1,partial,2,images/Ex10.jpg,left,nonreversed,easy,8,,,,,
,,,,,65d88c96834862408313a6c4,001,33,Male,Nigeria,B.Sc,2024-02-26_21h43.05.618,CRL1e,2023.2.3,Win32,58.82352941,65dbad3905fde4fe1981dc61,65dcf7514b7aacd5998af130,,,,,,,,,,,349.4087,1.4,350.7973,350.7975,352.132,right,0,1.3275,,352.1321,353.129,5,3,43,4,1,partial,2,images/Ex11.jpg,left,reversed,easy,8,,,,,
,,,,,65d88c96834862408313a6c4,001,33,Male,Nigeria,B.Sc,2024-02-26_21h43.05.618,CRL1e,2023.2.3,Win32,58.82352941,65dbad3905fde4fe1981dc61,65dcf7514b7aacd5998af130,,,,,,,,,,,353.168,1.1,354.2611,354.2612,355.2793,right,1,1.0077,,355.2799,356.2753,5,4,44,6,1,partial,2,images/Ex12.jpg,right,nonreversed,easy,8,,,,,
,,,,,65d88c96834862408313a6c4,001,33,Male,Nigeria,B.Sc,2024-02-26_21h43.05.618,CRL1e,2023.2.3,Win32,58.82352941,65dbad3905fde4fe1981dc61,65dcf7514b7aacd5998af130,,,,,,,,,,,356.2772,1.3,357.5756,357.5758,358.4079,right,1,0.8226,,358.4081,359.4058,5,5,45,1,1,partial,2,images/Ex9.jpg,right,reversed,easy,8,,,,,
,,,,,65d88c96834862408313a6c4,001,33,Male,Nigeria,B.Sc,2024-02-26_21h43.05.618,CRL1e,2023.2.3,Win32,58.82352941,65dbad3905fde4fe1981dc61,65dcf7514b7aacd5998af130,,,,,,,,,,,359.4071,0.7,360.1049,360.105,361.1883,left,1,1.0748,,361.1886,362.1867,5,6,46,5,1,partial,2,images/Ex11.jpg,left,reversed,easy,8,,,,,
,,,,,65d88c96834862408313a6c4,001,33,Male,Nigeria,B.Sc,2024-02-26_21h43.05.618,CRL1e,2023.2.3,Win32,58.82352941,65dbad3905fde4fe1981dc61,65dcf7514b7aacd5998af130,,,,,,,,,,,362.1897,0.6,362.7857,362.7858,363.7956,right,1,1.0057,,363.7957,364.7837,5,7,47,0,1,partial,2,images/Ex9.jpg,right,reversed,easy,8,,,,,
,,,,,65d88c96834862408313a6c4,001,33,Male,Nigeria,B.Sc,2024-02-26_21h43.05.618,CRL1e,2023.2.3,Win32,58.82352941,65dbad3905fde4fe1981dc61,65dcf7514b7aacd5998af130,,,,,,364.7875,370.6042,space,5.807,,370.6524,1.1,371.7443,371.7446,374.1923,right,0,2.4386,,374.1926,375.1816,0,0,0,0,1,total,1,images/Ex13.jpg,left,training,easy,8,,,,,
,,,,,65d88c96834862408313a6c4,001,33,Male,Nigeria,B.Sc,2024-02-26_21h43.05.618,CRL1e,2023.2.3,Win32,58.82352941,65dbad3905fde4fe1981dc61,65dcf7514b7aacd5998af130,,,,,,,,,,,375.2203,1.3,376.5227,376.5229,377.3583,right,0,0.8263,,377.3591,378.3549,0,1,1,3,1,total,1,images/Ex14.jpg,left,training,easy,8,,,,,
,,,,,65d88c96834862408313a6c4,001,33,Male,Nigeria,B.Sc,2024-02-26_21h43.05.618,CRL1e,2023.2.3,Win32,58.82352941,65dbad3905fde4fe1981dc61,65dcf7514b7aacd5998af130,,,,,,,,,,,378.357,0.6,378.9543,378.9544,379.937,right,1,0.9743,,379.9373,380.9356,0,2,2,4,1,total,1,images/Ex15.jpg,right,training,easy,8,,,,,
,,,,,65d88c96834862408313a6c4,001,33,Male,Nigeria,B.Sc,2024-02-26_21h43.05.618,CRL1e,2023.2.3,Win32,58.82352941,65dbad3905fde4fe1981dc61,65dcf7514b7aacd5998af130,,,,,,,,,,,380.9376,1.4,382.3343,382.3345,383.1522,right,1,0.805,,383.1524,384.1495,0,3,3,6,1,total,1,images/Ex16.jpg,right,training,easy,8,,,,,
,,,,,65d88c96834862408313a6c4,001,33,Male,Nigeria,B.Sc,2024-02-26_21h43.05.618,CRL1e,2023.2.3,Win32,58.82352941,65dbad3905fde4fe1981dc61,65dcf7514b7aacd5998af130,,,,,,,,,,,384.1518,1.3,385.4473,385.4474,386.5667,left,0,1.1099,,386.567,387.5626,0,4,4,7,1,total,1,images/Ex16.jpg,right,training,easy,8,,,,,
,,,,,65d88c96834862408313a6c4,001,33,Male,Nigeria,B.Sc,2024-02-26_21h43.05.618,CRL1e,2023.2.3,Win32,58.82352941,65dbad3905fde4fe1981dc61,65dcf7514b7aacd5998af130,,,,,,,,,,,387.5652,1.1,388.6619,388.6621,390.5279,left,0,1.8557,,390.5281,391.5332,0,5,5,5,1,total,1,images/Ex15.jpg,right,training,easy,8,,,,,
,,,,,65d88c96834862408313a6c4,001,33,Male,Nigeria,B.Sc,2024-02-26_21h43.05.618,CRL1e,2023.2.3,Win32,58.82352941,65dbad3905fde4fe1981dc61,65dcf7514b7aacd5998af130,,,,,,,,,,,391.5726,1.4,392.9738,392.9739,394.1951,left,1,1.217,,394.1953,395.189,0,6,6,1,1,total,1,images/Ex13.jpg,left,training,easy,8,,,,,
,,,,,65d88c96834862408313a6c4,001,33,Male,Nigeria,B.Sc,2024-02-26_21h43.05.618,CRL1e,2023.2.3,Win32,58.82352941,65dbad3905fde4fe1981dc61,65dcf7514b7aacd5998af130,,,,,,,,,,,395.2253,1,396.221,396.2211,396.9057,left,1,0.6748,,396.9059,397.9036,0,7,7,2,1,total,1,images/Ex14.jpg,left,training,easy,8,,,,,
,,,,,65d88c96834862408313a6c4,001,33,Male,Nigeria,B.Sc,2024-02-26_21h43.05.618,CRL1e,2023.2.3,Win32,58.82352941,65dbad3905fde4fe1981dc61,65dcf7514b7aacd5998af130,,,,,,,,,,,397.9058,1,398.9023,398.9024,399.7629,right,0,0.8559,,399.7629,400.7668,1,0,8,2,1,total,1,images/Ex14.jpg,left,training,easy,8,,,,,
,,,,,65d88c96834862408313a6c4,001,33,Male,Nigeria,B.Sc,2024-02-26_21h43.05.618,CRL1e,2023.2.3,Win32,58.82352941,65dbad3905fde4fe1981dc61,65dcf7514b7aacd5998af130,,,,,,,,,,,400.7682,1,401.7658,401.7659,402.6013,right,1,0.8244,,402.6016,403.5977,1,1,9,6,1,total,1,images/Ex16.jpg,right,training,easy,8,,,,,
,,,,,65d88c96834862408313a6c4,001,33,Male,Nigeria,B.Sc,2024-02-26_21h43.05.618,CRL1e,2023.2.3,Win32,58.82352941,65dbad3905fde4fe1981dc61,65dcf7514b7aacd5998af130,,,,,,,,,,,403.5999,1.2,404.7968,404.7969,405.6329,left,0,0.8272,,405.633,406.6283,1,2,10,4,1,total,1,images/Ex15.jpg,right,training,easy,8,,,,,
,,,,,65d88c96834862408313a6c4,001,33,Male,Nigeria,B.Sc,2024-02-26_21h43.05.618,CRL1e,2023.2.3,Win32,58.82352941,65dbad3905fde4fe1981dc61,65dcf7514b7aacd5998af130,,,,,,,,,,,406.6311,1.4,408.0274,408.0275,408.7036,right,1,0.6713,,408.7037,409.6936,1,3,11,5,1,total,1,images/Ex15.jpg,right,training,easy,8,,,,,
,,,,,65d88c96834862408313a6c4,001,33,Male,Nigeria,B.Sc,2024-02-26_21h43.05.618,CRL1e,2023.2.3,Win32,58.82352941,65dbad3905fde4fe1981dc61,65dcf7514b7aacd5998af130,,,,,,,,,,,409.695,0.5,410.1905,410.1906,411.3901,left,1,1.1911,,411.3903,412.3886,1,4,12,1,1,total,1,images/Ex13.jpg,left,training,easy,8,,,,,
,,,,,65d88c96834862408313a6c4,001,33,Male,Nigeria,B.Sc,2024-02-26_21h43.05.618,CRL1e,2023.2.3,Win32,58.82352941,65dbad3905fde4fe1981dc61,65dcf7514b7aacd5998af130,,,,,,,,,,,412.3891,1.1,413.4875,413.4876,414.8714,right,1,1.373,,414.8716,415.8693,1,5,13,7,1,total,1,images/Ex16.jpg,right,training,easy,8,,,,,
,,,,,65d88c96834862408313a6c4,001,33,Male,Nigeria,B.Sc,2024-02-26_21h43.05.618,CRL1e,2023.2.3,Win32,58.82352941,65dbad3905fde4fe1981dc61,65dcf7514b7aacd5998af130,,,,,,,,,,,415.8706,0.6,416.4688,416.4689,417.4018,left,1,0.9239,,417.402,418.4004,1,6,14,3,1,total,1,images/Ex14.jpg,left,training,easy,8,,,,,
,,,,,65d88c96834862408313a6c4,001,33,Male,Nigeria,B.Sc,2024-02-26_21h43.05.618,CRL1e,2023.2.3,Win32,58.82352941,65dbad3905fde4fe1981dc61,65dcf7514b7aacd5998af130,,,,,,,,,,,418.4013,0.6,419,419.0002,420.2163,left,1,1.207,,420.2166,421.2209,1,7,15,0,1,total,1,images/Ex13.jpg,left,training,easy,8,,,,,
,,,,,65d88c96834862408313a6c4,001,33,Male,Nigeria,B.Sc,2024-02-26_21h43.05.618,CRL1e,2023.2.3,Win32,58.82352941,65dbad3905fde4fe1981dc61,65dcf7514b7aacd5998af130,,,,,,,,,,,421.2224,1.3,422.5136,422.5137,423.1557,left,1,0.638,,423.1558,424.1454,2,0,16,1,1,total,1,images/Ex13.jpg,left,training,easy,8,,,,,
,,,,,65d88c96834862408313a6c4,001,33,Male,Nigeria,B.Sc,2024-02-26_21h43.05.618,CRL1e,2023.2.3,Win32,58.82352941,65dbad3905fde4fe1981dc61,65dcf7514b7aacd5998af130,,,,,,,,,,,424.1468,1.4,425.5435,425.5436,426.661,left,1,1.1063,,426.6612,427.659,2,1,17,3,1,total,1,images/Ex14.jpg,left,training,easy,8,,,,,
,,,,,65d88c96834862408313a6c4,001,33,Male,Nigeria,B.Sc,2024-02-26_21h43.05.618,CRL1e,2023.2.3,Win32,58.82352941,65dbad3905fde4fe1981dc61,65dcf7514b7aacd5998af130,,,,,,,,,,,427.6611,1.2,428.8578,428.8581,429.4761,left,1,0.606,,429.4763,430.4723,2,2,18,2,1,total,1,images/Ex14.jpg,left,training,easy,8,,,,,
,,,,,65d88c96834862408313a6c4,001,33,Male,Nigeria,B.Sc,2024-02-26_21h43.05.618,CRL1e,2023.2.3,Win32,58.82352941,65dbad3905fde4fe1981dc61,65dcf7514b7aacd5998af130,,,,,,,,,,,430.474,0.6,431.0723,431.0725,431.8718,right,1,0.7903,,431.872,432.8703,2,3,19,5,1,total,1,images/Ex15.jpg,right,training,easy,8,,,,,
,,,,,65d88c96834862408313a6c4,001,33,Male,Nigeria,B.Sc,2024-02-26_21h43.05.618,CRL1e,2023.2.3,Win32,58.82352941,65dbad3905fde4fe1981dc61,65dcf7514b7aacd5998af130,,,,,,,,,,,432.8717,0.9,433.7695,433.7696,434.5228,right,1,0.7408,,434.523,435.5219,2,4,20,7,1,total,1,images/Ex16.jpg,right,training,easy,8,,,,,
,,,,,65d88c96834862408313a6c4,001,33,Male,Nigeria,B.Sc,2024-02-26_21h43.05.618,CRL1e,2023.2.3,Win32,58.82352941,65dbad3905fde4fe1981dc61,65dcf7514b7aacd5998af130,,,,,,,,,,,435.5232,1.3,436.8185,436.8191,437.7174,right,1,0.8887,,437.7179,438.7239,2,5,21,4,1,total,1,images/Ex15.jpg,right,training,easy,8,,,,,
,,,,,65d88c96834862408313a6c4,001,33,Male,Nigeria,B.Sc,2024-02-26_21h43.05.618,CRL1e,2023.2.3,Win32,58.82352941,65dbad3905fde4fe1981dc61,65dcf7514b7aacd5998af130,,,,,,,,,,,438.7251,0.8,439.5206,439.5208,440.4859,right,1,0.9602,,440.486,441.4791,2,6,22,6,1,total,1,images/Ex16.jpg,right,training,easy,8,,,,,
,,,,,65d88c96834862408313a6c4,001,33,Male,Nigeria,B.Sc,2024-02-26_21h43.05.618,CRL1e,2023.2.3,Win32,58.82352941,65dbad3905fde4fe1981dc61,65dcf7514b7aacd5998af130,,,,,,,,,,,441.481,1.2,442.6777,442.6778,443.32,left,1,0.6374,,443.3201,444.3096,2,7,23,0,1,total,1,images/Ex13.jpg,left,training,easy,8,,,,,
,,,,,65d88c96834862408313a6c4,001,33,Male,Nigeria,B.Sc,2024-02-26_21h43.05.618,CRL1e,2023.2.3,Win32,58.82352941,65dbad3905fde4fe1981dc61,65dcf7514b7aacd5998af130,,,,,,,,,,,444.3111,0.8,445.1089,445.109,445.9454,right,1,0.8266,,445.9455,446.9409,3,0,24,6,1,total,1,images/Ex16.jpg,right,training,easy,8,,,,,
,,,,,65d88c96834862408313a6c4,001,33,Male,Nigeria,B.Sc,2024-02-26_21h43.05.618,CRL1e,2023.2.3,Win32,58.82352941,65dbad3905fde4fe1981dc61,65dcf7514b7aacd5998af130,,,,,,,,,,,446.9435,0.8,447.7429,447.7429,448.4251,right,1,0.6713,,448.4253,449.4274,3,1,25,7,1,total,1,images/Ex16.jpg,right,training,easy,8,,,,,
,,,,,65d88c96834862408313a6c4,001,33,Male,Nigeria,B.Sc,2024-02-26_21h43.05.618,CRL1e,2023.2.3,Win32,58.82352941,65dbad3905fde4fe1981dc61,65dcf7514b7aacd5998af130,,,,,,,,,,,449.4286,1.5,450.921,450.9214,451.7577,left,1,0.8249,,451.758,452.7526,3,2,26,1,1,total,1,images/Ex13.jpg,left,training,easy,8,,,,,
,,,,,65d88c96834862408313a6c4,001,33,Male,Nigeria,B.Sc,2024-02-26_21h43.05.618,CRL1e,2023.2.3,Win32,58.82352941,65dbad3905fde4fe1981dc61,65dcf7514b7aacd5998af130,,,,,,,,,,,452.7542,1.5,454.2505,454.2506,455.0204,right,1,0.7582,,455.0207,456.0213,3,3,27,5,1,total,1,images/Ex15.jpg,right,training,easy,8,,,,,
,,,,,65d88c96834862408313a6c4,001,33,Male,Nigeria,B.Sc,2024-02-26_21h43.05.618,CRL1e,2023.2.3,Win32,58.82352941,65dbad3905fde4fe1981dc61,65dcf7514b7aacd5998af130,,,,,,,,,,,456.0226,1.1,457.1225,457.1226,457.8325,left,1,0.701,,457.8326,458.8376,3,4,28,0,1,total,1,images/Ex13.jpg,left,training,easy,8,,,,,
,,,,,65d88c96834862408313a6c4,001,33,Male,Nigeria,B.Sc,2024-02-26_21h43.05.618,CRL1e,2023.2.3,Win32,58.82352941,65dbad3905fde4fe1981dc61,65dcf7514b7aacd5998af130,,,,,,,,,,,458.8385,0.8,459.6376,459.6377,460.3548,left,1,0.713,,460.355,461.3436,3,5,29,2,1,total,1,images/Ex14.jpg,left,training,easy,8,,,,,
,,,,,65d88c96834862408313a6c4,001,33,Male,Nigeria,B.Sc,2024-02-26_21h43.05.618,CRL1e,2023.2.3,Win32,58.82352941,65dbad3905fde4fe1981dc61,65dcf7514b7aacd5998af130,,,,,,,,,,,461.3448,0.7,462.0431,462.0432,462.7844,right,1,0.7377,,462.7844,463.7746,3,6,30,4,1,total,1,images/Ex15.jpg,right,training,easy,8,,,,,
,,,,,65d88c96834862408313a6c4,001,33,Male,Nigeria,B.Sc,2024-02-26_21h43.05.618,CRL1e,2023.2.3,Win32,58.82352941,65dbad3905fde4fe1981dc61,65dcf7514b7aacd5998af130,,,,,,,,,,,463.7759,0.7,464.4737,464.4738,465.4077,right,0,0.9216,,465.4082,466.4057,3,7,31,3,1,total,1,images/Ex14.jpg,left,training,easy,8,,,,,
,,,,,65d88c96834862408313a6c4,001,33,Male,Nigeria,B.Sc,2024-02-26_21h43.05.618,CRL1e,2023.2.3,Win32,58.82352941,65dbad3905fde4fe1981dc61,65dcf7514b7aacd5998af130,,,,,,,,,,,466.4089,1.5,467.9044,467.9046,468.605,right,1,0.6907,,468.6052,469.6032,4,0,32,6,1,total,1,images/Ex16.jpg,right,training,easy,8,,,,,
,,,,,65d88c96834862408313a6c4,001,33,Male,Nigeria,B.Sc,2024-02-26_21h43.05.618,CRL1e,2023.2.3,Win32,58.82352941,65dbad3905fde4fe1981dc61,65dcf7514b7aacd5998af130,,,,,,,,,,,469.6058,1.2,470.8022,470.8024,471.4105,right,1,0.6032,,471.4106,472.4005,4,1,33,7,1,total,1,images/Ex16.jpg,right,training,easy,8,,,,,
,,,,,65d88c96834862408313a6c4,001,33,Male,Nigeria,B.Sc,2024-02-26_21h43.05.618,CRL1e,2023.2.3,Win32,58.82352941,65dbad3905fde4fe1981dc61,65dcf7514b7aacd5998af130,,,,,,,,,,,472.4017,1,473.3989,473.399,474.339,right,1,0.9375,,474.3391,475.3316,4,2,34,4,1,total,1,images/Ex15.jpg,right,training,easy,8,,,,,
,,,,,65d88c96834862408313a6c4,001,33,Male,Nigeria,B.Sc,2024-02-26_21h43.05.618,CRL1e,2023.2.3,Win32,58.82352941,65dbad3905fde4fe1981dc61,65dcf7514b7aacd5998af130,,,,,,,,,,,475.3341,0.8,476.131,476.1313,476.8378,left,1,0.7024,,476.8379,477.8287,4,3,35,1,1,total,1,images/Ex13.jpg,left,training,easy,8,,,,,
,,,,,65d88c96834862408313a6c4,001,33,Male,Nigeria,B.Sc,2024-02-26_21h43.05.618,CRL1e,2023.2.3,Win32,58.82352941,65dbad3905fde4fe1981dc61,65dcf7514b7aacd5998af130,,,,,,,,,,,477.8307,1.2,479.0278,479.0279,479.661,right,1,0.6213,,479.6613,480.6594,4,4,36,5,1,total,1,images/Ex15.jpg,right,training,easy,8,,,,,
,,,,,65d88c96834862408313a6c4,001,33,Male,Nigeria,B.Sc,2024-02-26_21h43.05.618,CRL1e,2023.2.3,Win32,58.82352941,65dbad3905fde4fe1981dc61,65dcf7514b7aacd5998af130,,,,,,,,,,,480.6619,1.3,481.9582,481.9583,482.5608,left,1,0.591,,482.5615,483.5565,4,5,37,3,1,total,1,images/Ex14.jpg,left,training,easy,8,,,,,
,,,,,65d88c96834862408313a6c4,001,33,Male,Nigeria,B.Sc,2024-02-26_21h43.05.618,CRL1e,2023.2.3,Win32,58.82352941,65dbad3905fde4fe1981dc61,65dcf7514b7aacd5998af130,,,,,,,,,,,483.5579,0.7,484.2557,484.2558,485.1913,left,1,0.9243,,485.1914,486.1873,4,6,38,0,1,total,1,images/Ex13.jpg,left,training,easy,8,,,,,
,,,,,65d88c96834862408313a6c4,001,33,Male,Nigeria,B.Sc,2024-02-26_21h43.05.618,CRL1e,2023.2.3,Win32,58.82352941,65dbad3905fde4fe1981dc61,65dcf7514b7aacd5998af130,,,,,,,,,,,486.1894,1,487.1864,487.1866,488.0419,left,1,0.8478,,488.0421,489.0415,4,7,39,2,1,total,1,images/Ex14.jpg,left,training,easy,8,,,,,
,,,,,65d88c96834862408313a6c4,001,33,Male,Nigeria,B.Sc,2024-02-26_21h43.05.618,CRL1e,2023.2.3,Win32,58.82352941,65dbad3905fde4fe1981dc61,65dcf7514b7aacd5998af130,,,,,,,,,,,489.0429,1.3,490.3336,490.3337,491.1512,right,1,0.8053,,491.1516,492.1487,5,0,40,4,1,total,1,images/Ex15.jpg,right,training,easy,8,,,,,
,,,,,65d88c96834862408313a6c4,001,33,Male,Nigeria,B.Sc,2024-02-26_21h43.05.618,CRL1e,2023.2.3,Win32,58.82352941,65dbad3905fde4fe1981dc61,65dcf7514b7aacd5998af130,,,,,,,,,,,492.1512,0.7,492.8397,492.8398,493.6378,left,1,0.7943,,493.6379,494.6293,5,1,41,2,1,total,1,images/Ex14.jpg,left,training,easy,8,,,,,
,,,,,65d88c96834862408313a6c4,001,33,Male,Nigeria,B.Sc,2024-02-26_21h43.05.618,CRL1e,2023.2.3,Win32,58.82352941,65dbad3905fde4fe1981dc61,65dcf7514b7aacd5998af130,,,,,,,,,,,494.631,0.7,495.3287,495.3288,496.0126,left,1,0.6726,,496.013,497.0109,5,2,42,3,1,total,1,images/Ex14.jpg,left,training,easy,8,,,,,
,,,,,65d88c96834862408313a6c4,001,33,Male,Nigeria,B.Sc,2024-02-26_21h43.05.618,CRL1e,2023.2.3,Win32,58.82352941,65dbad3905fde4fe1981dc61,65dcf7514b7aacd5998af130,,,,,,,,,,,497.0136,1.4,498.4098,498.4101,499.076,right,1,0.6547,,499.0764,500.0744,5,3,43,5,1,total,1,images/Ex15.jpg,right,training,easy,8,,,,,
,,,,,65d88c96834862408313a6c4,001,33,Male,Nigeria,B.Sc,2024-02-26_21h43.05.618,CRL1e,2023.2.3,Win32,58.82352941,65dbad3905fde4fe1981dc61,65dcf7514b7aacd5998af130,,,,,,,,,,,500.0764,0.8,500.8655,500.8656,501.5405,right,1,0.6645,,501.5412,502.5387,5,4,44,6,1,total,1,images/Ex16.jpg,right,training,easy,8,,,,,
,,,,,65d88c96834862408313a6c4,001,33,Male,Nigeria,B.Sc,2024-02-26_21h43.05.618,CRL1e,2023.2.3,Win32,58.82352941,65dbad3905fde4fe1981dc61,65dcf7514b7aacd5998af130,,,,,,,,,,,502.541,1.1,503.6377,503.6378,504.2741,right,1,0.6239,,504.2742,505.27,5,5,45,7,1,total,1,images/Ex16.jpg,right,training,easy,8,,,,,
,,,,,65d88c96834862408313a6c4,001,33,Male,Nigeria,B.Sc,2024-02-26_21h43.05.618,CRL1e,2023.2.3,Win32,58.82352941,65dbad3905fde4fe1981dc61,65dcf7514b7aacd5998af130,,,,,,,,,,,505.2724,1.5,506.7685,506.7686,507.4872,left,1,0.7056,,507.4874,508.4835,5,6,46,0,1,total,1,images/Ex13.jpg,left,training,easy,8,,,,,
,,,,,65d88c96834862408313a6c4,001,33,Male,Nigeria,B.Sc,2024-02-26_21h43.05.618,CRL1e,2023.2.3,Win32,58.82352941,65dbad3905fde4fe1981dc61,65dcf7514b7aacd5998af130,,,,,,,,,,,508.486,1.3,509.7913,509.7914,510.4588,left,1,0.6656,,510.459,511.447,5,7,47,1,1,total,1,images/Ex13.jpg,left,training,easy,8,,,,,
,,,,,65d88c96834862408313a6c4,001,33,Male,Nigeria,B.Sc,2024-02-26_21h43.05.618,CRL1e,2023.2.3,Win32,58.82352941,65dbad3905fde4fe1981dc61,65dcf7514b7aacd5998af130,,,,,,,,,,,511.4592,1.4,512.8621,512.8621,513.6323,left,0,0.7588,,513.6325,514.6274,0,0,0,3,1,total,2,images/Ex14.jpg,right,reversed,easy,8,,,,,
,,,,,65d88c96834862408313a6c4,001,33,Male,Nigeria,B.Sc,2024-02-26_21h43.05.618,CRL1e,2023.2.3,Win32,58.82352941,65dbad3905fde4fe1981dc61,65dcf7514b7aacd5998af130,,,,,,,,,,,514.6303,1,515.6265,515.6266,516.3756,right,0,0.7347,,516.3757,517.3745,0,1,1,6,1,total,2,images/Ex16.jpg,left,reversed,easy,8,,,,,
,,,,,65d88c96834862408313a6c4,001,33,Male,Nigeria,B.Sc,2024-02-26_21h43.05.618,CRL1e,2023.2.3,Win32,58.82352941,65dbad3905fde4fe1981dc61,65dcf7514b7aacd5998af130,,,,,,,,,,,517.3757,0.8,518.1736,518.1737,519.134,left,1,0.9564,,519.1341,520.138,0,2,2,5,1,total,2,images/Ex15.jpg,left,reversed,easy,8,,,,,
,,,,,65d88c96834862408313a6c4,001,33,Male,Nigeria,B.Sc,2024-02-26_21h43.05.618,CRL1e,2023.2.3,Win32,58.82352941,65dbad3905fde4fe1981dc61,65dcf7514b7aacd5998af130,,,,,,,,,,,520.1385,1.2,521.3377,521.3378,522.3722,left,1,1.0234,,522.3726,523.3732,0,3,3,4,1,total,2,images/Ex15.jpg,left,reversed,easy,8,,,,,
,,,,,65d88c96834862408313a6c4,001,33,Male,Nigeria,B.Sc,2024-02-26_21h43.05.618,CRL1e,2023.2.3,Win32,58.82352941,65dbad3905fde4fe1981dc61,65dcf7514b7aacd5998af130,,,,,,,,,,,523.3745,0.9,524.2692,524.2695,525.2434,left,1,0.9678,,525.2434,526.2327,0,4,4,7,1,total,2,images/Ex16.jpg,left,reversed,easy,8,,,,,
,,,,,65d88c96834862408313a6c4,001,33,Male,Nigeria,B.Sc,2024-02-26_21h43.05.618,CRL1e,2023.2.3,Win32,58.82352941,65dbad3905fde4fe1981dc61,65dcf7514b7aacd5998af130,,,,,,,,,,,526.234,0.7,526.932,526.9321,527.6498,right,1,0.708,,527.6502,528.648,0,5,5,1,1,total,2,images/Ex13.jpg,right,reversed,easy,8,,,,,
,,,,,65d88c96834862408313a6c4,001,33,Male,Nigeria,B.Sc,2024-02-26_21h43.05.618,CRL1e,2023.2.3,Win32,58.82352941,65dbad3905fde4fe1981dc61,65dcf7514b7aacd5998af130,,,,,,,,,,,528.6508,1.4,530.0535,530.0536,530.6489,right,1,0.5867,,530.6492,531.6517,0,6,6,0,1,total,2,images/Ex13.jpg,right,reversed,easy,8,,,,,
,,,,,65d88c96834862408313a6c4,001,33,Male,Nigeria,B.Sc,2024-02-26_21h43.05.618,CRL1e,2023.2.3,Win32,58.82352941,65dbad3905fde4fe1981dc61,65dcf7514b7aacd5998af130,,,,,,,,,,,531.6529,1.3,532.944,532.9442,533.6658,right,1,0.71,,533.6659,534.6585,0,7,7,2,1,total,2,images/Ex14.jpg,right,reversed,easy,8,,,,,
,,,,,65d88c96834862408313a6c4,001,33,Male,Nigeria,B.Sc,2024-02-26_21h43.05.618,CRL1e,2023.2.3,Win32,58.82352941,65dbad3905fde4fe1981dc61,65dcf7514b7aacd5998af130,,,,,,,,,,,534.6602,0.9,535.5576,535.5577,536.1578,right,1,0.592,,536.1582,537.1561,1,0,8,2,1,total,2,images/Ex14.jpg,right,reversed,easy,8,,,,,
,,,,,65d88c96834862408313a6c4,001,33,Male,Nigeria,B.Sc,2024-02-26_21h43.05.618,CRL1e,2023.2.3,Win32,58.82352941,65dbad3905fde4fe1981dc61,65dcf7514b7aacd5998af130,,,,,,,,,,,537.1574,1.2,538.3549,538.355,539.2243,right,1,0.8567,,539.2244,540.221,1,1,9,0,1,total,2,images/Ex13.jpg,right,reversed,easy,8,,,,,
,,,,,65d88c96834862408313a6c4,001,33,Male,Nigeria,B.Sc,2024-02-26_21h43.05.618,CRL1e,2023.2.3,Win32,58.82352941,65dbad3905fde4fe1981dc61,65dcf7514b7aacd5998af130,,,,,,,,,,,540.2232,0.5,540.7209,540.7211,541.5692,left,1,0.8416,,541.5698,542.5574,1,2,10,4,1,total,2,images/Ex15.jpg,left,reversed,easy,8,,,,,
,,,,,65d88c96834862408313a6c4,001,33,Male,Nigeria,B.Sc,2024-02-26_21h43.05.618,CRL1e,2023.2.3,Win32,58.82352941,65dbad3905fde4fe1981dc61,65dcf7514b7aacd5998af130,,,,,,,,,,,542.5586,1.1,543.6511,543.6512,544.3171,left,1,0.6573,,544.3173,545.3166,1,3,11,7,1,total,2,images/Ex16.jpg,left,reversed,easy,8,,,,,
,,,,,65d88c96834862408313a6c4,001,33,Male,Nigeria,B.Sc,2024-02-26_21h43.05.618,CRL1e,2023.2.3,Win32,58.82352941,65dbad3905fde4fe1981dc61,65dcf7514b7aacd5998af130,,,,,,,,,,,545.3184,0.7,546.0153,546.0154,546.6323,right,1,0.6096,,546.6327,547.631,1,4,12,3,1,total,2,images/Ex14.jpg,right,reversed,easy,8,,,,,
,,,,,65d88c96834862408313a6c4,001,33,Male,Nigeria,B.Sc,2024-02-26_21h43.05.618,CRL1e,2023.2.3,Win32,58.82352941,65dbad3905fde4fe1981dc61,65dcf7514b7aacd5998af130,,,,,,,,,,,547.6332,0.8,548.4302,548.4309,549.8293,left,1,1.3921,,549.8294,550.8269,1,5,13,6,1,total,2,images/Ex16.jpg,left,reversed,easy,8,,,,,
,,,,,65d88c96834862408313a6c4,001,33,Male,Nigeria,B.Sc,2024-02-26_21h43.05.618,CRL1e,2023.2.3,Win32,58.82352941,65dbad3905fde4fe1981dc61,65dcf7514b7aacd5998af130,,,,,,,,,,,550.8283,1.4,552.2256,552.2256,552.9781,left,1,0.7415,,552.9785,553.9778,1,6,14,5,1,total,2,images/Ex15.jpg,left,reversed,easy,8,,,,,
,,,,,65d88c96834862408313a6c4,001,33,Male,Nigeria,B.Sc,2024-02-26_21h43.05.618,CRL1e,2023.2.3,Win32,58.82352941,65dbad3905fde4fe1981dc61,65dcf7514b7aacd5998af130,,,,,,,,,,,553.9791,0.9,554.8735,554.8737,557.5909,right,1,2.7072,,557.5911,558.5868,1,7,15,1,1,total,2,images/Ex13.jpg,right,reversed,easy,8,,,,,
,,,,,65d88c96834862408313a6c4,001,33,Male,Nigeria,B.Sc,2024-02-26_21h43.05.618,CRL1e,2023.2.3,Win32,58.82352941,65dbad3905fde4fe1981dc61,65dcf7514b7aacd5998af130,,,,,,,,,,,558.6379,1.1,559.7354,559.7354,560.6228,right,1,0.8817,,560.6229,561.618,2,0,16,3,1,total,2,images/Ex14.jpg,right,reversed,easy,8,,,,,
,,,,,65d88c96834862408313a6c4,001,33,Male,Nigeria,B.Sc,2024-02-26_21h43.05.618,CRL1e,2023.2.3,Win32,58.82352941,65dbad3905fde4fe1981dc61,65dcf7514b7aacd5998af130,,,,,,,,,,,561.6198,0.5,562.1242,562.1243,562.7346,right,1,0.6038,,562.7349,563.7376,2,1,17,2,1,total,2,images/Ex14.jpg,right,reversed,easy,8,,,,,
,,,,,65d88c96834862408313a6c4,001,33,Male,Nigeria,B.Sc,2024-02-26_21h43.05.618,CRL1e,2023.2.3,Win32,58.82352941,65dbad3905fde4fe1981dc61,65dcf7514b7aacd5998af130,,,,,,,,,,,563.7391,1.3,565.0372,565.0373,567.5962,left,1,2.5485,,567.5973,568.5938,2,2,18,5,1,total,2,images/Ex15.jpg,left,reversed,easy,8,,,,,
,,,,,65d88c96834862408313a6c4,001,33,Male,Nigeria,B.Sc,2024-02-26_21h43.05.618,CRL1e,2023.2.3,Win32,58.82352941,65dbad3905fde4fe1981dc61,65dcf7514b7aacd5998af130,,,,,,,,,,,568.6322,0.5,569.1278,569.1281,570.2974,left,0,1.1641,,570.2975,571.2987,2,3,19,1,1,total,2,images/Ex13.jpg,right,reversed,easy,8,,,,,
,,,,,65d88c96834862408313a6c4,001,33,Male,Nigeria,B.Sc,2024-02-26_21h43.05.618,CRL1e,2023.2.3,Win32,58.82352941,65dbad3905fde4fe1981dc61,65dcf7514b7aacd5998af130,,,,,,,,,,,571.3003,1,572.2974,572.2976,573.1922,left,1,0.8886,,573.1924,574.1888,2,4,20,6,1,total,2,images/Ex16.jpg,left,reversed,easy,8,,,,,
,,,,,65d88c96834862408313a6c4,001,33,Male,Nigeria,B.Sc,2024-02-26_21h43.05.618,CRL1e,2023.2.3,Win32,58.82352941,65dbad3905fde4fe1981dc61,65dcf7514b7aacd5998af130,,,,,,,,,,,574.1915,0.8,574.9797,574.9798,575.8883,right,1,0.9052,,575.8884,576.886,2,5,21,0,1,total,2,images/Ex13.jpg,right,reversed,easy,8,,,,,
,,,,,65d88c96834862408313a6c4,001,33,Male,Nigeria,B.Sc,2024-02-26_21h43.05.618,CRL1e,2023.2.3,Win32,58.82352941,65dbad3905fde4fe1981dc61,65dcf7514b7aacd5998af130,,,,,,,,,,,576.8874,1.5,578.3845,578.3845,579.6758,left,1,1.288,,579.6759,580.6655,2,6,22,4,1,total,2,images/Ex15.jpg,left,reversed,easy,8,,,,,
,,,,,65d88c96834862408313a6c4,001,33,Male,Nigeria,B.Sc,2024-02-26_21h43.05.618,CRL1e,2023.2.3,Win32,58.82352941,65dbad3905fde4fe1981dc61,65dcf7514b7aacd5998af130,,,,,,,,,,,580.6667,1,581.6658,581.6659,582.7663,left,1,1.0937,,582.7671,583.7629,2,7,23,7,1,total,2,images/Ex16.jpg,left,reversed,easy,8,,,,,
,,,,,65d88c96834862408313a6c4,001,33,Male,Nigeria,B.Sc,2024-02-26_21h43.05.618,CRL1e,2023.2.3,Win32,58.82352941,65dbad3905fde4fe1981dc61,65dcf7514b7aacd5998af130,,,,,,,,,,,583.7652,0.8,584.5622,584.5623,585.4141,left,1,0.8383,,585.4143,586.4112,3,0,24,5,1,total,2,images/Ex15.jpg,left,reversed,easy,8,,,,,
,,,,,65d88c96834862408313a6c4,001,33,Male,Nigeria,B.Sc,2024-02-26_21h43.05.618,CRL1e,2023.2.3,Win32,58.82352941,65dbad3905fde4fe1981dc61,65dcf7514b7aacd5998af130,,,,,,,,,,,586.4133,0.6,587.0167,587.0168,587.861,right,1,0.8338,,587.8615,588.8581,3,1,25,1,1,total,2,images/Ex13.jpg,right,reversed,easy,8,,,,,
,,,,,65d88c96834862408313a6c4,001,33,Male,Nigeria,B.Sc,2024-02-26_21h43.05.618,CRL1e,2023.2.3,Win32,58.82352941,65dbad3905fde4fe1981dc61,65dcf7514b7aacd5998af130,,,,,,,,,,,588.861,0.6,589.4662,589.4663,590.3159,left,1,0.8463,,590.316,591.3057,3,2,26,7,1,total,2,images/Ex16.jpg,left,reversed,easy,8,,,,,
,,,,,65d88c96834862408313a6c4,001,33,Male,Nigeria,B.Sc,2024-02-26_21h43.05.618,CRL1e,2023.2.3,Win32,58.82352941,65dbad3905fde4fe1981dc61,65dcf7514b7aacd5998af130,,,,,,,,,,,591.3072,1.2,592.5045,592.5046,593.7224,right,0,1.2073,,593.7226,594.7195,3,3,27,6,1,total,2,images/Ex16.jpg,left,reversed,easy,8,,,,,
,,,,,65d88c96834862408313a6c4,001,33,Male,Nigeria,B.Sc,2024-02-26_21h43.05.618,CRL1e,2023.2.3,Win32,58.82352941,65dbad3905fde4fe1981dc61,65dcf7514b7aacd5998af130,,,,,,,,,,,594.7216,1,595.7263,595.7265,597.5038,left,1,1.7725,,597.5039,598.4992,3,4,28,4,1,total,2,images/Ex15.jpg,left,reversed,easy,8,,,,,
,,,,,65d88c96834862408313a6c4,001,33,Male,Nigeria,B.Sc,2024-02-26_21h43.05.618,CRL1e,2023.2.3,Win32,58.82352941,65dbad3905fde4fe1981dc61,65dcf7514b7aacd5998af130,,,,,,,,,,,598.5381,1.2,599.7319,599.732,600.7206,right,1,0.9829,,600.7207,601.7127,3,5,29,3,1,total,2,images/Ex14.jpg,right,reversed,easy,8,,,,,
,,,,,65d88c96834862408313a6c4,001,33,Male,Nigeria,B.Sc,2024-02-26_21h43.05.618,CRL1e,2023.2.3,Win32,58.82352941,65dbad3905fde4fe1981dc61,65dcf7514b7aacd5998af130,,,,,,,,,,,601.7151,1.4,603.1119,603.112,605.8118,left,0,2.6915,,605.8119,606.8085,3,6,30,0,1,total,2,images/Ex13.jpg,right,reversed,easy,8,,,,,
,,,,,65d88c96834862408313a6c4,001,33,Male,Nigeria,B.Sc,2024-02-26_21h43.05.618,CRL1e,2023.2.3,Win32,58.82352941,65dbad3905fde4fe1981dc61,65dcf7514b7aacd5998af130,,,,,,,,,,,606.8582,1.4,608.2568,608.2569,609.1081,right,1,0.8413,,609.1084,610.105,3,7,31,2,1,total,2,images/Ex14.jpg,right,reversed,easy,8,,,,,
,,,,,65d88c96834862408313a6c4,001,33,Male,Nigeria,B.Sc,2024-02-26_21h43.05.618,CRL1e,2023.2.3,Win32,58.82352941,65dbad3905fde4fe1981dc61,65dcf7514b7aacd5998af130,,,,,,,,,,,610.1074,0.9,611.0041,611.0043,613.1875,left,1,2.1709,,613.1879,614.1847,4,0,32,5,1,total,2,images/Ex15.jpg,left,reversed,easy,8,,,,,
,,,,,65d88c96834862408313a6c4,001,33,Male,Nigeria,B.Sc,2024-02-26_21h43.05.618,CRL1e,2023.2.3,Win32,58.82352941,65dbad3905fde4fe1981dc61,65dcf7514b7aacd5998af130,,,,,,,,,,,614.2268,1.1,615.3171,615.3173,616.1186,left,1,0.792,,616.1187,617.1152,4,1,33,6,1,total,2,images/Ex16.jpg,left,reversed,easy,8,,,,,
,,,,,65d88c96834862408313a6c4,001,33,Male,Nigeria,B.Sc,2024-02-26_21h43.05.618,CRL1e,2023.2.3,Win32,58.82352941,65dbad3905fde4fe1981dc61,65dcf7514b7aacd5998af130,,,,,,,,,,,617.1167,0.6,617.715,617.7151,618.5317,right,1,0.8121,,618.5321,619.5295,4,2,34,0,1,total,2,images/Ex13.jpg,right,reversed,easy,8,,,,,
,,,,,65d88c96834862408313a6c4,001,33,Male,Nigeria,B.Sc,2024-02-26_21h43.05.618,CRL1e,2023.2.3,Win32,58.82352941,65dbad3905fde4fe1981dc61,65dcf7514b7aacd5998af130,,,,,,,,,,,619.532,1,620.5285,620.5287,621.1135,right,1,0.5759,,621.1139,622.1108,4,3,35,1,1,total,2,images/Ex13.jpg,right,reversed,easy,8,,,,,
,,,,,65d88c96834862408313a6c4,001,33,Male,Nigeria,B.Sc,2024-02-26_21h43.05.618,CRL1e,2023.2.3,Win32,58.82352941,65dbad3905fde4fe1981dc61,65dcf7514b7aacd5998af130,,,,,,,,,,,622.1131,1.1,623.2096,623.2097,624.2438,right,1,1.0231,,624.2441,625.2413,4,4,36,3,1,total,2,images/Ex14.jpg,right,reversed,easy,8,,,,,
,,,,,65d88c96834862408313a6c4,001,33,Male,Nigeria,B.Sc,2024-02-26_21h43.05.618,CRL1e,2023.2.3,Win32,58.82352941,65dbad3905fde4fe1981dc61,65dcf7514b7aacd5998af130,,,,,,,,,,,625.2436,0.8,626.0406,626.0408,626.8567,left,1,0.8065,,626.8568,627.8549,4,5,37,7,1,total,2,images/Ex16.jpg,left,reversed,easy,8,,,,,
,,,,,65d88c96834862408313a6c4,001,33,Male,Nigeria,B.Sc,2024-02-26_21h43.05.618,CRL1e,2023.2.3,Win32,58.82352941,65dbad3905fde4fe1981dc61,65dcf7514b7aacd5998af130,,,,,,,,,,,627.8562,0.7,628.5543,628.5544,629.1627,right,1,0.6044,,629.1628,630.1523,4,6,38,2,1,total,2,images/Ex14.jpg,right,reversed,easy,8,,,,,
,,,,,65d88c96834862408313a6c4,001,33,Male,Nigeria,B.Sc,2024-02-26_21h43.05.618,CRL1e,2023.2.3,Win32,58.82352941,65dbad3905fde4fe1981dc61,65dcf7514b7aacd5998af130,,,,,,,,,,,630.1535,1.1,631.2515,631.2516,632.4769,left,1,1.2223,,632.4771,633.4662,4,7,39,4,1,total,2,images/Ex15.jpg,left,reversed,easy,8,,,,,
,,,,,65d88c96834862408313a6c4,001,33,Male,Nigeria,B.Sc,2024-02-26_21h43.05.618,CRL1e,2023.2.3,Win32,58.82352941,65dbad3905fde4fe1981dc61,65dcf7514b7aacd5998af130,,,,,,,,,,,633.4674,1,634.4653,634.4655,635.2003,left,1,0.7226,,635.2008,636.2036,5,0,40,4,1,total,2,images/Ex15.jpg,left,reversed,easy,8,,,,,
,,,,,65d88c96834862408313a6c4,001,33,Male,Nigeria,B.Sc,2024-02-26_21h43.05.618,CRL1e,2023.2.3,Win32,58.82352941,65dbad3905fde4fe1981dc61,65dcf7514b7aacd5998af130,,,,,,,,,,,636.2047,0.9,637.0962,637.0963,638.1327,left,1,1.0244,,638.1328,639.1279,5,1,41,5,1,total,2,images/Ex15.jpg,left,reversed,easy,8,,,,,
,,,,,65d88c96834862408313a6c4,001,33,Male,Nigeria,B.Sc,2024-02-26_21h43.05.618,CRL1e,2023.2.3,Win32,58.82352941,65dbad3905fde4fe1981dc61,65dcf7514b7aacd5998af130,,,,,,,,,,,639.1308,1.1,640.234,640.2341,641.0003,left,1,0.763,,641.0003,641.9924,5,2,42,7,1,total,2,images/Ex16.jpg,left,reversed,easy,8,,,,,
,,,,,65d88c96834862408313a6c4,001,33,Male,Nigeria,B.Sc,2024-02-26_21h43.05.618,CRL1e,2023.2.3,Win32,58.82352941,65dbad3905fde4fe1981dc61,65dcf7514b7aacd5998af130,,,,,,,,,,,641.9945,0.7,642.6985,642.6987,643.5407,right,1,0.8326,,643.5408,644.5288,5,3,43,1,1,total,2,images/Ex13.jpg,right,reversed,easy,8,,,,,
,,,,,65d88c96834862408313a6c4,001,33,Male,Nigeria,B.Sc,2024-02-26_21h43.05.618,CRL1e,2023.2.3,Win32,58.82352941,65dbad3905fde4fe1981dc61,65dcf7514b7aacd5998af130,,,,,,,,,,,644.5304,1.1,645.6222,645.6223,646.1728,right,1,0.5385,,646.173,647.1621,5,4,44,3,1,total,2,images/Ex14.jpg,right,reversed,easy,8,,,,,
,,,,,65d88c96834862408313a6c4,001,33,Male,Nigeria,B.Sc,2024-02-26_21h43.05.618,CRL1e,2023.2.3,Win32,58.82352941,65dbad3905fde4fe1981dc61,65dcf7514b7aacd5998af130,,,,,,,,,,,647.1632,0.9,648.063,648.0631,648.8544,left,1,0.7812,,648.8545,649.8515,5,5,45,6,1,total,2,images/Ex16.jpg,left,reversed,easy,8,,,,,
,,,,,65d88c96834862408313a6c4,001,33,Male,Nigeria,B.Sc,2024-02-26_21h43.05.618,CRL1e,2023.2.3,Win32,58.82352941,65dbad3905fde4fe1981dc61,65dcf7514b7aacd5998af130,,,,,,,,,,,649.8538,0.8,650.6511,650.6512,651.5754,right,1,0.9196,,651.5755,652.5655,5,6,46,0,1,total,2,images/Ex13.jpg,right,reversed,easy,8,,,,,
,,,,,65d88c96834862408313a6c4,001,33,Male,Nigeria,B.Sc,2024-02-26_21h43.05.618,CRL1e,2023.2.3,Win32,58.82352941,65dbad3905fde4fe1981dc61,65dcf7514b7aacd5998af130,,,,,,,,,,,652.5669,0.7,653.2649,653.2652,654.1832,right,1,0.913,,654.1833,655.1794,5,7,47,2,1,total,2,images/Ex14.jpg,right,reversed,easy,8,,,,,
,,,,,65d88c96834862408313a6c4,001,33,Male,Nigeria,B.Sc,2024-02-26_21h43.05.618,CRL1e,2023.2.3,Win32,58.82352941,65dbad3905fde4fe1981dc61,65dcf7514b7aacd5998af130,,,,,,,,,,,,,,,,,,,,,,,,,,,,,,,,,,655.1832,685.4707,space,30.2008,