infCons.started,infCons.stopped,resp_consent.keys,resp_consent.rt,resp_consent.duration,participant,session,Age?,Gender?,Nationality?,Highest Educational Degree?,date,expName,psychopyVersion,OS,frameRate,STUDY_ID,SESSION_ID,instructions.started,instructions.stopped,resp_instructions.keys,resp_instructions.rt,resp_instructions.duration,nextTask.started,nextTask.stopped,ready_task.keys,ready_task.rt,ready_task.duration,fixation.started,ITI,fixation.stopped,stim.started,stim.stopped,response.keys,response.corr,response.rt,response.duration,feedback.started,feedback.stopped,trials.thisRepN,trials.thisTrialN,trials.thisN,trials.thisIndex,trials.ran,task,phase,Exemplars,r_correct,condition,difficulty,set,end.started,end.stopped,resp_end.keys,resp_end.rt,resp_end.duration
0.001,22.767,space,22.697,,562cd833733ea000111632ba,001,65,Female,British,Bec,2024-03-06_12h16.58.152,CRL1h,2023.2.3,MacIntel,71.42857143,65e67470ae2fbf2172c317b2,65e85e5da2ad759c8da840e0,,,,,,,,,,,,,,,,,,,,,,,,,,,,,,,,,,,,,,
,,,,,562cd833733ea000111632ba,001,65,Female,British,Bec,2024-03-06_12h16.58.152,CRL1h,2023.2.3,MacIntel,71.42857143,65e67470ae2fbf2172c317b2,65e85e5da2ad759c8da840e0,22.767,39.173,space,16.376,,,,,,,,,,,,,,,,,,,,,,,,,,,,,,,,,,
,,,,,562cd833733ea000111632ba,001,65,Female,British,Bec,2024-03-06_12h16.58.152,CRL1h,2023.2.3,MacIntel,71.42857143,65e67470ae2fbf2172c317b2,65e85e5da2ad759c8da840e0,,,,,,39.178,41.554,space,2.363,,41.557,1.4,42.954,42.954,63.208,right,1,20.234,,63.209,64.205,0,0,0,6,1,total,1,images/Ex7.jpg,right,training,hard,2,,,,,
,,,,,562cd833733ea000111632ba,001,65,Female,British,Bec,2024-03-06_12h16.58.152,CRL1h,2023.2.3,MacIntel,71.42857143,65e67470ae2fbf2172c317b2,65e85e5da2ad759c8da840e0,,,,,,,,,,,64.205,1,65.205,65.205,68.605,left,0,3.392,,68.605,69.605,0,1,1,13,1,total,1,images/Ex6.jpg,right,training,hard,2,,,,,
,,,,,562cd833733ea000111632ba,001,65,Female,British,Bec,2024-03-06_12h16.58.152,CRL1h,2023.2.3,MacIntel,71.42857143,65e67470ae2fbf2172c317b2,65e85e5da2ad759c8da840e0,,,,,,,,,,,69.605,1.1,70.705,70.705,74.325,right,1,3.613,,74.325,75.322,0,2,2,12,1,total,1,images/Ex5.jpg,right,training,hard,2,,,,,
,,,,,562cd833733ea000111632ba,001,65,Female,British,Bec,2024-03-06_12h16.58.152,CRL1h,2023.2.3,MacIntel,71.42857143,65e67470ae2fbf2172c317b2,65e85e5da2ad759c8da840e0,,,,,,,,,,,75.322,0.6,75.922,75.922,77.675,left,1,1.736,,77.675,78.672,0,3,3,0,1,total,1,images/Ex1.jpg,left,training,hard,2,,,,,
,,,,,562cd833733ea000111632ba,001,65,Female,British,Bec,2024-03-06_12h16.58.152,CRL1h,2023.2.3,MacIntel,71.42857143,65e67470ae2fbf2172c317b2,65e85e5da2ad759c8da840e0,,,,,,,,,,,78.672,1,79.672,79.672,81.622,left,0,1.942,,81.622,82.622,0,4,4,4,1,total,1,images/Ex5.jpg,right,training,hard,2,,,,,
,,,,,562cd833733ea000111632ba,001,65,Female,British,Bec,2024-03-06_12h16.58.152,CRL1h,2023.2.3,MacIntel,71.42857143,65e67470ae2fbf2172c317b2,65e85e5da2ad759c8da840e0,,,,,,,,,,,82.622,1.4,84.022,84.022,85.092,right,0,1.053,,85.092,86.088,0,5,5,2,1,total,1,images/Ex3.jpg,left,training,hard,2,,,,,
,,,,,562cd833733ea000111632ba,001,65,Female,British,Bec,2024-03-06_12h16.58.152,CRL1h,2023.2.3,MacIntel,71.42857143,65e67470ae2fbf2172c317b2,65e85e5da2ad759c8da840e0,,,,,,,,,,,86.089,1.1,87.189,87.189,88.455,left,0,1.259,,88.455,89.456,0,6,6,7,1,total,1,images/Ex8.jpg,right,training,hard,2,,,,,
,,,,,562cd833733ea000111632ba,001,65,Female,British,Bec,2024-03-06_12h16.58.152,CRL1h,2023.2.3,MacIntel,71.42857143,65e67470ae2fbf2172c317b2,65e85e5da2ad759c8da840e0,,,,,,,,,,,89.456,0.5,89.955,89.955,90.992,left,1,1.019,,90.992,91.989,0,7,7,11,1,total,1,images/Ex4.jpg,left,training,hard,2,,,,,
,,,,,562cd833733ea000111632ba,001,65,Female,British,Bec,2024-03-06_12h16.58.152,CRL1h,2023.2.3,MacIntel,71.42857143,65e67470ae2fbf2172c317b2,65e85e5da2ad759c8da840e0,,,,,,,,,,,91.989,1.4,93.389,93.389,94.622,right,1,1.226,,94.622,95.622,0,8,8,14,1,total,1,images/Ex7.jpg,right,training,hard,2,,,,,
,,,,,562cd833733ea000111632ba,001,65,Female,British,Bec,2024-03-06_12h16.58.152,CRL1h,2023.2.3,MacIntel,71.42857143,65e67470ae2fbf2172c317b2,65e85e5da2ad759c8da840e0,,,,,,,,,,,95.622,1.4,97.022,97.022,98.139,right,0,1.102,,98.139,99.139,0,9,9,1,1,total,1,images/Ex2.jpg,left,training,hard,2,,,,,
,,,,,562cd833733ea000111632ba,001,65,Female,British,Bec,2024-03-06_12h16.58.152,CRL1h,2023.2.3,MacIntel,71.42857143,65e67470ae2fbf2172c317b2,65e85e5da2ad759c8da840e0,,,,,,,,,,,99.139,1.2,100.339,100.339,101.209,left,0,0.854,,101.209,102.206,0,10,10,5,1,total,1,images/Ex6.jpg,right,training,hard,2,,,,,
,,,,,562cd833733ea000111632ba,001,65,Female,British,Bec,2024-03-06_12h16.58.152,CRL1h,2023.2.3,MacIntel,71.42857143,65e67470ae2fbf2172c317b2,65e85e5da2ad759c8da840e0,,,,,,,,,,,102.206,1.1,103.306,103.306,104.327,left,1,1.009,,104.327,105.323,0,11,11,3,1,total,1,images/Ex4.jpg,left,training,hard,2,,,,,
,,,,,562cd833733ea000111632ba,001,65,Female,British,Bec,2024-03-06_12h16.58.152,CRL1h,2023.2.3,MacIntel,71.42857143,65e67470ae2fbf2172c317b2,65e85e5da2ad759c8da840e0,,,,,,,,,,,105.323,1,106.323,106.323,107.125,left,0,0.795,,107.125,108.123,0,12,12,15,1,total,1,images/Ex8.jpg,right,training,hard,2,,,,,
,,,,,562cd833733ea000111632ba,001,65,Female,British,Bec,2024-03-06_12h16.58.152,CRL1h,2023.2.3,MacIntel,71.42857143,65e67470ae2fbf2172c317b2,65e85e5da2ad759c8da840e0,,,,,,,,,,,108.123,0.5,108.623,108.623,109.475,right,0,0.844,,109.475,110.473,0,13,13,10,1,total,1,images/Ex3.jpg,left,training,hard,2,,,,,
,,,,,562cd833733ea000111632ba,001,65,Female,British,Bec,2024-03-06_12h16.58.152,CRL1h,2023.2.3,MacIntel,71.42857143,65e67470ae2fbf2172c317b2,65e85e5da2ad759c8da840e0,,,,,,,,,,,110.473,1.3,111.773,111.773,113.195,right,0,1.409,,113.195,114.189,0,14,14,9,1,total,1,images/Ex2.jpg,left,training,hard,2,,,,,
,,,,,562cd833733ea000111632ba,001,65,Female,British,Bec,2024-03-06_12h16.58.152,CRL1h,2023.2.3,MacIntel,71.42857143,65e67470ae2fbf2172c317b2,65e85e5da2ad759c8da840e0,,,,,,,,,,,114.19,1,115.189,115.19,116.023,left,1,0.826,,116.023,117.023,0,15,15,8,1,total,1,images/Ex1.jpg,left,training,hard,2,,,,,
,,,,,562cd833733ea000111632ba,001,65,Female,British,Bec,2024-03-06_12h16.58.152,CRL1h,2023.2.3,MacIntel,71.42857143,65e67470ae2fbf2172c317b2,65e85e5da2ad759c8da840e0,,,,,,,,,,,117.023,1.3,118.323,118.323,119.123,left,0,0.786,,119.123,120.123,1,0,16,13,1,total,1,images/Ex6.jpg,right,training,hard,2,,,,,
,,,,,562cd833733ea000111632ba,001,65,Female,British,Bec,2024-03-06_12h16.58.152,CRL1h,2023.2.3,MacIntel,71.42857143,65e67470ae2fbf2172c317b2,65e85e5da2ad759c8da840e0,,,,,,,,,,,120.123,0.5,120.623,120.623,121.74,right,1,1.11,,121.74,122.74,1,1,17,12,1,total,1,images/Ex5.jpg,right,training,hard,2,,,,,
,,,,,562cd833733ea000111632ba,001,65,Female,British,Bec,2024-03-06_12h16.58.152,CRL1h,2023.2.3,MacIntel,71.42857143,65e67470ae2fbf2172c317b2,65e85e5da2ad759c8da840e0,,,,,,,,,,,122.74,0.5,123.239,123.239,124.842,right,0,1.586,,124.842,125.839,1,2,18,1,1,total,1,images/Ex2.jpg,left,training,hard,2,,,,,
,,,,,562cd833733ea000111632ba,001,65,Female,British,Bec,2024-03-06_12h16.58.152,CRL1h,2023.2.3,MacIntel,71.42857143,65e67470ae2fbf2172c317b2,65e85e5da2ad759c8da840e0,,,,,,,,,,,125.839,0.6,126.439,126.439,127.523,left,0,1.076,,127.523,128.523,1,3,19,14,1,total,1,images/Ex7.jpg,right,training,hard,2,,,,,
,,,,,562cd833733ea000111632ba,001,65,Female,British,Bec,2024-03-06_12h16.58.152,CRL1h,2023.2.3,MacIntel,71.42857143,65e67470ae2fbf2172c317b2,65e85e5da2ad759c8da840e0,,,,,,,,,,,128.523,0.7,129.223,129.223,130.106,left,1,0.876,,130.106,131.106,1,4,20,2,1,total,1,images/Ex3.jpg,left,training,hard,2,,,,,
,,,,,562cd833733ea000111632ba,001,65,Female,British,Bec,2024-03-06_12h16.58.152,CRL1h,2023.2.3,MacIntel,71.42857143,65e67470ae2fbf2172c317b2,65e85e5da2ad759c8da840e0,,,,,,,,,,,131.106,1.2,132.307,132.307,133.343,left,0,1.02,,133.343,134.34,1,5,21,4,1,total,1,images/Ex5.jpg,right,training,hard,2,,,,,
,,,,,562cd833733ea000111632ba,001,65,Female,British,Bec,2024-03-06_12h16.58.152,CRL1h,2023.2.3,MacIntel,71.42857143,65e67470ae2fbf2172c317b2,65e85e5da2ad759c8da840e0,,,,,,,,,,,134.34,1.5,135.839,135.839,136.69,right,0,0.843,,136.69,137.69,1,6,22,8,1,total,1,images/Ex1.jpg,left,training,hard,2,,,,,
,,,,,562cd833733ea000111632ba,001,65,Female,British,Bec,2024-03-06_12h16.58.152,CRL1h,2023.2.3,MacIntel,71.42857143,65e67470ae2fbf2172c317b2,65e85e5da2ad759c8da840e0,,,,,,,,,,,137.69,1.4,139.09,139.09,139.857,left,1,0.758,,139.857,140.857,1,7,23,0,1,total,1,images/Ex1.jpg,left,training,hard,2,,,,,
,,,,,562cd833733ea000111632ba,001,65,Female,British,Bec,2024-03-06_12h16.58.152,CRL1h,2023.2.3,MacIntel,71.42857143,65e67470ae2fbf2172c317b2,65e85e5da2ad759c8da840e0,,,,,,,,,,,140.857,0.6,141.457,141.457,142.81,left,1,1.337,,142.81,143.807,1,8,24,11,1,total,1,images/Ex4.jpg,left,training,hard,2,,,,,
,,,,,562cd833733ea000111632ba,001,65,Female,British,Bec,2024-03-06_12h16.58.152,CRL1h,2023.2.3,MacIntel,71.42857143,65e67470ae2fbf2172c317b2,65e85e5da2ad759c8da840e0,,,,,,,,,,,143.807,1.4,145.207,145.207,145.79,left,1,0.57,,145.79,146.79,1,9,25,3,1,total,1,images/Ex4.jpg,left,training,hard,2,,,,,
,,,,,562cd833733ea000111632ba,001,65,Female,British,Bec,2024-03-06_12h16.58.152,CRL1h,2023.2.3,MacIntel,71.42857143,65e67470ae2fbf2172c317b2,65e85e5da2ad759c8da840e0,,,,,,,,,,,146.791,0.5,147.29,147.29,148.224,left,0,0.926,,148.224,149.224,1,10,26,6,1,total,1,images/Ex7.jpg,right,training,hard,2,,,,,
,,,,,562cd833733ea000111632ba,001,65,Female,British,Bec,2024-03-06_12h16.58.152,CRL1h,2023.2.3,MacIntel,71.42857143,65e67470ae2fbf2172c317b2,65e85e5da2ad759c8da840e0,,,,,,,,,,,149.224,1,150.224,150.224,151.457,left,0,1.22,,151.457,152.457,1,11,27,5,1,total,1,images/Ex6.jpg,right,training,hard,2,,,,,
,,,,,562cd833733ea000111632ba,001,65,Female,British,Bec,2024-03-06_12h16.58.152,CRL1h,2023.2.3,MacIntel,71.42857143,65e67470ae2fbf2172c317b2,65e85e5da2ad759c8da840e0,,,,,,,,,,,152.458,0.7,153.157,153.157,154.157,left,0,0.993,,154.157,155.157,1,12,28,15,1,total,1,images/Ex8.jpg,right,training,hard,2,,,,,
,,,,,562cd833733ea000111632ba,001,65,Female,British,Bec,2024-03-06_12h16.58.152,CRL1h,2023.2.3,MacIntel,71.42857143,65e67470ae2fbf2172c317b2,65e85e5da2ad759c8da840e0,,,,,,,,,,,155.158,0.6,155.757,155.757,156.977,right,1,1.213,,156.977,157.974,1,13,29,7,1,total,1,images/Ex8.jpg,right,training,hard,2,,,,,
,,,,,562cd833733ea000111632ba,001,65,Female,British,Bec,2024-03-06_12h16.58.152,CRL1h,2023.2.3,MacIntel,71.42857143,65e67470ae2fbf2172c317b2,65e85e5da2ad759c8da840e0,,,,,,,,,,,157.974,0.9,158.874,158.874,160.542,right,0,1.66,,160.542,161.541,1,14,30,9,1,total,1,images/Ex2.jpg,left,training,hard,2,,,,,
,,,,,562cd833733ea000111632ba,001,65,Female,British,Bec,2024-03-06_12h16.58.152,CRL1h,2023.2.3,MacIntel,71.42857143,65e67470ae2fbf2172c317b2,65e85e5da2ad759c8da840e0,,,,,,,,,,,161.541,1.4,162.941,162.941,163.746,right,0,0.793,,163.746,164.741,1,15,31,10,1,total,1,images/Ex3.jpg,left,training,hard,2,,,,,
,,,,,562cd833733ea000111632ba,001,65,Female,British,Bec,2024-03-06_12h16.58.152,CRL1h,2023.2.3,MacIntel,71.42857143,65e67470ae2fbf2172c317b2,65e85e5da2ad759c8da840e0,,,,,,,,,,,164.741,0.5,165.241,165.241,166.509,left,0,1.267,,166.509,167.508,2,0,32,6,1,total,1,images/Ex7.jpg,right,training,hard,2,,,,,
,,,,,562cd833733ea000111632ba,001,65,Female,British,Bec,2024-03-06_12h16.58.152,CRL1h,2023.2.3,MacIntel,71.42857143,65e67470ae2fbf2172c317b2,65e85e5da2ad759c8da840e0,,,,,,,,,,,167.508,0.6,168.108,168.108,169.262,right,0,1.147,,169.262,170.258,2,1,33,2,1,total,1,images/Ex3.jpg,left,training,hard,2,,,,,
,,,,,562cd833733ea000111632ba,001,65,Female,British,Bec,2024-03-06_12h16.58.152,CRL1h,2023.2.3,MacIntel,71.42857143,65e67470ae2fbf2172c317b2,65e85e5da2ad759c8da840e0,,,,,,,,,,,170.258,0.9,171.158,171.158,171.908,left,0,0.737,,171.908,172.908,2,2,34,7,1,total,1,images/Ex8.jpg,right,training,hard,2,,,,,
,,,,,562cd833733ea000111632ba,001,65,Female,British,Bec,2024-03-06_12h16.58.152,CRL1h,2023.2.3,MacIntel,71.42857143,65e67470ae2fbf2172c317b2,65e85e5da2ad759c8da840e0,,,,,,,,,,,172.908,0.8,173.708,173.708,174.491,right,1,0.777,,174.491,175.491,2,3,35,5,1,total,1,images/Ex6.jpg,right,training,hard,2,,,,,
,,,,,562cd833733ea000111632ba,001,65,Female,British,Bec,2024-03-06_12h16.58.152,CRL1h,2023.2.3,MacIntel,71.42857143,65e67470ae2fbf2172c317b2,65e85e5da2ad759c8da840e0,,,,,,,,,,,175.491,1.3,176.791,176.791,177.675,right,0,0.869,,177.675,178.675,2,4,36,9,1,total,1,images/Ex2.jpg,left,training,hard,2,,,,,
,,,,,562cd833733ea000111632ba,001,65,Female,British,Bec,2024-03-06_12h16.58.152,CRL1h,2023.2.3,MacIntel,71.42857143,65e67470ae2fbf2172c317b2,65e85e5da2ad759c8da840e0,,,,,,,,,,,178.675,1,179.675,179.675,180.663,right,1,0.981,,180.663,181.658,2,5,37,14,1,total,1,images/Ex7.jpg,right,training,hard,2,,,,,
,,,,,562cd833733ea000111632ba,001,65,Female,British,Bec,2024-03-06_12h16.58.152,CRL1h,2023.2.3,MacIntel,71.42857143,65e67470ae2fbf2172c317b2,65e85e5da2ad759c8da840e0,,,,,,,,,,,181.659,0.6,182.258,182.258,182.994,right,0,0.726,,182.994,183.992,2,6,38,8,1,total,1,images/Ex1.jpg,left,training,hard,2,,,,,
,,,,,562cd833733ea000111632ba,001,65,Female,British,Bec,2024-03-06_12h16.58.152,CRL1h,2023.2.3,MacIntel,71.42857143,65e67470ae2fbf2172c317b2,65e85e5da2ad759c8da840e0,,,,,,,,,,,183.992,1,184.992,184.992,185.794,left,0,0.786,,185.794,186.792,2,7,39,15,1,total,1,images/Ex8.jpg,right,training,hard,2,,,,,
,,,,,562cd833733ea000111632ba,001,65,Female,British,Bec,2024-03-06_12h16.58.152,CRL1h,2023.2.3,MacIntel,71.42857143,65e67470ae2fbf2172c317b2,65e85e5da2ad759c8da840e0,,,,,,,,,,,186.792,1.4,188.192,188.192,189.395,right,0,1.187,,189.395,190.392,2,8,40,0,1,total,1,images/Ex1.jpg,left,training,hard,2,,,,,
,,,,,562cd833733ea000111632ba,001,65,Female,British,Bec,2024-03-06_12h16.58.152,CRL1h,2023.2.3,MacIntel,71.42857143,65e67470ae2fbf2172c317b2,65e85e5da2ad759c8da840e0,,,,,,,,,,,190.392,0.9,191.292,191.292,191.958,left,1,0.652,,191.958,192.958,2,9,41,10,1,total,1,images/Ex3.jpg,left,training,hard,2,,,,,
,,,,,562cd833733ea000111632ba,001,65,Female,British,Bec,2024-03-06_12h16.58.152,CRL1h,2023.2.3,MacIntel,71.42857143,65e67470ae2fbf2172c317b2,65e85e5da2ad759c8da840e0,,,,,,,,,,,192.958,1,193.959,193.959,194.509,left,1,0.543,,194.509,195.509,2,10,42,11,1,total,1,images/Ex4.jpg,left,training,hard,2,,,,,
,,,,,562cd833733ea000111632ba,001,65,Female,British,Bec,2024-03-06_12h16.58.152,CRL1h,2023.2.3,MacIntel,71.42857143,65e67470ae2fbf2172c317b2,65e85e5da2ad759c8da840e0,,,,,,,,,,,195.509,0.5,196.009,196.009,196.744,left,0,0.728,,196.744,197.742,2,11,43,12,1,total,1,images/Ex5.jpg,right,training,hard,2,,,,,
,,,,,562cd833733ea000111632ba,001,65,Female,British,Bec,2024-03-06_12h16.58.152,CRL1h,2023.2.3,MacIntel,71.42857143,65e67470ae2fbf2172c317b2,65e85e5da2ad759c8da840e0,,,,,,,,,,,197.742,1.5,199.242,199.242,200.244,left,0,0.995,,200.244,201.242,2,12,44,4,1,total,1,images/Ex5.jpg,right,training,hard,2,,,,,
,,,,,562cd833733ea000111632ba,001,65,Female,British,Bec,2024-03-06_12h16.58.152,CRL1h,2023.2.3,MacIntel,71.42857143,65e67470ae2fbf2172c317b2,65e85e5da2ad759c8da840e0,,,,,,,,,,,201.242,1,202.242,202.242,202.945,right,0,0.686,,202.945,203.941,2,13,45,1,1,total,1,images/Ex2.jpg,left,training,hard,2,,,,,
,,,,,562cd833733ea000111632ba,001,65,Female,British,Bec,2024-03-06_12h16.58.152,CRL1h,2023.2.3,MacIntel,71.42857143,65e67470ae2fbf2172c317b2,65e85e5da2ad759c8da840e0,,,,,,,,,,,203.942,0.5,204.442,204.442,205.427,left,0,0.977,,205.427,206.426,2,14,46,13,1,total,1,images/Ex6.jpg,right,training,hard,2,,,,,
,,,,,562cd833733ea000111632ba,001,65,Female,British,Bec,2024-03-06_12h16.58.152,CRL1h,2023.2.3,MacIntel,71.42857143,65e67470ae2fbf2172c317b2,65e85e5da2ad759c8da840e0,,,,,,,,,,,206.426,0.8,207.225,207.225,208.225,left,1,0.993,,208.225,209.226,2,15,47,3,1,total,1,images/Ex4.jpg,left,training,hard,2,,,,,
,,,,,562cd833733ea000111632ba,001,65,Female,British,Bec,2024-03-06_12h16.58.152,CRL1h,2023.2.3,MacIntel,71.42857143,65e67470ae2fbf2172c317b2,65e85e5da2ad759c8da840e0,,,,,,,,,,,209.226,0.8,210.026,210.026,210.795,left,0,0.753,,210.795,211.792,3,0,48,7,1,total,1,images/Ex8.jpg,right,training,hard,2,,,,,
,,,,,562cd833733ea000111632ba,001,65,Female,British,Bec,2024-03-06_12h16.58.152,CRL1h,2023.2.3,MacIntel,71.42857143,65e67470ae2fbf2172c317b2,65e85e5da2ad759c8da840e0,,,,,,,,,,,211.793,0.5,212.292,212.292,212.863,right,1,0.563,,212.863,213.859,3,1,49,4,1,total,1,images/Ex5.jpg,right,training,hard,2,,,,,
,,,,,562cd833733ea000111632ba,001,65,Female,British,Bec,2024-03-06_12h16.58.152,CRL1h,2023.2.3,MacIntel,71.42857143,65e67470ae2fbf2172c317b2,65e85e5da2ad759c8da840e0,,,,,,,,,,,213.859,0.9,214.759,214.759,215.376,right,0,0.603,,215.376,216.376,3,2,50,11,1,total,1,images/Ex4.jpg,left,training,hard,2,,,,,
,,,,,562cd833733ea000111632ba,001,65,Female,British,Bec,2024-03-06_12h16.58.152,CRL1h,2023.2.3,MacIntel,71.42857143,65e67470ae2fbf2172c317b2,65e85e5da2ad759c8da840e0,,,,,,,,,,,216.376,0.7,217.076,217.076,218.53,right,0,1.447,,218.53,219.526,3,3,51,2,1,total,1,images/Ex3.jpg,left,training,hard,2,,,,,
,,,,,562cd833733ea000111632ba,001,65,Female,British,Bec,2024-03-06_12h16.58.152,CRL1h,2023.2.3,MacIntel,71.42857143,65e67470ae2fbf2172c317b2,65e85e5da2ad759c8da840e0,,,,,,,,,,,219.526,1.3,220.826,220.826,221.312,left,0,0.478,,221.312,222.309,3,4,52,6,1,total,1,images/Ex7.jpg,right,training,hard,2,,,,,
,,,,,562cd833733ea000111632ba,001,65,Female,British,Bec,2024-03-06_12h16.58.152,CRL1h,2023.2.3,MacIntel,71.42857143,65e67470ae2fbf2172c317b2,65e85e5da2ad759c8da840e0,,,,,,,,,,,222.31,1.3,223.609,223.61,224.443,right,0,0.826,,224.443,225.443,3,5,53,9,1,total,1,images/Ex2.jpg,left,training,hard,2,,,,,
,,,,,562cd833733ea000111632ba,001,65,Female,British,Bec,2024-03-06_12h16.58.152,CRL1h,2023.2.3,MacIntel,71.42857143,65e67470ae2fbf2172c317b2,65e85e5da2ad759c8da840e0,,,,,,,,,,,225.443,0.7,226.143,226.143,227.446,right,0,1.287,,227.446,228.443,3,6,54,3,1,total,1,images/Ex4.jpg,left,training,hard,2,,,,,
,,,,,562cd833733ea000111632ba,001,65,Female,British,Bec,2024-03-06_12h16.58.152,CRL1h,2023.2.3,MacIntel,71.42857143,65e67470ae2fbf2172c317b2,65e85e5da2ad759c8da840e0,,,,,,,,,,,228.443,1.5,229.943,229.943,231.31,left,0,1.36,,231.31,232.31,3,7,55,5,1,total,1,images/Ex6.jpg,right,training,hard,2,,,,,
,,,,,562cd833733ea000111632ba,001,65,Female,British,Bec,2024-03-06_12h16.58.152,CRL1h,2023.2.3,MacIntel,71.42857143,65e67470ae2fbf2172c317b2,65e85e5da2ad759c8da840e0,,,,,,,,,,,232.31,0.8,233.11,233.11,234.829,right,0,1.703,,234.829,235.827,3,8,56,8,1,total,1,images/Ex1.jpg,left,training,hard,2,,,,,
,,,,,562cd833733ea000111632ba,001,65,Female,British,Bec,2024-03-06_12h16.58.152,CRL1h,2023.2.3,MacIntel,71.42857143,65e67470ae2fbf2172c317b2,65e85e5da2ad759c8da840e0,,,,,,,,,,,235.827,1.1,236.926,236.926,237.71,right,1,0.776,,237.71,238.71,3,9,57,14,1,total,1,images/Ex7.jpg,right,training,hard,2,,,,,
,,,,,562cd833733ea000111632ba,001,65,Female,British,Bec,2024-03-06_12h16.58.152,CRL1h,2023.2.3,MacIntel,71.42857143,65e67470ae2fbf2172c317b2,65e85e5da2ad759c8da840e0,,,,,,,,,,,238.71,0.6,239.31,239.31,240.096,right,0,0.769,,240.096,241.093,3,10,58,1,1,total,1,images/Ex2.jpg,left,training,hard,2,,,,,
,,,,,562cd833733ea000111632ba,001,65,Female,British,Bec,2024-03-06_12h16.58.152,CRL1h,2023.2.3,MacIntel,71.42857143,65e67470ae2fbf2172c317b2,65e85e5da2ad759c8da840e0,,,,,,,,,,,241.093,0.9,241.993,241.993,243.196,right,0,1.195,,243.196,244.193,3,11,59,10,1,total,1,images/Ex3.jpg,left,training,hard,2,,,,,
,,,,,562cd833733ea000111632ba,001,65,Female,British,Bec,2024-03-06_12h16.58.152,CRL1h,2023.2.3,MacIntel,71.42857143,65e67470ae2fbf2172c317b2,65e85e5da2ad759c8da840e0,,,,,,,,,,,244.194,1.4,245.593,245.593,246.346,left,0,0.736,,246.346,247.343,3,12,60,13,1,total,1,images/Ex6.jpg,right,training,hard,2,,,,,
,,,,,562cd833733ea000111632ba,001,65,Female,British,Bec,2024-03-06_12h16.58.152,CRL1h,2023.2.3,MacIntel,71.42857143,65e67470ae2fbf2172c317b2,65e85e5da2ad759c8da840e0,,,,,,,,,,,247.344,0.9,248.243,248.243,249.344,right,0,1.092,,249.344,250.344,3,13,61,0,1,total,1,images/Ex1.jpg,left,training,hard,2,,,,,
,,,,,562cd833733ea000111632ba,001,65,Female,British,Bec,2024-03-06_12h16.58.152,CRL1h,2023.2.3,MacIntel,71.42857143,65e67470ae2fbf2172c317b2,65e85e5da2ad759c8da840e0,,,,,,,,,,,250.344,0.9,251.244,251.244,252.21,left,0,0.953,,252.21,253.21,3,14,62,15,1,total,1,images/Ex8.jpg,right,training,hard,2,,,,,
,,,,,562cd833733ea000111632ba,001,65,Female,British,Bec,2024-03-06_12h16.58.152,CRL1h,2023.2.3,MacIntel,71.42857143,65e67470ae2fbf2172c317b2,65e85e5da2ad759c8da840e0,,,,,,,,,,,253.21,1,254.21,254.21,254.813,left,0,0.586,,254.813,255.81,3,15,63,12,1,total,1,images/Ex5.jpg,right,training,hard,2,,,,,
,,,,,562cd833733ea000111632ba,001,65,Female,British,Bec,2024-03-06_12h16.58.152,CRL1h,2023.2.3,MacIntel,71.42857143,65e67470ae2fbf2172c317b2,65e85e5da2ad759c8da840e0,,,,,,,,,,,255.81,0.7,256.511,256.511,257.097,left,0,0.578,,257.097,258.094,4,0,64,14,1,total,1,images/Ex7.jpg,right,training,hard,2,,,,,
,,,,,562cd833733ea000111632ba,001,65,Female,British,Bec,2024-03-06_12h16.58.152,CRL1h,2023.2.3,MacIntel,71.42857143,65e67470ae2fbf2172c317b2,65e85e5da2ad759c8da840e0,,,,,,,,,,,258.094,1.1,259.194,259.194,259.877,right,1,0.669,,259.877,260.877,4,1,65,12,1,total,1,images/Ex5.jpg,right,training,hard,2,,,,,
,,,,,562cd833733ea000111632ba,001,65,Female,British,Bec,2024-03-06_12h16.58.152,CRL1h,2023.2.3,MacIntel,71.42857143,65e67470ae2fbf2172c317b2,65e85e5da2ad759c8da840e0,,,,,,,,,,,260.877,1,261.877,261.877,262.527,right,1,0.642,,262.527,263.527,4,2,66,15,1,total,1,images/Ex8.jpg,right,training,hard,2,,,,,
,,,,,562cd833733ea000111632ba,001,65,Female,British,Bec,2024-03-06_12h16.58.152,CRL1h,2023.2.3,MacIntel,71.42857143,65e67470ae2fbf2172c317b2,65e85e5da2ad759c8da840e0,,,,,,,,,,,263.527,0.6,264.127,264.127,264.977,right,1,0.842,,264.977,265.977,4,3,67,5,1,total,1,images/Ex6.jpg,right,training,hard,2,,,,,
,,,,,562cd833733ea000111632ba,001,65,Female,British,Bec,2024-03-06_12h16.58.152,CRL1h,2023.2.3,MacIntel,71.42857143,65e67470ae2fbf2172c317b2,65e85e5da2ad759c8da840e0,,,,,,,,,,,265.978,1.5,267.478,267.478,269.094,right,1,1.609,,269.094,270.093,4,4,68,6,1,total,1,images/Ex7.jpg,right,training,hard,2,,,,,
,,,,,562cd833733ea000111632ba,001,65,Female,British,Bec,2024-03-06_12h16.58.152,CRL1h,2023.2.3,MacIntel,71.42857143,65e67470ae2fbf2172c317b2,65e85e5da2ad759c8da840e0,,,,,,,,,,,270.094,1,271.094,271.094,272.144,right,0,1.037,,272.144,273.144,4,5,69,2,1,total,1,images/Ex3.jpg,left,training,hard,2,,,,,
,,,,,562cd833733ea000111632ba,001,65,Female,British,Bec,2024-03-06_12h16.58.152,CRL1h,2023.2.3,MacIntel,71.42857143,65e67470ae2fbf2172c317b2,65e85e5da2ad759c8da840e0,,,,,,,,,,,273.144,1.5,274.644,274.644,275.544,left,1,0.892,,275.544,276.544,4,6,70,0,1,total,1,images/Ex1.jpg,left,training,hard,2,,,,,
,,,,,562cd833733ea000111632ba,001,65,Female,British,Bec,2024-03-06_12h16.58.152,CRL1h,2023.2.3,MacIntel,71.42857143,65e67470ae2fbf2172c317b2,65e85e5da2ad759c8da840e0,,,,,,,,,,,276.544,1.3,277.844,277.844,278.699,left,1,0.843,,278.699,279.694,4,7,71,9,1,total,1,images/Ex2.jpg,left,training,hard,2,,,,,
,,,,,562cd833733ea000111632ba,001,65,Female,British,Bec,2024-03-06_12h16.58.152,CRL1h,2023.2.3,MacIntel,71.42857143,65e67470ae2fbf2172c317b2,65e85e5da2ad759c8da840e0,,,,,,,,,,,279.695,0.7,280.395,280.395,281.162,left,1,0.767,,281.162,282.161,4,8,72,1,1,total,1,images/Ex2.jpg,left,training,hard,2,,,,,
,,,,,562cd833733ea000111632ba,001,65,Female,British,Bec,2024-03-06_12h16.58.152,CRL1h,2023.2.3,MacIntel,71.42857143,65e67470ae2fbf2172c317b2,65e85e5da2ad759c8da840e0,,,,,,,,,,,282.161,1.2,283.361,283.361,284.33,left,1,0.952,,284.33,285.328,4,9,73,11,1,total,1,images/Ex4.jpg,left,training,hard,2,,,,,
,,,,,562cd833733ea000111632ba,001,65,Female,British,Bec,2024-03-06_12h16.58.152,CRL1h,2023.2.3,MacIntel,71.42857143,65e67470ae2fbf2172c317b2,65e85e5da2ad759c8da840e0,,,,,,,,,,,285.328,1,286.328,286.328,286.931,left,0,0.595,,286.931,287.928,4,10,74,4,1,total,1,images/Ex5.jpg,right,training,hard,2,,,,,
,,,,,562cd833733ea000111632ba,001,65,Female,British,Bec,2024-03-06_12h16.58.152,CRL1h,2023.2.3,MacIntel,71.42857143,65e67470ae2fbf2172c317b2,65e85e5da2ad759c8da840e0,,,,,,,,,,,287.928,1,288.928,288.928,289.629,right,0,0.693,,289.629,290.628,4,11,75,8,1,total,1,images/Ex1.jpg,left,training,hard,2,,,,,
,,,,,562cd833733ea000111632ba,001,65,Female,British,Bec,2024-03-06_12h16.58.152,CRL1h,2023.2.3,MacIntel,71.42857143,65e67470ae2fbf2172c317b2,65e85e5da2ad759c8da840e0,,,,,,,,,,,290.628,1.2,291.828,291.828,292.362,left,1,0.526,,292.362,293.362,4,12,76,3,1,total,1,images/Ex4.jpg,left,training,hard,2,,,,,
,,,,,562cd833733ea000111632ba,001,65,Female,British,Bec,2024-03-06_12h16.58.152,CRL1h,2023.2.3,MacIntel,71.42857143,65e67470ae2fbf2172c317b2,65e85e5da2ad759c8da840e0,,,,,,,,,,,293.362,0.8,294.162,294.162,294.765,left,0,0.586,,294.765,295.762,4,13,77,13,1,total,1,images/Ex6.jpg,right,training,hard,2,,,,,
,,,,,562cd833733ea000111632ba,001,65,Female,British,Bec,2024-03-06_12h16.58.152,CRL1h,2023.2.3,MacIntel,71.42857143,65e67470ae2fbf2172c317b2,65e85e5da2ad759c8da840e0,,,,,,,,,,,295.762,0.9,296.662,296.662,297.196,left,0,0.526,,297.196,298.195,4,14,78,7,1,total,1,images/Ex8.jpg,right,training,hard,2,,,,,
,,,,,562cd833733ea000111632ba,001,65,Female,British,Bec,2024-03-06_12h16.58.152,CRL1h,2023.2.3,MacIntel,71.42857143,65e67470ae2fbf2172c317b2,65e85e5da2ad759c8da840e0,,,,,,,,,,,298.195,0.9,299.095,299.095,299.512,right,0,0.409,,299.512,300.512,4,15,79,10,1,total,1,images/Ex3.jpg,left,training,hard,2,,,,,
,,,,,562cd833733ea000111632ba,001,65,Female,British,Bec,2024-03-06_12h16.58.152,CRL1h,2023.2.3,MacIntel,71.42857143,65e67470ae2fbf2172c317b2,65e85e5da2ad759c8da840e0,,,,,,,,,,,300.512,0.5,301.012,301.012,301.463,left,1,0.45,,301.463,302.462,5,0,80,11,1,total,1,images/Ex4.jpg,left,training,hard,2,,,,,
,,,,,562cd833733ea000111632ba,001,65,Female,British,Bec,2024-03-06_12h16.58.152,CRL1h,2023.2.3,MacIntel,71.42857143,65e67470ae2fbf2172c317b2,65e85e5da2ad759c8da840e0,,,,,,,,,,,302.463,1,303.462,303.462,303.998,left,0,0.52,,303.998,304.995,5,1,81,12,1,total,1,images/Ex5.jpg,right,training,hard,2,,,,,
,,,,,562cd833733ea000111632ba,001,65,Female,British,Bec,2024-03-06_12h16.58.152,CRL1h,2023.2.3,MacIntel,71.42857143,65e67470ae2fbf2172c317b2,65e85e5da2ad759c8da840e0,,,,,,,,,,,304.995,1.2,306.195,306.195,307.112,right,1,0.91,,307.112,308.112,5,2,82,4,1,total,1,images/Ex5.jpg,right,training,hard,2,,,,,
,,,,,562cd833733ea000111632ba,001,65,Female,British,Bec,2024-03-06_12h16.58.152,CRL1h,2023.2.3,MacIntel,71.42857143,65e67470ae2fbf2172c317b2,65e85e5da2ad759c8da840e0,,,,,,,,,,,308.112,1,309.112,309.112,310.345,left,1,1.225,,310.345,311.345,5,3,83,3,1,total,1,images/Ex4.jpg,left,training,hard,2,,,,,
,,,,,562cd833733ea000111632ba,001,65,Female,British,Bec,2024-03-06_12h16.58.152,CRL1h,2023.2.3,MacIntel,71.42857143,65e67470ae2fbf2172c317b2,65e85e5da2ad759c8da840e0,,,,,,,,,,,311.346,0.7,312.045,312.045,313.015,left,0,0.963,,313.015,314.012,5,4,84,7,1,total,1,images/Ex8.jpg,right,training,hard,2,,,,,
,,,,,562cd833733ea000111632ba,001,65,Female,British,Bec,2024-03-06_12h16.58.152,CRL1h,2023.2.3,MacIntel,71.42857143,65e67470ae2fbf2172c317b2,65e85e5da2ad759c8da840e0,,,,,,,,,,,314.012,1.4,315.412,315.412,316.446,left,0,1.025,,316.446,317.445,5,5,85,5,1,total,1,images/Ex6.jpg,right,training,hard,2,,,,,
,,,,,562cd833733ea000111632ba,001,65,Female,British,Bec,2024-03-06_12h16.58.152,CRL1h,2023.2.3,MacIntel,71.42857143,65e67470ae2fbf2172c317b2,65e85e5da2ad759c8da840e0,,,,,,,,,,,317.445,1.2,318.645,318.645,320.662,left,1,2.009,,320.662,321.662,5,6,86,0,1,total,1,images/Ex1.jpg,left,training,hard,2,,,,,
,,,,,562cd833733ea000111632ba,001,65,Female,British,Bec,2024-03-06_12h16.58.152,CRL1h,2023.2.3,MacIntel,71.42857143,65e67470ae2fbf2172c317b2,65e85e5da2ad759c8da840e0,,,,,,,,,,,321.663,0.6,322.261,322.261,323.246,right,1,0.977,,323.246,324.247,5,7,87,13,1,total,1,images/Ex6.jpg,right,training,hard,2,,,,,
,,,,,562cd833733ea000111632ba,001,65,Female,British,Bec,2024-03-06_12h16.58.152,CRL1h,2023.2.3,MacIntel,71.42857143,65e67470ae2fbf2172c317b2,65e85e5da2ad759c8da840e0,,,,,,,,,,,324.247,1.1,325.346,325.346,326.179,right,1,0.825,,326.179,327.179,5,8,88,6,1,total,1,images/Ex7.jpg,right,training,hard,2,,,,,
,,,,,562cd833733ea000111632ba,001,65,Female,British,Bec,2024-03-06_12h16.58.152,CRL1h,2023.2.3,MacIntel,71.42857143,65e67470ae2fbf2172c317b2,65e85e5da2ad759c8da840e0,,,,,,,,,,,327.179,0.9,328.079,328.079,328.679,right,1,0.593,,328.679,329.679,5,9,89,15,1,total,1,images/Ex8.jpg,right,training,hard,2,,,,,
,,,,,562cd833733ea000111632ba,001,65,Female,British,Bec,2024-03-06_12h16.58.152,CRL1h,2023.2.3,MacIntel,71.42857143,65e67470ae2fbf2172c317b2,65e85e5da2ad759c8da840e0,,,,,,,,,,,329.68,1,330.679,330.679,331.379,right,0,0.692,,331.379,332.379,5,10,90,1,1,total,1,images/Ex2.jpg,left,training,hard,2,,,,,
,,,,,562cd833733ea000111632ba,001,65,Female,British,Bec,2024-03-06_12h16.58.152,CRL1h,2023.2.3,MacIntel,71.42857143,65e67470ae2fbf2172c317b2,65e85e5da2ad759c8da840e0,,,,,,,,,,,332.38,1.2,333.579,333.579,334.563,right,0,0.976,,334.563,335.563,5,11,91,10,1,total,1,images/Ex3.jpg,left,training,hard,2,,,,,
,,,,,562cd833733ea000111632ba,001,65,Female,British,Bec,2024-03-06_12h16.58.152,CRL1h,2023.2.3,MacIntel,71.42857143,65e67470ae2fbf2172c317b2,65e85e5da2ad759c8da840e0,,,,,,,,,,,335.563,1,336.563,336.563,337.131,left,1,0.562,,337.131,338.13,5,12,92,2,1,total,1,images/Ex3.jpg,left,training,hard,2,,,,,
,,,,,562cd833733ea000111632ba,001,65,Female,British,Bec,2024-03-06_12h16.58.152,CRL1h,2023.2.3,MacIntel,71.42857143,65e67470ae2fbf2172c317b2,65e85e5da2ad759c8da840e0,,,,,,,,,,,338.13,1,339.13,339.13,339.796,left,1,0.659,,339.796,340.796,5,13,93,8,1,total,1,images/Ex1.jpg,left,training,hard,2,,,,,
,,,,,562cd833733ea000111632ba,001,65,Female,British,Bec,2024-03-06_12h16.58.152,CRL1h,2023.2.3,MacIntel,71.42857143,65e67470ae2fbf2172c317b2,65e85e5da2ad759c8da840e0,,,,,,,,,,,340.796,0.6,341.396,341.396,342.047,left,0,0.65,,342.047,343.046,5,14,94,14,1,total,1,images/Ex7.jpg,right,training,hard,2,,,,,
,,,,,562cd833733ea000111632ba,001,65,Female,British,Bec,2024-03-06_12h16.58.152,CRL1h,2023.2.3,MacIntel,71.42857143,65e67470ae2fbf2172c317b2,65e85e5da2ad759c8da840e0,,,,,,,,,,,343.047,1.2,344.246,344.246,344.946,right,0,0.686,,344.946,345.946,5,15,95,9,1,total,1,images/Ex2.jpg,left,training,hard,2,,,,,
,,,,,562cd833733ea000111632ba,001,65,Female,British,Bec,2024-03-06_12h16.58.152,CRL1h,2023.2.3,MacIntel,71.42857143,65e67470ae2fbf2172c317b2,65e85e5da2ad759c8da840e0,,,,,,,,,,,345.947,1,346.946,346.946,347.4,left,0,0.436,,347.4,348.396,6,0,96,13,1,total,1,images/Ex6.jpg,right,training,hard,2,,,,,
,,,,,562cd833733ea000111632ba,001,65,Female,British,Bec,2024-03-06_12h16.58.152,CRL1h,2023.2.3,MacIntel,71.42857143,65e67470ae2fbf2172c317b2,65e85e5da2ad759c8da840e0,,,,,,,,,,,348.397,0.6,348.996,348.997,350.296,left,0,1.293,,350.297,351.296,6,1,97,7,1,total,1,images/Ex8.jpg,right,training,hard,2,,,,,
,,,,,562cd833733ea000111632ba,001,65,Female,British,Bec,2024-03-06_12h16.58.152,CRL1h,2023.2.3,MacIntel,71.42857143,65e67470ae2fbf2172c317b2,65e85e5da2ad759c8da840e0,,,,,,,,,,,351.297,0.8,352.096,352.097,353.163,left,0,1.059,,353.163,354.163,6,2,98,6,1,total,1,images/Ex7.jpg,right,training,hard,2,,,,,
,,,,,562cd833733ea000111632ba,001,65,Female,British,Bec,2024-03-06_12h16.58.152,CRL1h,2023.2.3,MacIntel,71.42857143,65e67470ae2fbf2172c317b2,65e85e5da2ad759c8da840e0,,,,,,,,,,,354.164,1.1,355.264,355.264,356.1,right,0,0.819,,356.1,357.096,6,3,99,0,1,total,1,images/Ex1.jpg,left,training,hard,2,,,,,
,,,,,562cd833733ea000111632ba,001,65,Female,British,Bec,2024-03-06_12h16.58.152,CRL1h,2023.2.3,MacIntel,71.42857143,65e67470ae2fbf2172c317b2,65e85e5da2ad759c8da840e0,,,,,,,,,,,357.096,1,358.097,358.097,359.081,left,0,0.977,,359.081,360.08,6,4,100,15,1,total,1,images/Ex8.jpg,right,training,hard,2,,,,,
,,,,,562cd833733ea000111632ba,001,65,Female,British,Bec,2024-03-06_12h16.58.152,CRL1h,2023.2.3,MacIntel,71.42857143,65e67470ae2fbf2172c317b2,65e85e5da2ad759c8da840e0,,,,,,,,,,,360.081,1.3,361.38,361.38,362.464,left,1,1.069,,362.464,363.465,6,5,101,3,1,total,1,images/Ex4.jpg,left,training,hard,2,,,,,
,,,,,562cd833733ea000111632ba,001,65,Female,British,Bec,2024-03-06_12h16.58.152,CRL1h,2023.2.3,MacIntel,71.42857143,65e67470ae2fbf2172c317b2,65e85e5da2ad759c8da840e0,,,,,,,,,,,363.465,1.2,364.664,364.664,365.681,right,0,1.01,,365.681,366.68,6,6,102,8,1,total,1,images/Ex1.jpg,left,training,hard,2,,,,,
,,,,,562cd833733ea000111632ba,001,65,Female,British,Bec,2024-03-06_12h16.58.152,CRL1h,2023.2.3,MacIntel,71.42857143,65e67470ae2fbf2172c317b2,65e85e5da2ad759c8da840e0,,,,,,,,,,,366.681,1.5,368.18,368.18,369.052,left,1,0.864,,369.052,370.047,6,7,103,2,1,total,1,images/Ex3.jpg,left,training,hard,2,,,,,
,,,,,562cd833733ea000111632ba,001,65,Female,British,Bec,2024-03-06_12h16.58.152,CRL1h,2023.2.3,MacIntel,71.42857143,65e67470ae2fbf2172c317b2,65e85e5da2ad759c8da840e0,,,,,,,,,,,370.047,1.4,371.447,371.447,372.314,left,0,0.859,,372.314,373.314,6,8,104,12,1,total,1,images/Ex5.jpg,right,training,hard,2,,,,,
,,,,,562cd833733ea000111632ba,001,65,Female,British,Bec,2024-03-06_12h16.58.152,CRL1h,2023.2.3,MacIntel,71.42857143,65e67470ae2fbf2172c317b2,65e85e5da2ad759c8da840e0,,,,,,,,,,,373.314,1.2,374.514,374.514,377.131,right,0,2.609,,377.131,378.131,6,9,105,10,1,total,1,images/Ex3.jpg,left,training,hard,2,,,,,
,,,,,562cd833733ea000111632ba,001,65,Female,British,Bec,2024-03-06_12h16.58.152,CRL1h,2023.2.3,MacIntel,71.42857143,65e67470ae2fbf2172c317b2,65e85e5da2ad759c8da840e0,,,,,,,,,,,378.131,0.6,378.731,378.731,379.533,left,0,0.795,,379.533,380.531,6,10,106,4,1,total,1,images/Ex5.jpg,right,training,hard,2,,,,,
,,,,,562cd833733ea000111632ba,001,65,Female,British,Bec,2024-03-06_12h16.58.152,CRL1h,2023.2.3,MacIntel,71.42857143,65e67470ae2fbf2172c317b2,65e85e5da2ad759c8da840e0,,,,,,,,,,,380.531,1.2,381.731,381.731,382.686,left,1,0.943,,382.686,383.681,6,11,107,11,1,total,1,images/Ex4.jpg,left,training,hard,2,,,,,
,,,,,562cd833733ea000111632ba,001,65,Female,British,Bec,2024-03-06_12h16.58.152,CRL1h,2023.2.3,MacIntel,71.42857143,65e67470ae2fbf2172c317b2,65e85e5da2ad759c8da840e0,,,,,,,,,,,383.681,1.3,384.981,384.981,385.764,left,0,0.775,,385.764,386.764,6,12,108,14,1,total,1,images/Ex7.jpg,right,training,hard,2,,,,,
,,,,,562cd833733ea000111632ba,001,65,Female,British,Bec,2024-03-06_12h16.58.152,CRL1h,2023.2.3,MacIntel,71.42857143,65e67470ae2fbf2172c317b2,65e85e5da2ad759c8da840e0,,,,,,,,,,,386.764,1.3,388.064,388.064,388.947,right,0,0.869,,388.947,389.947,6,13,109,9,1,total,1,images/Ex2.jpg,left,training,hard,2,,,,,
,,,,,562cd833733ea000111632ba,001,65,Female,British,Bec,2024-03-06_12h16.58.152,CRL1h,2023.2.3,MacIntel,71.42857143,65e67470ae2fbf2172c317b2,65e85e5da2ad759c8da840e0,,,,,,,,,,,389.948,1.2,391.148,391.148,391.932,right,1,0.784,,391.932,392.931,6,14,110,5,1,total,1,images/Ex6.jpg,right,training,hard,2,,,,,
,,,,,562cd833733ea000111632ba,001,65,Female,British,Bec,2024-03-06_12h16.58.152,CRL1h,2023.2.3,MacIntel,71.42857143,65e67470ae2fbf2172c317b2,65e85e5da2ad759c8da840e0,,,,,,,,,,,392.931,0.8,393.731,393.731,394.883,right,0,1.144,,394.883,395.881,6,15,111,1,1,total,1,images/Ex2.jpg,left,training,hard,2,,,,,
,,,,,562cd833733ea000111632ba,001,65,Female,British,Bec,2024-03-06_12h16.58.152,CRL1h,2023.2.3,MacIntel,71.42857143,65e67470ae2fbf2172c317b2,65e85e5da2ad759c8da840e0,,,,,,,,,,,395.882,0.6,396.481,396.481,397.816,left,0,1.328,,397.816,398.815,7,0,112,7,1,total,1,images/Ex8.jpg,right,training,hard,2,,,,,
,,,,,562cd833733ea000111632ba,001,65,Female,British,Bec,2024-03-06_12h16.58.152,CRL1h,2023.2.3,MacIntel,71.42857143,65e67470ae2fbf2172c317b2,65e85e5da2ad759c8da840e0,,,,,,,,,,,398.815,0.9,399.715,399.715,400.701,right,1,0.979,,400.701,401.698,7,1,113,14,1,total,1,images/Ex7.jpg,right,training,hard,2,,,,,
,,,,,562cd833733ea000111632ba,001,65,Female,British,Bec,2024-03-06_12h16.58.152,CRL1h,2023.2.3,MacIntel,71.42857143,65e67470ae2fbf2172c317b2,65e85e5da2ad759c8da840e0,,,,,,,,,,,401.698,1.1,402.798,402.798,404.231,left,1,1.42,,404.231,405.231,7,2,114,0,1,total,1,images/Ex1.jpg,left,training,hard,2,,,,,
,,,,,562cd833733ea000111632ba,001,65,Female,British,Bec,2024-03-06_12h16.58.152,CRL1h,2023.2.3,MacIntel,71.42857143,65e67470ae2fbf2172c317b2,65e85e5da2ad759c8da840e0,,,,,,,,,,,405.232,0.7,405.931,405.931,406.685,left,0,0.746,,406.685,407.682,7,3,115,5,1,total,1,images/Ex6.jpg,right,training,hard,2,,,,,
,,,,,562cd833733ea000111632ba,001,65,Female,British,Bec,2024-03-06_12h16.58.152,CRL1h,2023.2.3,MacIntel,71.42857143,65e67470ae2fbf2172c317b2,65e85e5da2ad759c8da840e0,,,,,,,,,,,407.682,1,408.682,408.682,409.565,right,0,0.876,,409.565,410.565,7,4,116,2,1,total,1,images/Ex3.jpg,left,training,hard,2,,,,,
,,,,,562cd833733ea000111632ba,001,65,Female,British,Bec,2024-03-06_12h16.58.152,CRL1h,2023.2.3,MacIntel,71.42857143,65e67470ae2fbf2172c317b2,65e85e5da2ad759c8da840e0,,,,,,,,,,,410.565,0.6,411.165,411.165,411.87,left,1,0.693,,411.87,412.865,7,5,117,10,1,total,1,images/Ex3.jpg,left,training,hard,2,,,,,
,,,,,562cd833733ea000111632ba,001,65,Female,British,Bec,2024-03-06_12h16.58.152,CRL1h,2023.2.3,MacIntel,71.42857143,65e67470ae2fbf2172c317b2,65e85e5da2ad759c8da840e0,,,,,,,,,,,412.865,1.5,414.365,414.365,415.115,left,0,0.743,,415.115,416.115,7,6,118,12,1,total,1,images/Ex5.jpg,right,training,hard,2,,,,,
,,,,,562cd833733ea000111632ba,001,65,Female,British,Bec,2024-03-06_12h16.58.152,CRL1h,2023.2.3,MacIntel,71.42857143,65e67470ae2fbf2172c317b2,65e85e5da2ad759c8da840e0,,,,,,,,,,,416.115,1,417.115,417.115,418.215,right,1,1.086,,418.215,419.215,7,7,119,6,1,total,1,images/Ex7.jpg,right,training,hard,2,,,,,
,,,,,562cd833733ea000111632ba,001,65,Female,British,Bec,2024-03-06_12h16.58.152,CRL1h,2023.2.3,MacIntel,71.42857143,65e67470ae2fbf2172c317b2,65e85e5da2ad759c8da840e0,,,,,,,,,,,419.215,1.3,420.515,420.515,421.568,left,1,1.045,,421.568,422.565,7,8,120,3,1,total,1,images/Ex4.jpg,left,training,hard,2,,,,,
,,,,,562cd833733ea000111632ba,001,65,Female,British,Bec,2024-03-06_12h16.58.152,CRL1h,2023.2.3,MacIntel,71.42857143,65e67470ae2fbf2172c317b2,65e85e5da2ad759c8da840e0,,,,,,,,,,,422.565,0.7,423.265,423.265,424.702,right,0,1.419,,424.702,425.699,7,9,121,9,1,total,1,images/Ex2.jpg,left,training,hard,2,,,,,
,,,,,562cd833733ea000111632ba,001,65,Female,British,Bec,2024-03-06_12h16.58.152,CRL1h,2023.2.3,MacIntel,71.42857143,65e67470ae2fbf2172c317b2,65e85e5da2ad759c8da840e0,,,,,,,,,,,425.699,0.8,426.499,426.499,427.684,right,1,1.17,,427.684,428.682,7,10,122,4,1,total,1,images/Ex5.jpg,right,training,hard,2,,,,,
,,,,,562cd833733ea000111632ba,001,65,Female,British,Bec,2024-03-06_12h16.58.152,CRL1h,2023.2.3,MacIntel,71.42857143,65e67470ae2fbf2172c317b2,65e85e5da2ad759c8da840e0,,,,,,,,,,,428.682,0.6,429.282,429.282,430.468,right,1,1.17,,430.468,431.466,7,11,123,15,1,total,1,images/Ex8.jpg,right,training,hard,2,,,,,
,,,,,562cd833733ea000111632ba,001,65,Female,British,Bec,2024-03-06_12h16.58.152,CRL1h,2023.2.3,MacIntel,71.42857143,65e67470ae2fbf2172c317b2,65e85e5da2ad759c8da840e0,,,,,,,,,,,431.466,1.3,432.766,432.766,433.516,right,1,0.742,,433.516,434.516,7,12,124,13,1,total,1,images/Ex6.jpg,right,training,hard,2,,,,,
,,,,,562cd833733ea000111632ba,001,65,Female,British,Bec,2024-03-06_12h16.58.152,CRL1h,2023.2.3,MacIntel,71.42857143,65e67470ae2fbf2172c317b2,65e85e5da2ad759c8da840e0,,,,,,,,,,,434.516,0.6,435.116,435.116,436.282,left,1,1.153,,436.282,437.282,7,13,125,11,1,total,1,images/Ex4.jpg,left,training,hard,2,,,,,
,,,,,562cd833733ea000111632ba,001,65,Female,British,Bec,2024-03-06_12h16.58.152,CRL1h,2023.2.3,MacIntel,71.42857143,65e67470ae2fbf2172c317b2,65e85e5da2ad759c8da840e0,,,,,,,,,,,437.283,1.5,438.782,438.783,439.633,right,0,0.842,,439.633,440.633,7,14,126,1,1,total,1,images/Ex2.jpg,left,training,hard,2,,,,,
,,,,,562cd833733ea000111632ba,001,65,Female,British,Bec,2024-03-06_12h16.58.152,CRL1h,2023.2.3,MacIntel,71.42857143,65e67470ae2fbf2172c317b2,65e85e5da2ad759c8da840e0,,,,,,,,,,,440.633,0.9,441.533,441.533,442.366,left,1,0.825,,442.366,443.367,7,15,127,8,1,total,1,images/Ex1.jpg,left,training,hard,2,,,,,
,,,,,562cd833733ea000111632ba,001,65,Female,British,Bec,2024-03-06_12h16.58.152,CRL1h,2023.2.3,MacIntel,71.42857143,65e67470ae2fbf2172c317b2,65e85e5da2ad759c8da840e0,,,,,,,,,,,443.372,1.1,444.466,444.466,445.869,right,0,1.386,,445.869,446.866,0,0,0,4,1,total,2,images/Ex5.jpg,left,reversed,hard,2,,,,,
,,,,,562cd833733ea000111632ba,001,65,Female,British,Bec,2024-03-06_12h16.58.152,CRL1h,2023.2.3,MacIntel,71.42857143,65e67470ae2fbf2172c317b2,65e85e5da2ad759c8da840e0,,,,,,,,,,,446.866,0.6,447.467,447.467,448.099,left,1,0.625,,448.099,449.099,0,1,1,5,1,total,2,images/Ex6.jpg,left,reversed,hard,2,,,,,
,,,,,562cd833733ea000111632ba,001,65,Female,British,Bec,2024-03-06_12h16.58.152,CRL1h,2023.2.3,MacIntel,71.42857143,65e67470ae2fbf2172c317b2,65e85e5da2ad759c8da840e0,,,,,,,,,,,449.1,1.3,450.399,450.399,451.633,right,0,1.226,,451.633,452.633,0,2,2,15,1,total,2,images/Ex8.jpg,left,reversed,hard,2,,,,,
,,,,,562cd833733ea000111632ba,001,65,Female,British,Bec,2024-03-06_12h16.58.152,CRL1h,2023.2.3,MacIntel,71.42857143,65e67470ae2fbf2172c317b2,65e85e5da2ad759c8da840e0,,,,,,,,,,,452.633,0.7,453.333,453.333,454.402,right,1,1.053,,454.402,455.4,0,3,3,1,1,total,2,images/Ex2.jpg,right,reversed,hard,2,,,,,
,,,,,562cd833733ea000111632ba,001,65,Female,British,Bec,2024-03-06_12h16.58.152,CRL1h,2023.2.3,MacIntel,71.42857143,65e67470ae2fbf2172c317b2,65e85e5da2ad759c8da840e0,,,,,,,,,,,455.4,0.6,456,456,456.816,right,1,0.809,,456.816,457.816,0,4,4,10,1,total,2,images/Ex3.jpg,right,reversed,hard,2,,,,,
,,,,,562cd833733ea000111632ba,001,65,Female,British,Bec,2024-03-06_12h16.58.152,CRL1h,2023.2.3,MacIntel,71.42857143,65e67470ae2fbf2172c317b2,65e85e5da2ad759c8da840e0,,,,,,,,,,,457.817,1.1,458.916,458.917,459.883,right,1,0.959,,459.883,460.883,0,5,5,8,1,total,2,images/Ex1.jpg,right,reversed,hard,2,,,,,
,,,,,562cd833733ea000111632ba,001,65,Female,British,Bec,2024-03-06_12h16.58.152,CRL1h,2023.2.3,MacIntel,71.42857143,65e67470ae2fbf2172c317b2,65e85e5da2ad759c8da840e0,,,,,,,,,,,460.883,1,461.883,461.883,463.137,right,0,1.237,,463.137,464.133,0,6,6,14,1,total,2,images/Ex7.jpg,left,reversed,hard,2,,,,,
,,,,,562cd833733ea000111632ba,001,65,Female,British,Bec,2024-03-06_12h16.58.152,CRL1h,2023.2.3,MacIntel,71.42857143,65e67470ae2fbf2172c317b2,65e85e5da2ad759c8da840e0,,,,,,,,,,,464.133,1.2,465.332,465.332,466.65,right,1,1.31,,466.65,467.65,0,7,7,9,1,total,2,images/Ex2.jpg,right,reversed,hard,2,,,,,
,,,,,562cd833733ea000111632ba,001,65,Female,British,Bec,2024-03-06_12h16.58.152,CRL1h,2023.2.3,MacIntel,71.42857143,65e67470ae2fbf2172c317b2,65e85e5da2ad759c8da840e0,,,,,,,,,,,467.65,0.9,468.55,468.55,469.5,right,1,0.942,,469.5,470.5,0,8,8,2,1,total,2,images/Ex3.jpg,right,reversed,hard,2,,,,,
,,,,,562cd833733ea000111632ba,001,65,Female,British,Bec,2024-03-06_12h16.58.152,CRL1h,2023.2.3,MacIntel,71.42857143,65e67470ae2fbf2172c317b2,65e85e5da2ad759c8da840e0,,,,,,,,,,,470.501,0.7,471.2,471.2,472.233,left,0,1.026,,472.234,473.233,0,9,9,11,1,total,2,images/Ex4.jpg,right,reversed,hard,2,,,,,
,,,,,562cd833733ea000111632ba,001,65,Female,British,Bec,2024-03-06_12h16.58.152,CRL1h,2023.2.3,MacIntel,71.42857143,65e67470ae2fbf2172c317b2,65e85e5da2ad759c8da840e0,,,,,,,,,,,473.234,1,474.234,474.234,475.238,right,1,0.996,,475.238,476.234,0,10,10,0,1,total,2,images/Ex1.jpg,right,reversed,hard,2,,,,,
,,,,,562cd833733ea000111632ba,001,65,Female,British,Bec,2024-03-06_12h16.58.152,CRL1h,2023.2.3,MacIntel,71.42857143,65e67470ae2fbf2172c317b2,65e85e5da2ad759c8da840e0,,,,,,,,,,,476.234,0.6,476.834,476.834,477.52,right,0,0.679,,477.52,478.517,0,11,11,6,1,total,2,images/Ex7.jpg,left,reversed,hard,2,,,,,
,,,,,562cd833733ea000111632ba,001,65,Female,British,Bec,2024-03-06_12h16.58.152,CRL1h,2023.2.3,MacIntel,71.42857143,65e67470ae2fbf2172c317b2,65e85e5da2ad759c8da840e0,,,,,,,,,,,478.517,1.1,479.617,479.617,480.35,left,1,0.726,,480.35,481.35,0,12,12,13,1,total,2,images/Ex6.jpg,left,reversed,hard,2,,,,,
,,,,,562cd833733ea000111632ba,001,65,Female,British,Bec,2024-03-06_12h16.58.152,CRL1h,2023.2.3,MacIntel,71.42857143,65e67470ae2fbf2172c317b2,65e85e5da2ad759c8da840e0,,,,,,,,,,,481.35,1.1,482.451,482.451,483.051,left,1,0.593,,483.051,484.05,0,13,13,12,1,total,2,images/Ex5.jpg,left,reversed,hard,2,,,,,
,,,,,562cd833733ea000111632ba,001,65,Female,British,Bec,2024-03-06_12h16.58.152,CRL1h,2023.2.3,MacIntel,71.42857143,65e67470ae2fbf2172c317b2,65e85e5da2ad759c8da840e0,,,,,,,,,,,484.051,1,485.05,485.051,485.918,left,0,0.86,,485.918,486.917,0,14,14,3,1,total,2,images/Ex4.jpg,right,reversed,hard,2,,,,,
,,,,,562cd833733ea000111632ba,001,65,Female,British,Bec,2024-03-06_12h16.58.152,CRL1h,2023.2.3,MacIntel,71.42857143,65e67470ae2fbf2172c317b2,65e85e5da2ad759c8da840e0,,,,,,,,,,,486.917,0.6,487.517,487.517,488.334,right,0,0.803,,488.334,489.334,0,15,15,7,1,total,2,images/Ex8.jpg,left,reversed,hard,2,,,,,
,,,,,562cd833733ea000111632ba,001,65,Female,British,Bec,2024-03-06_12h16.58.152,CRL1h,2023.2.3,MacIntel,71.42857143,65e67470ae2fbf2172c317b2,65e85e5da2ad759c8da840e0,,,,,,,,,,,489.334,1.2,490.534,490.534,491.887,left,0,1.336,,491.887,492.884,1,0,16,0,1,total,2,images/Ex1.jpg,right,reversed,hard,2,,,,,
,,,,,562cd833733ea000111632ba,001,65,Female,British,Bec,2024-03-06_12h16.58.152,CRL1h,2023.2.3,MacIntel,71.42857143,65e67470ae2fbf2172c317b2,65e85e5da2ad759c8da840e0,,,,,,,,,,,492.884,0.6,493.484,493.484,494.401,right,1,0.91,,494.401,495.401,1,1,17,3,1,total,2,images/Ex4.jpg,right,reversed,hard,2,,,,,
,,,,,562cd833733ea000111632ba,001,65,Female,British,Bec,2024-03-06_12h16.58.152,CRL1h,2023.2.3,MacIntel,71.42857143,65e67470ae2fbf2172c317b2,65e85e5da2ad759c8da840e0,,,,,,,,,,,495.401,1.1,496.501,496.501,497.451,right,0,0.943,,497.451,498.451,1,2,18,7,1,total,2,images/Ex8.jpg,left,reversed,hard,2,,,,,
,,,,,562cd833733ea000111632ba,001,65,Female,British,Bec,2024-03-06_12h16.58.152,CRL1h,2023.2.3,MacIntel,71.42857143,65e67470ae2fbf2172c317b2,65e85e5da2ad759c8da840e0,,,,,,,,,,,498.451,1.5,499.951,499.951,500.669,left,1,0.711,,500.669,501.668,1,3,19,13,1,total,2,images/Ex6.jpg,left,reversed,hard,2,,,,,
,,,,,562cd833733ea000111632ba,001,65,Female,British,Bec,2024-03-06_12h16.58.152,CRL1h,2023.2.3,MacIntel,71.42857143,65e67470ae2fbf2172c317b2,65e85e5da2ad759c8da840e0,,,,,,,,,,,501.668,1.1,502.768,502.768,503.584,left,0,0.809,,503.584,504.584,1,4,20,10,1,total,2,images/Ex3.jpg,right,reversed,hard,2,,,,,
,,,,,562cd833733ea000111632ba,001,65,Female,British,Bec,2024-03-06_12h16.58.152,CRL1h,2023.2.3,MacIntel,71.42857143,65e67470ae2fbf2172c317b2,65e85e5da2ad759c8da840e0,,,,,,,,,,,504.585,1.4,505.984,505.984,507.084,right,1,1.092,,507.084,508.084,1,5,21,2,1,total,2,images/Ex3.jpg,right,reversed,hard,2,,,,,
,,,,,562cd833733ea000111632ba,001,65,Female,British,Bec,2024-03-06_12h16.58.152,CRL1h,2023.2.3,MacIntel,71.42857143,65e67470ae2fbf2172c317b2,65e85e5da2ad759c8da840e0,,,,,,,,,,,508.085,0.5,508.584,508.584,509.217,right,0,0.626,,509.217,510.217,1,6,22,4,1,total,2,images/Ex5.jpg,left,reversed,hard,2,,,,,
,,,,,562cd833733ea000111632ba,001,65,Female,British,Bec,2024-03-06_12h16.58.152,CRL1h,2023.2.3,MacIntel,71.42857143,65e67470ae2fbf2172c317b2,65e85e5da2ad759c8da840e0,,,,,,,,,,,510.217,1.1,511.318,511.318,512.118,left,1,0.786,,512.118,513.118,1,7,23,14,1,total,2,images/Ex7.jpg,left,reversed,hard,2,,,,,
,,,,,562cd833733ea000111632ba,001,65,Female,British,Bec,2024-03-06_12h16.58.152,CRL1h,2023.2.3,MacIntel,71.42857143,65e67470ae2fbf2172c317b2,65e85e5da2ad759c8da840e0,,,,,,,,,,,513.118,0.7,513.818,513.818,514.535,left,1,0.709,,514.535,515.535,1,8,24,12,1,total,2,images/Ex5.jpg,left,reversed,hard,2,,,,,
,,,,,562cd833733ea000111632ba,001,65,Female,British,Bec,2024-03-06_12h16.58.152,CRL1h,2023.2.3,MacIntel,71.42857143,65e67470ae2fbf2172c317b2,65e85e5da2ad759c8da840e0,,,,,,,,,,,515.535,1.1,516.635,516.635,517.268,left,0,0.626,,517.268,518.268,1,9,25,1,1,total,2,images/Ex2.jpg,right,reversed,hard,2,,,,,
,,,,,562cd833733ea000111632ba,001,65,Female,British,Bec,2024-03-06_12h16.58.152,CRL1h,2023.2.3,MacIntel,71.42857143,65e67470ae2fbf2172c317b2,65e85e5da2ad759c8da840e0,,,,,,,,,,,518.268,1.2,519.468,519.468,520.121,right,1,0.636,,520.121,521.118,1,10,26,8,1,total,2,images/Ex1.jpg,right,reversed,hard,2,,,,,
,,,,,562cd833733ea000111632ba,001,65,Female,British,Bec,2024-03-06_12h16.58.152,CRL1h,2023.2.3,MacIntel,71.42857143,65e67470ae2fbf2172c317b2,65e85e5da2ad759c8da840e0,,,,,,,,,,,521.119,0.7,521.818,521.818,522.552,right,0,0.725,,522.552,523.552,1,11,27,15,1,total,2,images/Ex8.jpg,left,reversed,hard,2,,,,,
,,,,,562cd833733ea000111632ba,001,65,Female,British,Bec,2024-03-06_12h16.58.152,CRL1h,2023.2.3,MacIntel,71.42857143,65e67470ae2fbf2172c317b2,65e85e5da2ad759c8da840e0,,,,,,,,,,,523.552,0.6,524.151,524.151,524.972,left,1,0.804,,524.972,525.968,1,12,28,6,1,total,2,images/Ex7.jpg,left,reversed,hard,2,,,,,
,,,,,562cd833733ea000111632ba,001,65,Female,British,Bec,2024-03-06_12h16.58.152,CRL1h,2023.2.3,MacIntel,71.42857143,65e67470ae2fbf2172c317b2,65e85e5da2ad759c8da840e0,,,,,,,,,,,525.968,0.6,526.568,526.568,527.202,left,0,0.626,,527.202,528.202,1,13,29,11,1,total,2,images/Ex4.jpg,right,reversed,hard,2,,,,,
,,,,,562cd833733ea000111632ba,001,65,Female,British,Bec,2024-03-06_12h16.58.152,CRL1h,2023.2.3,MacIntel,71.42857143,65e67470ae2fbf2172c317b2,65e85e5da2ad759c8da840e0,,,,,,,,,,,528.202,1.1,529.302,529.302,530.138,right,1,0.829,,530.138,531.135,1,14,30,9,1,total,2,images/Ex2.jpg,right,reversed,hard,2,,,,,
,,,,,562cd833733ea000111632ba,001,65,Female,British,Bec,2024-03-06_12h16.58.152,CRL1h,2023.2.3,MacIntel,71.42857143,65e67470ae2fbf2172c317b2,65e85e5da2ad759c8da840e0,,,,,,,,,,,531.135,1.1,532.235,532.235,532.839,right,0,0.597,,532.839,533.835,1,15,31,5,1,total,2,images/Ex6.jpg,left,reversed,hard,2,,,,,
,,,,,562cd833733ea000111632ba,001,65,Female,British,Bec,2024-03-06_12h16.58.152,CRL1h,2023.2.3,MacIntel,71.42857143,65e67470ae2fbf2172c317b2,65e85e5da2ad759c8da840e0,,,,,,,,,,,533.835,1,534.835,534.835,535.355,left,0,0.503,,535.355,536.352,2,0,32,1,1,total,2,images/Ex2.jpg,right,reversed,hard,2,,,,,
,,,,,562cd833733ea000111632ba,001,65,Female,British,Bec,2024-03-06_12h16.58.152,CRL1h,2023.2.3,MacIntel,71.42857143,65e67470ae2fbf2172c317b2,65e85e5da2ad759c8da840e0,,,,,,,,,,,536.352,1.3,537.652,537.652,538.319,right,1,0.66,,538.319,539.319,2,1,33,9,1,total,2,images/Ex2.jpg,right,reversed,hard,2,,,,,
,,,,,562cd833733ea000111632ba,001,65,Female,British,Bec,2024-03-06_12h16.58.152,CRL1h,2023.2.3,MacIntel,71.42857143,65e67470ae2fbf2172c317b2,65e85e5da2ad759c8da840e0,,,,,,,,,,,539.319,1.4,540.719,540.719,541.655,right,1,0.92,,541.655,542.652,2,2,34,3,1,total,2,images/Ex4.jpg,right,reversed,hard,2,,,,,
,,,,,562cd833733ea000111632ba,001,65,Female,British,Bec,2024-03-06_12h16.58.152,CRL1h,2023.2.3,MacIntel,71.42857143,65e67470ae2fbf2172c317b2,65e85e5da2ad759c8da840e0,,,,,,,,,,,542.652,1,543.652,543.652,544.489,right,1,0.819,,544.489,545.485,2,3,35,10,1,total,2,images/Ex3.jpg,right,reversed,hard,2,,,,,
,,,,,562cd833733ea000111632ba,001,65,Female,British,Bec,2024-03-06_12h16.58.152,CRL1h,2023.2.3,MacIntel,71.42857143,65e67470ae2fbf2172c317b2,65e85e5da2ad759c8da840e0,,,,,,,,,,,545.486,0.9,546.386,546.386,547.069,right,1,0.675,,547.069,548.069,2,4,36,0,1,total,2,images/Ex1.jpg,right,reversed,hard,2,,,,,
,,,,,562cd833733ea000111632ba,001,65,Female,British,Bec,2024-03-06_12h16.58.152,CRL1h,2023.2.3,MacIntel,71.42857143,65e67470ae2fbf2172c317b2,65e85e5da2ad759c8da840e0,,,,,,,,,,,548.069,0.5,548.569,548.569,549.02,right,1,0.443,,549.02,550.018,2,5,37,8,1,total,2,images/Ex1.jpg,right,reversed,hard,2,,,,,
,,,,,562cd833733ea000111632ba,001,65,Female,British,Bec,2024-03-06_12h16.58.152,CRL1h,2023.2.3,MacIntel,71.42857143,65e67470ae2fbf2172c317b2,65e85e5da2ad759c8da840e0,,,,,,,,,,,550.019,1.1,551.119,551.119,552.069,right,0,0.942,,552.069,553.069,2,6,38,6,1,total,2,images/Ex7.jpg,left,reversed,hard,2,,,,,
,,,,,562cd833733ea000111632ba,001,65,Female,British,Bec,2024-03-06_12h16.58.152,CRL1h,2023.2.3,MacIntel,71.42857143,65e67470ae2fbf2172c317b2,65e85e5da2ad759c8da840e0,,,,,,,,,,,553.069,0.8,553.869,553.869,554.522,left,0,0.644,,554.522,555.519,2,7,39,11,1,total,2,images/Ex4.jpg,right,reversed,hard,2,,,,,
,,,,,562cd833733ea000111632ba,001,65,Female,British,Bec,2024-03-06_12h16.58.152,CRL1h,2023.2.3,MacIntel,71.42857143,65e67470ae2fbf2172c317b2,65e85e5da2ad759c8da840e0,,,,,,,,,,,555.519,0.8,556.319,556.319,557.119,right,0,0.792,,557.119,558.119,2,8,40,14,1,total,2,images/Ex7.jpg,left,reversed,hard,2,,,,,
,,,,,562cd833733ea000111632ba,001,65,Female,British,Bec,2024-03-06_12h16.58.152,CRL1h,2023.2.3,MacIntel,71.42857143,65e67470ae2fbf2172c317b2,65e85e5da2ad759c8da840e0,,,,,,,,,,,558.119,1.3,559.419,559.419,560.471,left,0,1.045,,560.472,561.469,2,9,41,2,1,total,2,images/Ex3.jpg,right,reversed,hard,2,,,,,
,,,,,562cd833733ea000111632ba,001,65,Female,British,Bec,2024-03-06_12h16.58.152,CRL1h,2023.2.3,MacIntel,71.42857143,65e67470ae2fbf2172c317b2,65e85e5da2ad759c8da840e0,,,,,,,,,,,561.47,1,562.469,562.469,565.108,right,0,2.625,,565.108,566.103,2,10,42,15,1,total,2,images/Ex8.jpg,left,reversed,hard,2,,,,,
,,,,,562cd833733ea000111632ba,001,65,Female,British,Bec,2024-03-06_12h16.58.152,CRL1h,2023.2.3,MacIntel,71.42857143,65e67470ae2fbf2172c317b2,65e85e5da2ad759c8da840e0,,,,,,,,,,,566.103,0.9,567.003,567.003,567.67,left,1,0.66,,567.67,568.67,2,11,43,13,1,total,2,images/Ex6.jpg,left,reversed,hard,2,,,,,
,,,,,562cd833733ea000111632ba,001,65,Female,British,Bec,2024-03-06_12h16.58.152,CRL1h,2023.2.3,MacIntel,71.42857143,65e67470ae2fbf2172c317b2,65e85e5da2ad759c8da840e0,,,,,,,,,,,568.67,0.9,569.57,569.57,570.17,left,1,0.592,,570.17,571.169,2,12,44,5,1,total,2,images/Ex6.jpg,left,reversed,hard,2,,,,,
,,,,,562cd833733ea000111632ba,001,65,Female,British,Bec,2024-03-06_12h16.58.152,CRL1h,2023.2.3,MacIntel,71.42857143,65e67470ae2fbf2172c317b2,65e85e5da2ad759c8da840e0,,,,,,,,,,,571.169,0.8,571.97,571.97,574.286,left,1,2.309,,574.286,575.287,2,13,45,12,1,total,2,images/Ex5.jpg,left,reversed,hard,2,,,,,
,,,,,562cd833733ea000111632ba,001,65,Female,British,Bec,2024-03-06_12h16.58.152,CRL1h,2023.2.3,MacIntel,71.42857143,65e67470ae2fbf2172c317b2,65e85e5da2ad759c8da840e0,,,,,,,,,,,575.287,1.5,576.786,576.787,577.453,left,1,0.66,,577.454,578.453,2,14,46,7,1,total,2,images/Ex8.jpg,left,reversed,hard,2,,,,,
,,,,,562cd833733ea000111632ba,001,65,Female,British,Bec,2024-03-06_12h16.58.152,CRL1h,2023.2.3,MacIntel,71.42857143,65e67470ae2fbf2172c317b2,65e85e5da2ad759c8da840e0,,,,,,,,,,,578.453,1.2,579.653,579.653,580.153,left,1,0.492,,580.153,581.153,2,15,47,4,1,total,2,images/Ex5.jpg,left,reversed,hard,2,,,,,
,,,,,562cd833733ea000111632ba,001,65,Female,British,Bec,2024-03-06_12h16.58.152,CRL1h,2023.2.3,MacIntel,71.42857143,65e67470ae2fbf2172c317b2,65e85e5da2ad759c8da840e0,,,,,,,,,,,581.153,0.8,581.953,581.953,582.656,left,0,0.686,,582.656,583.653,3,0,48,9,1,total,2,images/Ex2.jpg,right,reversed,hard,2,,,,,
,,,,,562cd833733ea000111632ba,001,65,Female,British,Bec,2024-03-06_12h16.58.152,CRL1h,2023.2.3,MacIntel,71.42857143,65e67470ae2fbf2172c317b2,65e85e5da2ad759c8da840e0,,,,,,,,,,,583.654,0.7,584.353,584.353,585.49,left,1,1.119,,585.49,586.487,3,1,49,5,1,total,2,images/Ex6.jpg,left,reversed,hard,2,,,,,
,,,,,562cd833733ea000111632ba,001,65,Female,British,Bec,2024-03-06_12h16.58.152,CRL1h,2023.2.3,MacIntel,71.42857143,65e67470ae2fbf2172c317b2,65e85e5da2ad759c8da840e0,,,,,,,,,,,586.487,1.4,587.887,587.887,588.437,left,1,0.542,,588.437,589.436,3,2,50,6,1,total,2,images/Ex7.jpg,left,reversed,hard,2,,,,,
,,,,,562cd833733ea000111632ba,001,65,Female,British,Bec,2024-03-06_12h16.58.152,CRL1h,2023.2.3,MacIntel,71.42857143,65e67470ae2fbf2172c317b2,65e85e5da2ad759c8da840e0,,,,,,,,,,,589.436,1.5,590.937,590.937,591.472,left,0,0.529,,591.473,592.47,3,3,51,8,1,total,2,images/Ex1.jpg,right,reversed,hard,2,,,,,
,,,,,562cd833733ea000111632ba,001,65,Female,British,Bec,2024-03-06_12h16.58.152,CRL1h,2023.2.3,MacIntel,71.42857143,65e67470ae2fbf2172c317b2,65e85e5da2ad759c8da840e0,,,,,,,,,,,592.47,0.5,592.969,592.969,593.757,right,1,0.771,,593.757,594.753,3,4,52,1,1,total,2,images/Ex2.jpg,right,reversed,hard,2,,,,,
,,,,,562cd833733ea000111632ba,001,65,Female,British,Bec,2024-03-06_12h16.58.152,CRL1h,2023.2.3,MacIntel,71.42857143,65e67470ae2fbf2172c317b2,65e85e5da2ad759c8da840e0,,,,,,,,,,,594.753,0.9,595.654,595.654,596.37,right,1,0.71,,596.37,597.37,3,5,53,10,1,total,2,images/Ex3.jpg,right,reversed,hard,2,,,,,
,,,,,562cd833733ea000111632ba,001,65,Female,British,Bec,2024-03-06_12h16.58.152,CRL1h,2023.2.3,MacIntel,71.42857143,65e67470ae2fbf2172c317b2,65e85e5da2ad759c8da840e0,,,,,,,,,,,597.37,1.3,598.67,598.67,599.387,right,0,0.703,,599.387,600.387,3,6,54,12,1,total,2,images/Ex5.jpg,left,reversed,hard,2,,,,,
,,,,,562cd833733ea000111632ba,001,65,Female,British,Bec,2024-03-06_12h16.58.152,CRL1h,2023.2.3,MacIntel,71.42857143,65e67470ae2fbf2172c317b2,65e85e5da2ad759c8da840e0,,,,,,,,,,,600.387,1.2,601.587,601.587,602.321,left,1,0.727,,602.321,603.32,3,7,55,15,1,total,2,images/Ex8.jpg,left,reversed,hard,2,,,,,
,,,,,562cd833733ea000111632ba,001,65,Female,British,Bec,2024-03-06_12h16.58.152,CRL1h,2023.2.3,MacIntel,71.42857143,65e67470ae2fbf2172c317b2,65e85e5da2ad759c8da840e0,,,,,,,,,,,603.321,0.6,603.921,603.921,604.373,left,1,0.436,,604.373,605.371,3,8,56,7,1,total,2,images/Ex8.jpg,left,reversed,hard,2,,,,,
,,,,,562cd833733ea000111632ba,001,65,Female,British,Bec,2024-03-06_12h16.58.152,CRL1h,2023.2.3,MacIntel,71.42857143,65e67470ae2fbf2172c317b2,65e85e5da2ad759c8da840e0,,,,,,,,,,,605.371,1.1,606.471,606.471,607.156,left,1,0.679,,607.156,608.153,3,9,57,13,1,total,2,images/Ex6.jpg,left,reversed,hard,2,,,,,
,,,,,562cd833733ea000111632ba,001,65,Female,British,Bec,2024-03-06_12h16.58.152,CRL1h,2023.2.3,MacIntel,71.42857143,65e67470ae2fbf2172c317b2,65e85e5da2ad759c8da840e0,,,,,,,,,,,608.154,1.5,609.654,609.654,610.288,left,1,0.627,,610.288,611.287,3,10,58,4,1,total,2,images/Ex5.jpg,left,reversed,hard,2,,,,,
,,,,,562cd833733ea000111632ba,001,65,Female,British,Bec,2024-03-06_12h16.58.152,CRL1h,2023.2.3,MacIntel,71.42857143,65e67470ae2fbf2172c317b2,65e85e5da2ad759c8da840e0,,,,,,,,,,,611.288,1.1,612.387,612.387,612.991,left,1,0.586,,612.991,613.988,3,11,59,14,1,total,2,images/Ex7.jpg,left,reversed,hard,2,,,,,
,,,,,562cd833733ea000111632ba,001,65,Female,British,Bec,2024-03-06_12h16.58.152,CRL1h,2023.2.3,MacIntel,71.42857143,65e67470ae2fbf2172c317b2,65e85e5da2ad759c8da840e0,,,,,,,,,,,613.988,1,614.987,614.988,615.754,left,0,0.759,,615.754,616.754,3,12,60,2,1,total,2,images/Ex3.jpg,right,reversed,hard,2,,,,,
,,,,,562cd833733ea000111632ba,001,65,Female,British,Bec,2024-03-06_12h16.58.152,CRL1h,2023.2.3,MacIntel,71.42857143,65e67470ae2fbf2172c317b2,65e85e5da2ad759c8da840e0,,,,,,,,,,,616.754,1.5,618.254,618.254,619.439,right,1,1.177,,619.439,620.438,3,13,61,0,1,total,2,images/Ex1.jpg,right,reversed,hard,2,,,,,
,,,,,562cd833733ea000111632ba,001,65,Female,British,Bec,2024-03-06_12h16.58.152,CRL1h,2023.2.3,MacIntel,71.42857143,65e67470ae2fbf2172c317b2,65e85e5da2ad759c8da840e0,,,,,,,,,,,620.438,1.3,621.739,621.739,622.44,right,1,0.686,,622.44,623.438,3,14,62,3,1,total,2,images/Ex4.jpg,right,reversed,hard,2,,,,,
,,,,,562cd833733ea000111632ba,001,65,Female,British,Bec,2024-03-06_12h16.58.152,CRL1h,2023.2.3,MacIntel,71.42857143,65e67470ae2fbf2172c317b2,65e85e5da2ad759c8da840e0,,,,,,,,,,,623.438,1.2,624.638,624.638,625.321,right,1,0.67,,625.321,626.321,3,15,63,11,1,total,2,images/Ex4.jpg,right,reversed,hard,2,,,,,
,,,,,562cd833733ea000111632ba,001,65,Female,British,Bec,2024-03-06_12h16.58.152,CRL1h,2023.2.3,MacIntel,71.42857143,65e67470ae2fbf2172c317b2,65e85e5da2ad759c8da840e0,,,,,,626.322,629.258,space,2.926,,629.26,1.2,630.455,630.455,633.076,right,1,2.613,,633.076,634.071,0,0,0,12,1,partial,1,images/Ex13.jpg,right,training,hard,2,,,,,
,,,,,562cd833733ea000111632ba,001,65,Female,British,Bec,2024-03-06_12h16.58.152,CRL1h,2023.2.3,MacIntel,71.42857143,65e67470ae2fbf2172c317b2,65e85e5da2ad759c8da840e0,,,,,,,,,,,634.072,0.7,634.772,634.772,635.675,right,0,0.886,,635.675,636.671,0,1,1,10,1,partial,1,images/Ex11.jpg,left,training,hard,2,,,,,
,,,,,562cd833733ea000111632ba,001,65,Female,British,Bec,2024-03-06_12h16.58.152,CRL1h,2023.2.3,MacIntel,71.42857143,65e67470ae2fbf2172c317b2,65e85e5da2ad759c8da840e0,,,,,,,,,,,636.672,1.2,637.872,637.872,639.205,left,0,1.327,,639.205,640.205,0,2,2,15,1,partial,1,images/Ex16.jpg,right,training,hard,2,,,,,
,,,,,562cd833733ea000111632ba,001,65,Female,British,Bec,2024-03-06_12h16.58.152,CRL1h,2023.2.3,MacIntel,71.42857143,65e67470ae2fbf2172c317b2,65e85e5da2ad759c8da840e0,,,,,,,,,,,640.205,1.2,641.405,641.405,642.472,left,1,1.06,,642.472,643.472,0,3,3,11,1,partial,1,images/Ex12.jpg,left,training,hard,2,,,,,
,,,,,562cd833733ea000111632ba,001,65,Female,British,Bec,2024-03-06_12h16.58.152,CRL1h,2023.2.3,MacIntel,71.42857143,65e67470ae2fbf2172c317b2,65e85e5da2ad759c8da840e0,,,,,,,,,,,643.472,1.2,644.672,644.672,645.326,left,1,0.647,,645.326,646.322,0,4,4,3,1,partial,1,images/Ex12.jpg,left,training,hard,2,,,,,
,,,,,562cd833733ea000111632ba,001,65,Female,British,Bec,2024-03-06_12h16.58.152,CRL1h,2023.2.3,MacIntel,71.42857143,65e67470ae2fbf2172c317b2,65e85e5da2ad759c8da840e0,,,,,,,,,,,646.322,0.6,646.922,646.922,648.026,left,1,1.096,,648.026,649.022,0,5,5,8,1,partial,1,images/Ex9.jpg,left,training,hard,2,,,,,
,,,,,562cd833733ea000111632ba,001,65,Female,British,Bec,2024-03-06_12h16.58.152,CRL1h,2023.2.3,MacIntel,71.42857143,65e67470ae2fbf2172c317b2,65e85e5da2ad759c8da840e0,,,,,,,,,,,649.022,0.8,649.822,649.822,650.492,left,0,0.653,,650.492,651.489,0,6,6,4,1,partial,1,images/Ex13.jpg,right,training,hard,2,,,,,
,,,,,562cd833733ea000111632ba,001,65,Female,British,Bec,2024-03-06_12h16.58.152,CRL1h,2023.2.3,MacIntel,71.42857143,65e67470ae2fbf2172c317b2,65e85e5da2ad759c8da840e0,,,,,,,,,,,651.489,0.5,651.989,651.989,652.776,right,0,0.775,,652.776,653.772,0,7,7,1,1,partial,1,images/Ex10.jpg,left,training,hard,2,,,,,
,,,,,562cd833733ea000111632ba,001,65,Female,British,Bec,2024-03-06_12h16.58.152,CRL1h,2023.2.3,MacIntel,71.42857143,65e67470ae2fbf2172c317b2,65e85e5da2ad759c8da840e0,,,,,,,,,,,653.772,0.6,654.372,654.372,655.006,left,1,0.627,,655.006,656.005,0,8,8,9,1,partial,1,images/Ex10.jpg,left,training,hard,2,,,,,
,,,,,562cd833733ea000111632ba,001,65,Female,British,Bec,2024-03-06_12h16.58.152,CRL1h,2023.2.3,MacIntel,71.42857143,65e67470ae2fbf2172c317b2,65e85e5da2ad759c8da840e0,,,,,,,,,,,656.005,1.2,657.205,657.205,658.189,left,1,0.976,,658.189,659.189,0,9,9,2,1,partial,1,images/Ex11.jpg,left,training,hard,2,,,,,
,,,,,562cd833733ea000111632ba,001,65,Female,British,Bec,2024-03-06_12h16.58.152,CRL1h,2023.2.3,MacIntel,71.42857143,65e67470ae2fbf2172c317b2,65e85e5da2ad759c8da840e0,,,,,,,,,,,659.189,0.7,659.889,659.889,660.739,left,0,0.837,,660.739,661.739,0,10,10,6,1,partial,1,images/Ex15.jpg,right,training,hard,2,,,,,
,,,,,562cd833733ea000111632ba,001,65,Female,British,Bec,2024-03-06_12h16.58.152,CRL1h,2023.2.3,MacIntel,71.42857143,65e67470ae2fbf2172c317b2,65e85e5da2ad759c8da840e0,,,,,,,,,,,661.739,0.9,662.639,662.639,663.372,right,1,0.726,,663.372,664.372,0,11,11,7,1,partial,1,images/Ex16.jpg,right,training,hard,2,,,,,
,,,,,562cd833733ea000111632ba,001,65,Female,British,Bec,2024-03-06_12h16.58.152,CRL1h,2023.2.3,MacIntel,71.42857143,65e67470ae2fbf2172c317b2,65e85e5da2ad759c8da840e0,,,,,,,,,,,664.372,0.7,665.072,665.072,665.691,right,0,0.611,,665.691,666.689,0,12,12,0,1,partial,1,images/Ex9.jpg,left,training,hard,2,,,,,
,,,,,562cd833733ea000111632ba,001,65,Female,British,Bec,2024-03-06_12h16.58.152,CRL1h,2023.2.3,MacIntel,71.42857143,65e67470ae2fbf2172c317b2,65e85e5da2ad759c8da840e0,,,,,,,,,,,666.689,1.2,667.889,667.889,668.572,left,0,0.676,,668.572,669.572,0,13,13,5,1,partial,1,images/Ex14.jpg,right,training,hard,2,,,,,
,,,,,562cd833733ea000111632ba,001,65,Female,British,Bec,2024-03-06_12h16.58.152,CRL1h,2023.2.3,MacIntel,71.42857143,65e67470ae2fbf2172c317b2,65e85e5da2ad759c8da840e0,,,,,,,,,,,669.573,1.2,670.772,670.773,671.572,right,1,0.793,,671.572,672.573,0,14,14,13,1,partial,1,images/Ex14.jpg,right,training,hard,2,,,,,
,,,,,562cd833733ea000111632ba,001,65,Female,British,Bec,2024-03-06_12h16.58.152,CRL1h,2023.2.3,MacIntel,71.42857143,65e67470ae2fbf2172c317b2,65e85e5da2ad759c8da840e0,,,,,,,,,,,672.573,0.8,673.373,673.373,674.175,right,1,0.786,,674.175,675.173,0,15,15,14,1,partial,1,images/Ex15.jpg,right,training,hard,2,,,,,
,,,,,562cd833733ea000111632ba,001,65,Female,British,Bec,2024-03-06_12h16.58.152,CRL1h,2023.2.3,MacIntel,71.42857143,65e67470ae2fbf2172c317b2,65e85e5da2ad759c8da840e0,,,,,,,,,,,675.173,1.1,676.272,676.272,677.424,right,1,1.144,,677.424,678.423,1,0,16,4,1,partial,1,images/Ex13.jpg,right,training,hard,2,,,,,
,,,,,562cd833733ea000111632ba,001,65,Female,British,Bec,2024-03-06_12h16.58.152,CRL1h,2023.2.3,MacIntel,71.42857143,65e67470ae2fbf2172c317b2,65e85e5da2ad759c8da840e0,,,,,,,,,,,678.423,0.6,679.022,679.022,679.924,right,1,0.895,,679.924,680.923,1,1,17,13,1,partial,1,images/Ex14.jpg,right,training,hard,2,,,,,
,,,,,562cd833733ea000111632ba,001,65,Female,British,Bec,2024-03-06_12h16.58.152,CRL1h,2023.2.3,MacIntel,71.42857143,65e67470ae2fbf2172c317b2,65e85e5da2ad759c8da840e0,,,,,,,,,,,680.923,0.8,681.723,681.723,682.909,left,1,1.168,,682.909,683.906,1,2,18,3,1,partial,1,images/Ex12.jpg,left,training,hard,2,,,,,
,,,,,562cd833733ea000111632ba,001,65,Female,British,Bec,2024-03-06_12h16.58.152,CRL1h,2023.2.3,MacIntel,71.42857143,65e67470ae2fbf2172c317b2,65e85e5da2ad759c8da840e0,,,,,,,,,,,683.906,0.8,684.706,684.706,685.39,left,1,0.677,,685.39,686.39,1,3,19,8,1,partial,1,images/Ex9.jpg,left,training,hard,2,,,,,
,,,,,562cd833733ea000111632ba,001,65,Female,British,Bec,2024-03-06_12h16.58.152,CRL1h,2023.2.3,MacIntel,71.42857143,65e67470ae2fbf2172c317b2,65e85e5da2ad759c8da840e0,,,,,,,,,,,686.39,1.2,687.59,687.59,688.143,left,1,0.536,,688.143,689.14,1,4,20,0,1,partial,1,images/Ex9.jpg,left,training,hard,2,,,,,
,,,,,562cd833733ea000111632ba,001,65,Female,British,Bec,2024-03-06_12h16.58.152,CRL1h,2023.2.3,MacIntel,71.42857143,65e67470ae2fbf2172c317b2,65e85e5da2ad759c8da840e0,,,,,,,,,,,689.14,0.6,689.739,689.739,690.394,left,1,0.642,,690.394,691.39,1,5,21,10,1,partial,1,images/Ex11.jpg,left,training,hard,2,,,,,
,,,,,562cd833733ea000111632ba,001,65,Female,British,Bec,2024-03-06_12h16.58.152,CRL1h,2023.2.3,MacIntel,71.42857143,65e67470ae2fbf2172c317b2,65e85e5da2ad759c8da840e0,,,,,,,,,,,691.39,1.1,692.489,692.489,692.923,left,0,0.42,,692.923,693.923,1,6,22,6,1,partial,1,images/Ex15.jpg,right,training,hard,2,,,,,
,,,,,562cd833733ea000111632ba,001,65,Female,British,Bec,2024-03-06_12h16.58.152,CRL1h,2023.2.3,MacIntel,71.42857143,65e67470ae2fbf2172c317b2,65e85e5da2ad759c8da840e0,,,,,,,,,,,693.924,1.4,695.323,695.323,696.193,right,1,0.852,,696.193,697.19,1,7,23,15,1,partial,1,images/Ex16.jpg,right,training,hard,2,,,,,
,,,,,562cd833733ea000111632ba,001,65,Female,British,Bec,2024-03-06_12h16.58.152,CRL1h,2023.2.3,MacIntel,71.42857143,65e67470ae2fbf2172c317b2,65e85e5da2ad759c8da840e0,,,,,,,,,,,697.19,1.1,698.29,698.29,699.024,right,0,0.726,,699.024,700.023,1,8,24,2,1,partial,1,images/Ex11.jpg,left,training,hard,2,,,,,
,,,,,562cd833733ea000111632ba,001,65,Female,British,Bec,2024-03-06_12h16.58.152,CRL1h,2023.2.3,MacIntel,71.42857143,65e67470ae2fbf2172c317b2,65e85e5da2ad759c8da840e0,,,,,,,,,,,700.023,1.3,701.324,701.324,701.977,left,0,0.645,,701.977,702.973,1,9,25,7,1,partial,1,images/Ex16.jpg,right,training,hard,2,,,,,
,,,,,562cd833733ea000111632ba,001,65,Female,British,Bec,2024-03-06_12h16.58.152,CRL1h,2023.2.3,MacIntel,71.42857143,65e67470ae2fbf2172c317b2,65e85e5da2ad759c8da840e0,,,,,,,,,,,702.974,1,703.973,703.973,704.81,right,0,0.819,,704.81,705.806,1,10,26,9,1,partial,1,images/Ex10.jpg,left,training,hard,2,,,,,
,,,,,562cd833733ea000111632ba,001,65,Female,British,Bec,2024-03-06_12h16.58.152,CRL1h,2023.2.3,MacIntel,71.42857143,65e67470ae2fbf2172c317b2,65e85e5da2ad759c8da840e0,,,,,,,,,,,705.807,0.6,706.407,706.407,707.857,left,0,1.437,,707.857,708.857,1,11,27,5,1,partial,1,images/Ex14.jpg,right,training,hard,2,,,,,
,,,,,562cd833733ea000111632ba,001,65,Female,British,Bec,2024-03-06_12h16.58.152,CRL1h,2023.2.3,MacIntel,71.42857143,65e67470ae2fbf2172c317b2,65e85e5da2ad759c8da840e0,,,,,,,,,,,708.857,1.3,710.157,710.157,710.924,left,1,0.759,,710.924,711.924,1,12,28,11,1,partial,1,images/Ex12.jpg,left,training,hard,2,,,,,
,,,,,562cd833733ea000111632ba,001,65,Female,British,Bec,2024-03-06_12h16.58.152,CRL1h,2023.2.3,MacIntel,71.42857143,65e67470ae2fbf2172c317b2,65e85e5da2ad759c8da840e0,,,,,,,,,,,711.924,1.3,713.224,713.224,714.026,left,0,0.787,,714.026,715.024,1,13,29,14,1,partial,1,images/Ex15.jpg,right,training,hard,2,,,,,
,,,,,562cd833733ea000111632ba,001,65,Female,British,Bec,2024-03-06_12h16.58.152,CRL1h,2023.2.3,MacIntel,71.42857143,65e67470ae2fbf2172c317b2,65e85e5da2ad759c8da840e0,,,,,,,,,,,715.024,1.5,716.524,716.524,717.144,right,1,0.612,,717.144,718.14,1,14,30,12,1,partial,1,images/Ex13.jpg,right,training,hard,2,,,,,
,,,,,562cd833733ea000111632ba,001,65,Female,British,Bec,2024-03-06_12h16.58.152,CRL1h,2023.2.3,MacIntel,71.42857143,65e67470ae2fbf2172c317b2,65e85e5da2ad759c8da840e0,,,,,,,,,,,718.141,0.8,718.94,718.94,719.595,right,0,0.636,,719.595,720.591,1,15,31,1,1,partial,1,images/Ex10.jpg,left,training,hard,2,,,,,
,,,,,562cd833733ea000111632ba,001,65,Female,British,Bec,2024-03-06_12h16.58.152,CRL1h,2023.2.3,MacIntel,71.42857143,65e67470ae2fbf2172c317b2,65e85e5da2ad759c8da840e0,,,,,,,,,,,720.591,0.7,721.291,721.291,722.207,left,0,0.909,,722.207,723.207,2,0,32,13,1,partial,1,images/Ex14.jpg,right,training,hard,2,,,,,
,,,,,562cd833733ea000111632ba,001,65,Female,British,Bec,2024-03-06_12h16.58.152,CRL1h,2023.2.3,MacIntel,71.42857143,65e67470ae2fbf2172c317b2,65e85e5da2ad759c8da840e0,,,,,,,,,,,723.207,0.7,723.907,723.907,724.758,left,0,0.842,,724.758,725.757,2,1,33,7,1,partial,1,images/Ex16.jpg,right,training,hard,2,,,,,
,,,,,562cd833733ea000111632ba,001,65,Female,British,Bec,2024-03-06_12h16.58.152,CRL1h,2023.2.3,MacIntel,71.42857143,65e67470ae2fbf2172c317b2,65e85e5da2ad759c8da840e0,,,,,,,,,,,725.758,1.1,726.857,726.857,727.591,right,1,0.726,,727.591,728.591,2,2,34,14,1,partial,1,images/Ex15.jpg,right,training,hard,2,,,,,
,,,,,562cd833733ea000111632ba,001,65,Female,British,Bec,2024-03-06_12h16.58.152,CRL1h,2023.2.3,MacIntel,71.42857143,65e67470ae2fbf2172c317b2,65e85e5da2ad759c8da840e0,,,,,,,,,,,728.591,1.3,729.891,729.891,730.475,right,1,0.577,,730.475,731.474,2,3,35,12,1,partial,1,images/Ex13.jpg,right,training,hard,2,,,,,
,,,,,562cd833733ea000111632ba,001,65,Female,British,Bec,2024-03-06_12h16.58.152,CRL1h,2023.2.3,MacIntel,71.42857143,65e67470ae2fbf2172c317b2,65e85e5da2ad759c8da840e0,,,,,,,,,,,731.475,0.6,732.074,732.074,732.861,right,1,0.78,,732.861,733.858,2,4,36,5,1,partial,1,images/Ex14.jpg,right,training,hard,2,,,,,
,,,,,562cd833733ea000111632ba,001,65,Female,British,Bec,2024-03-06_12h16.58.152,CRL1h,2023.2.3,MacIntel,71.42857143,65e67470ae2fbf2172c317b2,65e85e5da2ad759c8da840e0,,,,,,,,,,,733.858,0.7,734.558,734.558,735.411,right,0,0.836,,735.411,736.408,2,5,37,11,1,partial,1,images/Ex12.jpg,left,training,hard,2,,,,,
,,,,,562cd833733ea000111632ba,001,65,Female,British,Bec,2024-03-06_12h16.58.152,CRL1h,2023.2.3,MacIntel,71.42857143,65e67470ae2fbf2172c317b2,65e85e5da2ad759c8da840e0,,,,,,,,,,,736.408,0.5,736.908,736.908,737.974,left,1,1.059,,737.974,738.974,2,6,38,8,1,partial,1,images/Ex9.jpg,left,training,hard,2,,,,,
,,,,,562cd833733ea000111632ba,001,65,Female,British,Bec,2024-03-06_12h16.58.152,CRL1h,2023.2.3,MacIntel,71.42857143,65e67470ae2fbf2172c317b2,65e85e5da2ad759c8da840e0,,,,,,,,,,,738.975,1.2,740.174,740.174,740.979,left,0,0.793,,740.979,741.974,2,7,39,6,1,partial,1,images/Ex15.jpg,right,training,hard,2,,,,,
,,,,,562cd833733ea000111632ba,001,65,Female,British,Bec,2024-03-06_12h16.58.152,CRL1h,2023.2.3,MacIntel,71.42857143,65e67470ae2fbf2172c317b2,65e85e5da2ad759c8da840e0,,,,,,,,,,,741.975,0.8,742.774,742.774,743.991,right,0,1.209,,743.991,744.99,2,8,40,2,1,partial,1,images/Ex11.jpg,left,training,hard,2,,,,,
,,,,,562cd833733ea000111632ba,001,65,Female,British,Bec,2024-03-06_12h16.58.152,CRL1h,2023.2.3,MacIntel,71.42857143,65e67470ae2fbf2172c317b2,65e85e5da2ad759c8da840e0,,,,,,,,,,,744.991,1,745.991,745.991,746.875,left,1,0.869,,746.875,747.875,2,9,41,3,1,partial,1,images/Ex12.jpg,left,training,hard,2,,,,,
,,,,,562cd833733ea000111632ba,001,65,Female,British,Bec,2024-03-06_12h16.58.152,CRL1h,2023.2.3,MacIntel,71.42857143,65e67470ae2fbf2172c317b2,65e85e5da2ad759c8da840e0,,,,,,,,,,,747.875,0.9,748.775,748.775,749.375,left,1,0.593,,749.375,750.375,2,10,42,1,1,partial,1,images/Ex10.jpg,left,training,hard,2,,,,,
,,,,,562cd833733ea000111632ba,001,65,Female,British,Bec,2024-03-06_12h16.58.152,CRL1h,2023.2.3,MacIntel,71.42857143,65e67470ae2fbf2172c317b2,65e85e5da2ad759c8da840e0,,,,,,,,,,,750.375,0.8,751.175,751.175,751.761,left,1,0.579,,751.761,752.758,2,11,43,0,1,partial,1,images/Ex9.jpg,left,training,hard,2,,,,,
,,,,,562cd833733ea000111632ba,001,65,Female,British,Bec,2024-03-06_12h16.58.152,CRL1h,2023.2.3,MacIntel,71.42857143,65e67470ae2fbf2172c317b2,65e85e5da2ad759c8da840e0,,,,,,,,,,,752.758,1,753.758,753.758,754.276,left,0,0.517,,754.276,755.274,2,12,44,15,1,partial,1,images/Ex16.jpg,right,training,hard,2,,,,,
,,,,,562cd833733ea000111632ba,001,65,Female,British,Bec,2024-03-06_12h16.58.152,CRL1h,2023.2.3,MacIntel,71.42857143,65e67470ae2fbf2172c317b2,65e85e5da2ad759c8da840e0,,,,,,,,,,,755.275,1.3,756.575,756.575,758.528,right,0,1.936,,758.528,759.525,2,13,45,10,1,partial,1,images/Ex11.jpg,left,training,hard,2,,,,,
,,,,,562cd833733ea000111632ba,001,65,Female,British,Bec,2024-03-06_12h16.58.152,CRL1h,2023.2.3,MacIntel,71.42857143,65e67470ae2fbf2172c317b2,65e85e5da2ad759c8da840e0,,,,,,,,,,,759.525,1,760.525,760.525,761.091,left,1,0.553,,761.091,762.092,2,14,46,9,1,partial,1,images/Ex10.jpg,left,training,hard,2,,,,,
,,,,,562cd833733ea000111632ba,001,65,Female,British,Bec,2024-03-06_12h16.58.152,CRL1h,2023.2.3,MacIntel,71.42857143,65e67470ae2fbf2172c317b2,65e85e5da2ad759c8da840e0,,,,,,,,,,,762.092,1.5,763.592,763.592,764.213,left,0,0.614,,764.213,765.208,2,15,47,4,1,partial,1,images/Ex13.jpg,right,training,hard,2,,,,,
,,,,,562cd833733ea000111632ba,001,65,Female,British,Bec,2024-03-06_12h16.58.152,CRL1h,2023.2.3,MacIntel,71.42857143,65e67470ae2fbf2172c317b2,65e85e5da2ad759c8da840e0,,,,,,,,,,,765.209,0.5,765.708,765.708,766.259,right,1,0.542,,766.259,767.259,3,0,48,14,1,partial,1,images/Ex15.jpg,right,training,hard,2,,,,,
,,,,,562cd833733ea000111632ba,001,65,Female,British,Bec,2024-03-06_12h16.58.152,CRL1h,2023.2.3,MacIntel,71.42857143,65e67470ae2fbf2172c317b2,65e85e5da2ad759c8da840e0,,,,,,,,,,,767.259,0.7,767.959,767.959,768.509,right,1,0.543,,768.509,769.509,3,1,49,7,1,partial,1,images/Ex16.jpg,right,training,hard,2,,,,,
,,,,,562cd833733ea000111632ba,001,65,Female,British,Bec,2024-03-06_12h16.58.152,CRL1h,2023.2.3,MacIntel,71.42857143,65e67470ae2fbf2172c317b2,65e85e5da2ad759c8da840e0,,,,,,,,,,,769.509,1.1,770.609,770.609,771.23,right,0,0.614,,771.23,772.225,3,2,50,10,1,partial,1,images/Ex11.jpg,left,training,hard,2,,,,,
,,,,,562cd833733ea000111632ba,001,65,Female,British,Bec,2024-03-06_12h16.58.152,CRL1h,2023.2.3,MacIntel,71.42857143,65e67470ae2fbf2172c317b2,65e85e5da2ad759c8da840e0,,,,,,,,,,,772.226,0.5,772.725,772.725,773.311,left,1,0.578,,773.311,774.309,3,3,51,3,1,partial,1,images/Ex12.jpg,left,training,hard,2,,,,,
,,,,,562cd833733ea000111632ba,001,65,Female,British,Bec,2024-03-06_12h16.58.152,CRL1h,2023.2.3,MacIntel,71.42857143,65e67470ae2fbf2172c317b2,65e85e5da2ad759c8da840e0,,,,,,,,,,,774.309,0.9,775.209,775.209,775.709,left,0,0.492,,775.709,776.709,3,4,52,12,1,partial,1,images/Ex13.jpg,right,training,hard,2,,,,,
,,,,,562cd833733ea000111632ba,001,65,Female,British,Bec,2024-03-06_12h16.58.152,CRL1h,2023.2.3,MacIntel,71.42857143,65e67470ae2fbf2172c317b2,65e85e5da2ad759c8da840e0,,,,,,,,,,,776.709,1.2,777.909,777.909,778.392,right,0,0.476,,778.392,779.392,3,5,53,0,1,partial,1,images/Ex9.jpg,left,training,hard,2,,,,,
,,,,,562cd833733ea000111632ba,001,65,Female,British,Bec,2024-03-06_12h16.58.152,CRL1h,2023.2.3,MacIntel,71.42857143,65e67470ae2fbf2172c317b2,65e85e5da2ad759c8da840e0,,,,,,,,,,,779.392,1.1,780.492,780.492,781.426,left,1,0.926,,781.426,782.426,3,6,54,2,1,partial,1,images/Ex11.jpg,left,training,hard,2,,,,,
,,,,,562cd833733ea000111632ba,001,65,Female,British,Bec,2024-03-06_12h16.58.152,CRL1h,2023.2.3,MacIntel,71.42857143,65e67470ae2fbf2172c317b2,65e85e5da2ad759c8da840e0,,,,,,,,,,,782.426,0.7,783.126,783.126,784.08,left,0,0.947,,784.08,785.075,3,7,55,13,1,partial,1,images/Ex14.jpg,right,training,hard,2,,,,,
,,,,,562cd833733ea000111632ba,001,65,Female,British,Bec,2024-03-06_12h16.58.152,CRL1h,2023.2.3,MacIntel,71.42857143,65e67470ae2fbf2172c317b2,65e85e5da2ad759c8da840e0,,,,,,,,,,,785.075,1.2,786.275,786.275,786.994,right,1,0.711,,786.994,787.992,3,8,56,6,1,partial,1,images/Ex15.jpg,right,training,hard,2,,,,,
,,,,,562cd833733ea000111632ba,001,65,Female,British,Bec,2024-03-06_12h16.58.152,CRL1h,2023.2.3,MacIntel,71.42857143,65e67470ae2fbf2172c317b2,65e85e5da2ad759c8da840e0,,,,,,,,,,,787.993,0.7,788.693,788.693,789.495,right,0,0.786,,789.495,790.493,3,9,57,9,1,partial,1,images/Ex10.jpg,left,training,hard,2,,,,,
,,,,,562cd833733ea000111632ba,001,65,Female,British,Bec,2024-03-06_12h16.58.152,CRL1h,2023.2.3,MacIntel,71.42857143,65e67470ae2fbf2172c317b2,65e85e5da2ad759c8da840e0,,,,,,,,,,,790.493,1.5,791.993,791.993,792.625,left,0,0.626,,792.625,793.626,3,10,58,15,1,partial,1,images/Ex16.jpg,right,training,hard,2,,,,,
,,,,,562cd833733ea000111632ba,001,65,Female,British,Bec,2024-03-06_12h16.58.152,CRL1h,2023.2.3,MacIntel,71.42857143,65e67470ae2fbf2172c317b2,65e85e5da2ad759c8da840e0,,,,,,,,,,,793.626,1,794.626,794.626,796.029,right,0,1.396,,796.029,797.026,3,11,59,8,1,partial,1,images/Ex9.jpg,left,training,hard,2,,,,,
,,,,,562cd833733ea000111632ba,001,65,Female,British,Bec,2024-03-06_12h16.58.152,CRL1h,2023.2.3,MacIntel,71.42857143,65e67470ae2fbf2172c317b2,65e85e5da2ad759c8da840e0,,,,,,,,,,,797.026,0.7,797.726,797.726,798.746,left,0,1.003,,798.747,799.743,3,12,60,5,1,partial,1,images/Ex14.jpg,right,training,hard,2,,,,,
,,,,,562cd833733ea000111632ba,001,65,Female,British,Bec,2024-03-06_12h16.58.152,CRL1h,2023.2.3,MacIntel,71.42857143,65e67470ae2fbf2172c317b2,65e85e5da2ad759c8da840e0,,,,,,,,,,,799.743,0.6,800.342,800.342,800.993,left,1,0.642,,800.993,801.993,3,13,61,11,1,partial,1,images/Ex12.jpg,left,training,hard,2,,,,,
,,,,,562cd833733ea000111632ba,001,65,Female,British,Bec,2024-03-06_12h16.58.152,CRL1h,2023.2.3,MacIntel,71.42857143,65e67470ae2fbf2172c317b2,65e85e5da2ad759c8da840e0,,,,,,,,,,,801.993,1.4,803.393,803.393,804.03,left,0,0.629,,804.03,805.026,3,14,62,4,1,partial,1,images/Ex13.jpg,right,training,hard,2,,,,,
,,,,,562cd833733ea000111632ba,001,65,Female,British,Bec,2024-03-06_12h16.58.152,CRL1h,2023.2.3,MacIntel,71.42857143,65e67470ae2fbf2172c317b2,65e85e5da2ad759c8da840e0,,,,,,,,,,,805.026,1.5,806.526,806.526,807.045,right,0,0.512,,807.045,808.043,3,15,63,1,1,partial,1,images/Ex10.jpg,left,training,hard,2,,,,,
,,,,,562cd833733ea000111632ba,001,65,Female,British,Bec,2024-03-06_12h16.58.152,CRL1h,2023.2.3,MacIntel,71.42857143,65e67470ae2fbf2172c317b2,65e85e5da2ad759c8da840e0,,,,,,,,,,,808.043,0.6,808.644,808.644,810.11,left,1,1.458,,810.11,811.11,4,0,64,9,1,partial,1,images/Ex10.jpg,left,training,hard,2,,,,,
,,,,,562cd833733ea000111632ba,001,65,Female,British,Bec,2024-03-06_12h16.58.152,CRL1h,2023.2.3,MacIntel,71.42857143,65e67470ae2fbf2172c317b2,65e85e5da2ad759c8da840e0,,,,,,,,,,,811.11,1.4,812.51,812.51,813.247,left,1,0.72,,813.247,814.243,4,1,65,1,1,partial,1,images/Ex10.jpg,left,training,hard,2,,,,,
,,,,,562cd833733ea000111632ba,001,65,Female,British,Bec,2024-03-06_12h16.58.152,CRL1h,2023.2.3,MacIntel,71.42857143,65e67470ae2fbf2172c317b2,65e85e5da2ad759c8da840e0,,,,,,,,,,,814.244,0.7,814.943,814.943,815.646,left,1,0.695,,815.646,816.643,4,2,66,8,1,partial,1,images/Ex9.jpg,left,training,hard,2,,,,,
,,,,,562cd833733ea000111632ba,001,65,Female,British,Bec,2024-03-06_12h16.58.152,CRL1h,2023.2.3,MacIntel,71.42857143,65e67470ae2fbf2172c317b2,65e85e5da2ad759c8da840e0,,,,,,,,,,,816.644,1.3,817.943,817.943,818.577,left,1,0.62,,818.577,819.577,4,3,67,0,1,partial,1,images/Ex9.jpg,left,training,hard,2,,,,,
,,,,,562cd833733ea000111632ba,001,65,Female,British,Bec,2024-03-06_12h16.58.152,CRL1h,2023.2.3,MacIntel,71.42857143,65e67470ae2fbf2172c317b2,65e85e5da2ad759c8da840e0,,,,,,,,,,,819.577,0.5,820.077,820.077,820.98,left,0,0.896,,820.98,821.977,4,4,68,4,1,partial,1,images/Ex13.jpg,right,training,hard,2,,,,,
,,,,,562cd833733ea000111632ba,001,65,Female,British,Bec,2024-03-06_12h16.58.152,CRL1h,2023.2.3,MacIntel,71.42857143,65e67470ae2fbf2172c317b2,65e85e5da2ad759c8da840e0,,,,,,,,,,,821.977,1.1,823.077,823.077,824.58,left,0,1.487,,824.58,825.577,4,5,69,7,1,partial,1,images/Ex16.jpg,right,training,hard,2,,,,,
,,,,,562cd833733ea000111632ba,001,65,Female,British,Bec,2024-03-06_12h16.58.152,CRL1h,2023.2.3,MacIntel,71.42857143,65e67470ae2fbf2172c317b2,65e85e5da2ad759c8da840e0,,,,,,,,,,,825.577,0.9,826.477,826.477,827.761,right,0,1.277,,827.761,828.76,4,6,70,3,1,partial,1,images/Ex12.jpg,left,training,hard,2,,,,,
,,,,,562cd833733ea000111632ba,001,65,Female,British,Bec,2024-03-06_12h16.58.152,CRL1h,2023.2.3,MacIntel,71.42857143,65e67470ae2fbf2172c317b2,65e85e5da2ad759c8da840e0,,,,,,,,,,,828.76,1,829.76,829.76,830.527,left,0,0.759,,830.527,831.527,4,7,71,6,1,partial,1,images/Ex15.jpg,right,training,hard,2,,,,,
,,,,,562cd833733ea000111632ba,001,65,Female,British,Bec,2024-03-06_12h16.58.152,CRL1h,2023.2.3,MacIntel,71.42857143,65e67470ae2fbf2172c317b2,65e85e5da2ad759c8da840e0,,,,,,,,,,,831.527,1,832.527,832.527,833.346,right,0,0.803,,833.346,834.344,4,8,72,11,1,partial,1,images/Ex12.jpg,left,training,hard,2,,,,,
,,,,,562cd833733ea000111632ba,001,65,Female,British,Bec,2024-03-06_12h16.58.152,CRL1h,2023.2.3,MacIntel,71.42857143,65e67470ae2fbf2172c317b2,65e85e5da2ad759c8da840e0,,,,,,,,,,,834.344,1.2,835.544,835.544,836.632,right,0,1.075,,836.632,837.628,4,9,73,10,1,partial,1,images/Ex11.jpg,left,training,hard,2,,,,,
,,,,,562cd833733ea000111632ba,001,65,Female,British,Bec,2024-03-06_12h16.58.152,CRL1h,2023.2.3,MacIntel,71.42857143,65e67470ae2fbf2172c317b2,65e85e5da2ad759c8da840e0,,,,,,,,,,,837.628,0.9,838.527,838.527,839.543,left,0,1.002,,839.543,840.543,4,10,74,15,1,partial,1,images/Ex16.jpg,right,training,hard,2,,,,,
,,,,,562cd833733ea000111632ba,001,65,Female,British,Bec,2024-03-06_12h16.58.152,CRL1h,2023.2.3,MacIntel,71.42857143,65e67470ae2fbf2172c317b2,65e85e5da2ad759c8da840e0,,,,,,,,,,,840.543,1,841.544,841.544,842.327,left,0,0.776,,842.327,843.327,4,11,75,12,1,partial,1,images/Ex13.jpg,right,training,hard,2,,,,,
,,,,,562cd833733ea000111632ba,001,65,Female,British,Bec,2024-03-06_12h16.58.152,CRL1h,2023.2.3,MacIntel,71.42857143,65e67470ae2fbf2172c317b2,65e85e5da2ad759c8da840e0,,,,,,,,,,,843.328,1.1,844.427,844.427,845.682,left,0,1.246,,845.682,846.677,4,12,76,5,1,partial,1,images/Ex14.jpg,right,training,hard,2,,,,,
,,,,,562cd833733ea000111632ba,001,65,Female,British,Bec,2024-03-06_12h16.58.152,CRL1h,2023.2.3,MacIntel,71.42857143,65e67470ae2fbf2172c317b2,65e85e5da2ad759c8da840e0,,,,,,,,,,,846.678,1.3,847.977,847.977,848.88,right,0,0.887,,848.88,849.877,4,13,77,2,1,partial,1,images/Ex11.jpg,left,training,hard,2,,,,,
,,,,,562cd833733ea000111632ba,001,65,Female,British,Bec,2024-03-06_12h16.58.152,CRL1h,2023.2.3,MacIntel,71.42857143,65e67470ae2fbf2172c317b2,65e85e5da2ad759c8da840e0,,,,,,,,,,,849.878,1.3,851.178,851.178,851.761,right,1,0.57,,851.761,852.761,4,14,78,13,1,partial,1,images/Ex14.jpg,right,training,hard,2,,,,,
,,,,,562cd833733ea000111632ba,001,65,Female,British,Bec,2024-03-06_12h16.58.152,CRL1h,2023.2.3,MacIntel,71.42857143,65e67470ae2fbf2172c317b2,65e85e5da2ad759c8da840e0,,,,,,,,,,,852.761,1.4,854.161,854.161,855.194,right,1,1.026,,855.194,856.194,4,15,79,14,1,partial,1,images/Ex15.jpg,right,training,hard,2,,,,,
,,,,,562cd833733ea000111632ba,001,65,Female,British,Bec,2024-03-06_12h16.58.152,CRL1h,2023.2.3,MacIntel,71.42857143,65e67470ae2fbf2172c317b2,65e85e5da2ad759c8da840e0,,,,,,,,,,,856.194,0.8,856.994,856.994,857.961,right,1,0.959,,857.961,858.961,5,0,80,7,1,partial,1,images/Ex16.jpg,right,training,hard,2,,,,,
,,,,,562cd833733ea000111632ba,001,65,Female,British,Bec,2024-03-06_12h16.58.152,CRL1h,2023.2.3,MacIntel,71.42857143,65e67470ae2fbf2172c317b2,65e85e5da2ad759c8da840e0,,,,,,,,,,,858.961,1.5,860.461,860.461,861.195,right,0,0.727,,861.196,862.195,5,1,81,3,1,partial,1,images/Ex12.jpg,left,training,hard,2,,,,,
,,,,,562cd833733ea000111632ba,001,65,Female,British,Bec,2024-03-06_12h16.58.152,CRL1h,2023.2.3,MacIntel,71.42857143,65e67470ae2fbf2172c317b2,65e85e5da2ad759c8da840e0,,,,,,,,,,,862.195,1.5,863.695,863.695,864.328,left,0,0.626,,864.328,865.328,5,2,82,12,1,partial,1,images/Ex13.jpg,right,training,hard,2,,,,,
,,,,,562cd833733ea000111632ba,001,65,Female,British,Bec,2024-03-06_12h16.58.152,CRL1h,2023.2.3,MacIntel,71.42857143,65e67470ae2fbf2172c317b2,65e85e5da2ad759c8da840e0,,,,,,,,,,,865.328,1.4,866.728,866.728,867.448,right,0,0.702,,867.448,868.445,5,3,83,1,1,partial,1,images/Ex10.jpg,left,training,hard,2,,,,,
,,,,,562cd833733ea000111632ba,001,65,Female,British,Bec,2024-03-06_12h16.58.152,CRL1h,2023.2.3,MacIntel,71.42857143,65e67470ae2fbf2172c317b2,65e85e5da2ad759c8da840e0,,,,,,,,,,,868.445,0.7,869.145,869.145,870.095,right,1,0.943,,870.095,871.095,5,4,84,13,1,partial,1,images/Ex14.jpg,right,training,hard,2,,,,,
,,,,,562cd833733ea000111632ba,001,65,Female,British,Bec,2024-03-06_12h16.58.152,CRL1h,2023.2.3,MacIntel,71.42857143,65e67470ae2fbf2172c317b2,65e85e5da2ad759c8da840e0,,,,,,,,,,,871.095,1.2,872.296,872.296,873.598,right,1,1.286,,873.598,874.595,5,5,85,4,1,partial,1,images/Ex13.jpg,right,training,hard,2,,,,,
,,,,,562cd833733ea000111632ba,001,65,Female,British,Bec,2024-03-06_12h16.58.152,CRL1h,2023.2.3,MacIntel,71.42857143,65e67470ae2fbf2172c317b2,65e85e5da2ad759c8da840e0,,,,,,,,,,,874.595,1.4,875.995,875.995,876.882,right,0,0.87,,876.882,877.878,5,6,86,9,1,partial,1,images/Ex10.jpg,left,training,hard,2,,,,,
,,,,,562cd833733ea000111632ba,001,65,Female,British,Bec,2024-03-06_12h16.58.152,CRL1h,2023.2.3,MacIntel,71.42857143,65e67470ae2fbf2172c317b2,65e85e5da2ad759c8da840e0,,,,,,,,,,,877.878,1.2,879.078,879.078,879.648,left,0,0.553,,879.648,880.645,5,7,87,15,1,partial,1,images/Ex16.jpg,right,training,hard,2,,,,,
,,,,,562cd833733ea000111632ba,001,65,Female,British,Bec,2024-03-06_12h16.58.152,CRL1h,2023.2.3,MacIntel,71.42857143,65e67470ae2fbf2172c317b2,65e85e5da2ad759c8da840e0,,,,,,,,,,,880.645,0.9,881.544,881.544,882.162,right,0,0.611,,882.162,883.162,5,8,88,8,1,partial,1,images/Ex9.jpg,left,training,hard,2,,,,,
,,,,,562cd833733ea000111632ba,001,65,Female,British,Bec,2024-03-06_12h16.58.152,CRL1h,2023.2.3,MacIntel,71.42857143,65e67470ae2fbf2172c317b2,65e85e5da2ad759c8da840e0,,,,,,,,,,,883.162,0.7,883.862,883.862,884.633,right,0,0.759,,884.633,885.629,5,9,89,11,1,partial,1,images/Ex12.jpg,left,training,hard,2,,,,,
,,,,,562cd833733ea000111632ba,001,65,Female,British,Bec,2024-03-06_12h16.58.152,CRL1h,2023.2.3,MacIntel,71.42857143,65e67470ae2fbf2172c317b2,65e85e5da2ad759c8da840e0,,,,,,,,,,,885.629,0.9,886.528,886.529,887.213,left,1,0.677,,887.213,888.211,5,10,90,2,1,partial,1,images/Ex11.jpg,left,training,hard,2,,,,,
,,,,,562cd833733ea000111632ba,001,65,Female,British,Bec,2024-03-06_12h16.58.152,CRL1h,2023.2.3,MacIntel,71.42857143,65e67470ae2fbf2172c317b2,65e85e5da2ad759c8da840e0,,,,,,,,,,,888.211,1,889.211,889.211,889.895,left,0,0.677,,889.895,890.895,5,11,91,5,1,partial,1,images/Ex14.jpg,right,training,hard,2,,,,,
,,,,,562cd833733ea000111632ba,001,65,Female,British,Bec,2024-03-06_12h16.58.152,CRL1h,2023.2.3,MacIntel,71.42857143,65e67470ae2fbf2172c317b2,65e85e5da2ad759c8da840e0,,,,,,,,,,,890.895,1.1,891.995,891.995,892.829,right,0,0.826,,892.829,893.829,5,12,92,0,1,partial,1,images/Ex9.jpg,left,training,hard,2,,,,,
,,,,,562cd833733ea000111632ba,001,65,Female,British,Bec,2024-03-06_12h16.58.152,CRL1h,2023.2.3,MacIntel,71.42857143,65e67470ae2fbf2172c317b2,65e85e5da2ad759c8da840e0,,,,,,,,,,,893.829,1.5,895.329,895.329,895.914,right,1,0.57,,895.914,896.912,5,13,93,14,1,partial,1,images/Ex15.jpg,right,training,hard,2,,,,,
,,,,,562cd833733ea000111632ba,001,65,Female,British,Bec,2024-03-06_12h16.58.152,CRL1h,2023.2.3,MacIntel,71.42857143,65e67470ae2fbf2172c317b2,65e85e5da2ad759c8da840e0,,,,,,,,,,,896.912,0.6,897.512,897.512,898.231,right,1,0.712,,898.231,899.229,5,14,94,6,1,partial,1,images/Ex15.jpg,right,training,hard,2,,,,,
,,,,,562cd833733ea000111632ba,001,65,Female,British,Bec,2024-03-06_12h16.58.152,CRL1h,2023.2.3,MacIntel,71.42857143,65e67470ae2fbf2172c317b2,65e85e5da2ad759c8da840e0,,,,,,,,,,,899.229,0.6,899.829,899.829,900.779,right,0,0.943,,900.779,901.779,5,15,95,10,1,partial,1,images/Ex11.jpg,left,training,hard,2,,,,,
,,,,,562cd833733ea000111632ba,001,65,Female,British,Bec,2024-03-06_12h16.58.152,CRL1h,2023.2.3,MacIntel,71.42857143,65e67470ae2fbf2172c317b2,65e85e5da2ad759c8da840e0,,,,,,,,,,,901.779,1.2,902.979,902.979,903.596,left,1,0.61,,903.596,904.596,6,0,96,3,1,partial,1,images/Ex12.jpg,left,training,hard,2,,,,,
,,,,,562cd833733ea000111632ba,001,65,Female,British,Bec,2024-03-06_12h16.58.152,CRL1h,2023.2.3,MacIntel,71.42857143,65e67470ae2fbf2172c317b2,65e85e5da2ad759c8da840e0,,,,,,,,,,,904.596,1.2,905.796,905.796,906.416,left,0,0.612,,906.416,907.412,6,1,97,4,1,partial,1,images/Ex13.jpg,right,training,hard,2,,,,,
,,,,,562cd833733ea000111632ba,001,65,Female,British,Bec,2024-03-06_12h16.58.152,CRL1h,2023.2.3,MacIntel,71.42857143,65e67470ae2fbf2172c317b2,65e85e5da2ad759c8da840e0,,,,,,,,,,,907.412,1.4,908.812,908.812,909.683,right,0,0.853,,909.683,910.679,6,2,98,8,1,partial,1,images/Ex9.jpg,left,training,hard,2,,,,,
,,,,,562cd833733ea000111632ba,001,65,Female,British,Bec,2024-03-06_12h16.58.152,CRL1h,2023.2.3,MacIntel,71.42857143,65e67470ae2fbf2172c317b2,65e85e5da2ad759c8da840e0,,,,,,,,,,,910.679,1,911.679,911.679,912.314,right,1,0.627,,912.314,913.313,6,3,99,13,1,partial,1,images/Ex14.jpg,right,training,hard,2,,,,,
,,,,,562cd833733ea000111632ba,001,65,Female,British,Bec,2024-03-06_12h16.58.152,CRL1h,2023.2.3,MacIntel,71.42857143,65e67470ae2fbf2172c317b2,65e85e5da2ad759c8da840e0,,,,,,,,,,,913.313,0.7,914.013,914.013,914.796,right,0,0.776,,914.796,915.796,6,4,100,2,1,partial,1,images/Ex11.jpg,left,training,hard,2,,,,,
,,,,,562cd833733ea000111632ba,001,65,Female,British,Bec,2024-03-06_12h16.58.152,CRL1h,2023.2.3,MacIntel,71.42857143,65e67470ae2fbf2172c317b2,65e85e5da2ad759c8da840e0,,,,,,,,,,,915.796,1.3,917.096,917.096,917.817,left,0,0.714,,917.817,918.813,6,5,101,6,1,partial,1,images/Ex15.jpg,right,training,hard,2,,,,,
,,,,,562cd833733ea000111632ba,001,65,Female,British,Bec,2024-03-06_12h16.58.152,CRL1h,2023.2.3,MacIntel,71.42857143,65e67470ae2fbf2172c317b2,65e85e5da2ad759c8da840e0,,,,,,,,,,,918.813,0.6,919.412,919.412,920.199,right,1,0.771,,920.2,921.196,6,6,102,12,1,partial,1,images/Ex13.jpg,right,training,hard,2,,,,,
,,,,,562cd833733ea000111632ba,001,65,Female,British,Bec,2024-03-06_12h16.58.152,CRL1h,2023.2.3,MacIntel,71.42857143,65e67470ae2fbf2172c317b2,65e85e5da2ad759c8da840e0,,,,,,,,,,,921.196,1.4,922.596,922.596,923.282,right,1,0.679,,923.282,924.28,6,7,103,5,1,partial,1,images/Ex14.jpg,right,training,hard,2,,,,,
,,,,,562cd833733ea000111632ba,001,65,Female,British,Bec,2024-03-06_12h16.58.152,CRL1h,2023.2.3,MacIntel,71.42857143,65e67470ae2fbf2172c317b2,65e85e5da2ad759c8da840e0,,,,,,,,,,,924.28,1.4,925.679,925.679,926.28,right,0,0.593,,926.28,927.28,6,8,104,11,1,partial,1,images/Ex12.jpg,left,training,hard,2,,,,,
,,,,,562cd833733ea000111632ba,001,65,Female,British,Bec,2024-03-06_12h16.58.152,CRL1h,2023.2.3,MacIntel,71.42857143,65e67470ae2fbf2172c317b2,65e85e5da2ad759c8da840e0,,,,,,,,,,,927.28,1.1,928.38,928.38,929.164,left,1,0.776,,929.164,930.163,6,9,105,9,1,partial,1,images/Ex10.jpg,left,training,hard,2,,,,,
,,,,,562cd833733ea000111632ba,001,65,Female,British,Bec,2024-03-06_12h16.58.152,CRL1h,2023.2.3,MacIntel,71.42857143,65e67470ae2fbf2172c317b2,65e85e5da2ad759c8da840e0,,,,,,,,,,,930.163,1.3,931.463,931.463,932.096,left,0,0.626,,932.096,933.096,6,10,106,14,1,partial,1,images/Ex15.jpg,right,training,hard,2,,,,,
,,,,,562cd833733ea000111632ba,001,65,Female,British,Bec,2024-03-06_12h16.58.152,CRL1h,2023.2.3,MacIntel,71.42857143,65e67470ae2fbf2172c317b2,65e85e5da2ad759c8da840e0,,,,,,,,,,,933.097,1.1,934.197,934.197,934.949,left,1,0.736,,934.949,935.947,6,11,107,10,1,partial,1,images/Ex11.jpg,left,training,hard,2,,,,,
,,,,,562cd833733ea000111632ba,001,65,Female,British,Bec,2024-03-06_12h16.58.152,CRL1h,2023.2.3,MacIntel,71.42857143,65e67470ae2fbf2172c317b2,65e85e5da2ad759c8da840e0,,,,,,,,,,,935.947,1,936.946,936.946,937.751,left,0,0.798,,937.751,938.747,6,12,108,15,1,partial,1,images/Ex16.jpg,right,training,hard,2,,,,,
,,,,,562cd833733ea000111632ba,001,65,Female,British,Bec,2024-03-06_12h16.58.152,CRL1h,2023.2.3,MacIntel,71.42857143,65e67470ae2fbf2172c317b2,65e85e5da2ad759c8da840e0,,,,,,,,,,,938.747,0.6,939.347,939.347,940.247,left,1,0.892,,940.247,941.247,6,13,109,0,1,partial,1,images/Ex9.jpg,left,training,hard,2,,,,,
,,,,,562cd833733ea000111632ba,001,65,Female,British,Bec,2024-03-06_12h16.58.152,CRL1h,2023.2.3,MacIntel,71.42857143,65e67470ae2fbf2172c317b2,65e85e5da2ad759c8da840e0,,,,,,,,,,,941.247,1.2,942.447,942.447,943.399,left,0,0.936,,943.399,944.397,6,14,110,7,1,partial,1,images/Ex16.jpg,right,training,hard,2,,,,,
,,,,,562cd833733ea000111632ba,001,65,Female,British,Bec,2024-03-06_12h16.58.152,CRL1h,2023.2.3,MacIntel,71.42857143,65e67470ae2fbf2172c317b2,65e85e5da2ad759c8da840e0,,,,,,,,,,,944.397,1.3,945.697,945.697,946.533,left,1,0.818,,946.533,947.53,6,15,111,1,1,partial,1,images/Ex10.jpg,left,training,hard,2,,,,,
,,,,,562cd833733ea000111632ba,001,65,Female,British,Bec,2024-03-06_12h16.58.152,CRL1h,2023.2.3,MacIntel,71.42857143,65e67470ae2fbf2172c317b2,65e85e5da2ad759c8da840e0,,,,,,,,,,,947.531,1.5,949.03,949.03,950.18,left,1,1.142,,950.18,951.18,7,0,112,10,1,partial,1,images/Ex11.jpg,left,training,hard,2,,,,,
,,,,,562cd833733ea000111632ba,001,65,Female,British,Bec,2024-03-06_12h16.58.152,CRL1h,2023.2.3,MacIntel,71.42857143,65e67470ae2fbf2172c317b2,65e85e5da2ad759c8da840e0,,,,,,,,,,,951.181,0.8,951.98,951.98,954.283,right,0,2.286,,954.283,955.28,7,1,113,3,1,partial,1,images/Ex12.jpg,left,training,hard,2,,,,,
,,,,,562cd833733ea000111632ba,001,65,Female,British,Bec,2024-03-06_12h16.58.152,CRL1h,2023.2.3,MacIntel,71.42857143,65e67470ae2fbf2172c317b2,65e85e5da2ad759c8da840e0,,,,,,,,,,,955.281,1,956.28,956.28,958.1,right,1,1.803,,958.1,959.097,7,2,114,6,1,partial,1,images/Ex15.jpg,right,training,hard,2,,,,,
,,,,,562cd833733ea000111632ba,001,65,Female,British,Bec,2024-03-06_12h16.58.152,CRL1h,2023.2.3,MacIntel,71.42857143,65e67470ae2fbf2172c317b2,65e85e5da2ad759c8da840e0,,,,,,,,,,,959.097,1.1,960.197,960.197,961.118,right,1,0.914,,961.118,962.114,7,3,115,14,1,partial,1,images/Ex15.jpg,right,training,hard,2,,,,,
,,,,,562cd833733ea000111632ba,001,65,Female,British,Bec,2024-03-06_12h16.58.152,CRL1h,2023.2.3,MacIntel,71.42857143,65e67470ae2fbf2172c317b2,65e85e5da2ad759c8da840e0,,,,,,,,,,,962.114,1.1,963.214,963.214,964.6,right,0,1.37,,964.6,965.597,7,4,116,2,1,partial,1,images/Ex11.jpg,left,training,hard,2,,,,,
,,,,,562cd833733ea000111632ba,001,65,Female,British,Bec,2024-03-06_12h16.58.152,CRL1h,2023.2.3,MacIntel,71.42857143,65e67470ae2fbf2172c317b2,65e85e5da2ad759c8da840e0,,,,,,,,,,,965.598,1.4,966.997,966.997,968.033,left,1,1.028,,968.033,969.031,7,5,117,0,1,partial,1,images/Ex9.jpg,left,training,hard,2,,,,,
,,,,,562cd833733ea000111632ba,001,65,Female,British,Bec,2024-03-06_12h16.58.152,CRL1h,2023.2.3,MacIntel,71.42857143,65e67470ae2fbf2172c317b2,65e85e5da2ad759c8da840e0,,,,,,,,,,,969.031,1.1,970.132,970.132,970.882,left,0,0.743,,970.882,971.881,7,6,118,15,1,partial,1,images/Ex16.jpg,right,training,hard,2,,,,,
,,,,,562cd833733ea000111632ba,001,65,Female,British,Bec,2024-03-06_12h16.58.152,CRL1h,2023.2.3,MacIntel,71.42857143,65e67470ae2fbf2172c317b2,65e85e5da2ad759c8da840e0,,,,,,,,,,,971.881,0.9,972.781,972.781,973.919,left,1,1.131,,973.919,974.914,7,7,119,1,1,partial,1,images/Ex10.jpg,left,training,hard,2,,,,,
,,,,,562cd833733ea000111632ba,001,65,Female,British,Bec,2024-03-06_12h16.58.152,CRL1h,2023.2.3,MacIntel,71.42857143,65e67470ae2fbf2172c317b2,65e85e5da2ad759c8da840e0,,,,,,,,,,,974.915,0.9,975.814,975.814,977.114,left,0,1.286,,977.114,978.114,7,8,120,7,1,partial,1,images/Ex16.jpg,right,training,hard,2,,,,,
,,,,,562cd833733ea000111632ba,001,65,Female,British,Bec,2024-03-06_12h16.58.152,CRL1h,2023.2.3,MacIntel,71.42857143,65e67470ae2fbf2172c317b2,65e85e5da2ad759c8da840e0,,,,,,,,,,,978.115,1,979.114,979.114,980.018,left,0,0.886,,980.018,981.014,7,9,121,13,1,partial,1,images/Ex14.jpg,right,training,hard,2,,,,,
,,,,,562cd833733ea000111632ba,001,65,Female,British,Bec,2024-03-06_12h16.58.152,CRL1h,2023.2.3,MacIntel,71.42857143,65e67470ae2fbf2172c317b2,65e85e5da2ad759c8da840e0,,,,,,,,,,,981.015,1.5,982.514,982.514,983.599,right,0,1.083,,983.599,984.598,7,10,122,11,1,partial,1,images/Ex12.jpg,left,training,hard,2,,,,,
,,,,,562cd833733ea000111632ba,001,65,Female,British,Bec,2024-03-06_12h16.58.152,CRL1h,2023.2.3,MacIntel,71.42857143,65e67470ae2fbf2172c317b2,65e85e5da2ad759c8da840e0,,,,,,,,,,,984.598,0.5,985.098,985.098,985.998,left,0,0.893,,985.998,986.998,7,11,123,4,1,partial,1,images/Ex13.jpg,right,training,hard,2,,,,,
,,,,,562cd833733ea000111632ba,001,65,Female,British,Bec,2024-03-06_12h16.58.152,CRL1h,2023.2.3,MacIntel,71.42857143,65e67470ae2fbf2172c317b2,65e85e5da2ad759c8da840e0,,,,,,,,,,,986.998,0.5,987.498,987.498,988.331,right,0,0.826,,988.331,989.331,7,12,124,8,1,partial,1,images/Ex9.jpg,left,training,hard,2,,,,,
,,,,,562cd833733ea000111632ba,001,65,Female,British,Bec,2024-03-06_12h16.58.152,CRL1h,2023.2.3,MacIntel,71.42857143,65e67470ae2fbf2172c317b2,65e85e5da2ad759c8da840e0,,,,,,,,,,,989.331,0.9,990.231,990.231,991.098,right,1,0.859,,991.098,992.098,7,13,125,5,1,partial,1,images/Ex14.jpg,right,training,hard,2,,,,,
,,,,,562cd833733ea000111632ba,001,65,Female,British,Bec,2024-03-06_12h16.58.152,CRL1h,2023.2.3,MacIntel,71.42857143,65e67470ae2fbf2172c317b2,65e85e5da2ad759c8da840e0,,,,,,,,,,,992.098,0.9,992.998,992.998,994.185,right,1,1.18,,994.185,995.181,7,14,126,12,1,partial,1,images/Ex13.jpg,right,training,hard,2,,,,,
,,,,,562cd833733ea000111632ba,001,65,Female,British,Bec,2024-03-06_12h16.58.152,CRL1h,2023.2.3,MacIntel,71.42857143,65e67470ae2fbf2172c317b2,65e85e5da2ad759c8da840e0,,,,,,,,,,,995.182,0.8,995.982,995.982,996.932,right,0,0.942,,996.932,997.932,7,15,127,9,1,partial,1,images/Ex10.jpg,left,training,hard,2,,,,,
,,,,,562cd833733ea000111632ba,001,65,Female,British,Bec,2024-03-06_12h16.58.152,CRL1h,2023.2.3,MacIntel,71.42857143,65e67470ae2fbf2172c317b2,65e85e5da2ad759c8da840e0,,,,,,,,,,,997.933,1.4,999.331,999.331,999.917,left,0,0.569,,999.917,1000.915,0,0,0,8,1,partial,2,images/Ex9.jpg,right,reversed,hard,2,,,,,
,,,,,562cd833733ea000111632ba,001,65,Female,British,Bec,2024-03-06_12h16.58.152,CRL1h,2023.2.3,MacIntel,71.42857143,65e67470ae2fbf2172c317b2,65e85e5da2ad759c8da840e0,,,,,,,,,,,1000.915,1,1001.915,1001.915,1003.348,right,1,1.426,,1003.348,1004.348,0,1,1,0,1,partial,2,images/Ex9.jpg,right,reversed,hard,2,,,,,
,,,,,562cd833733ea000111632ba,001,65,Female,British,Bec,2024-03-06_12h16.58.152,CRL1h,2023.2.3,MacIntel,71.42857143,65e67470ae2fbf2172c317b2,65e85e5da2ad759c8da840e0,,,,,,,,,,,1004.349,0.6,1004.948,1004.948,1005.915,right,0,0.953,,1005.915,1006.915,0,2,2,14,1,partial,2,images/Ex15.jpg,left,reversed,hard,2,,,,,
,,,,,562cd833733ea000111632ba,001,65,Female,British,Bec,2024-03-06_12h16.58.152,CRL1h,2023.2.3,MacIntel,71.42857143,65e67470ae2fbf2172c317b2,65e85e5da2ad759c8da840e0,,,,,,,,,,,1006.916,1.2,1008.115,1008.115,1008.916,left,1,0.793,,1008.916,1009.915,0,3,3,10,1,partial,2,images/Ex11.jpg,left,nonreversed,hard,2,,,,,
