infCons.started,infCons.stopped,resp_consent.keys,resp_consent.rt,resp_consent.duration,participant,session,Age?,Gender?,Nationality?,Highest Educational Degree?,date,expName,psychopyVersion,OS,frameRate,STUDY_ID,SESSION_ID,instructions.started,instructions.stopped,resp_instructions.keys,resp_instructions.rt,resp_instructions.duration,nextTask.started,nextTask.stopped,ready_task.keys,ready_task.rt,ready_task.duration,fixation.started,ITI,fixation.stopped,stim.started,stim.stopped,response.keys,response.corr,response.rt,response.duration,feedback.started,feedback.stopped,trials.thisRepN,trials.thisTrialN,trials.thisN,trials.thisIndex,trials.ran,task,phase,Exemplars,r_correct,condition,difficulty,set,end.started,end.stopped,resp_end.keys,resp_end.rt,resp_end.duration
0.0002,29.9654,space,29.9418,,56b8ad1be1d0a2000c154093,001,61,female,British,First degree,2024-03-06_15h03.52.896,CRL1h,2023.2.3,Win32,40,65e67470ae2fbf2172c317b2,65e885b46534afcdc320e3ed,,,,,,,,,,,,,,,,,,,,,,,,,,,,,,,,,,,,,,
,,,,,56b8ad1be1d0a2000c154093,001,61,female,British,First degree,2024-03-06_15h03.52.896,CRL1h,2023.2.3,Win32,40,65e67470ae2fbf2172c317b2,65e885b46534afcdc320e3ed,29.9664,109.7139,space,79.7155,,,,,,,,,,,,,,,,,,,,,,,,,,,,,,,,,,
,,,,,56b8ad1be1d0a2000c154093,001,61,female,British,First degree,2024-03-06_15h03.52.896,CRL1h,2023.2.3,Win32,40,65e67470ae2fbf2172c317b2,65e885b46534afcdc320e3ed,,,,,,109.7553,113.0313,space,3.2484,,113.0485,1.1,114.1346,114.135,117.8316,right,1,3.6577,,117.8723,118.8272,0,0,0,14,1,partial,1,images/Ex7.jpg,right,training,hard,4,,,,,
,,,,,56b8ad1be1d0a2000c154093,001,61,female,British,First degree,2024-03-06_15h03.52.896,CRL1h,2023.2.3,Win32,40,65e67470ae2fbf2172c317b2,65e885b46534afcdc320e3ed,,,,,,,,,,,118.8284,0.7,119.5275,119.5276,121.7554,left,0,2.2254,,121.7555,122.7519,0,1,1,4,1,partial,1,images/Ex5.jpg,right,training,hard,4,,,,,
,,,,,56b8ad1be1d0a2000c154093,001,61,female,British,First degree,2024-03-06_15h03.52.896,CRL1h,2023.2.3,Win32,40,65e67470ae2fbf2172c317b2,65e885b46534afcdc320e3ed,,,,,,,,,,,122.7549,1.3,124.051,124.0513,125.3762,right,1,1.3086,,125.3764,126.3755,0,2,2,15,1,partial,1,images/Ex8.jpg,right,training,hard,4,,,,,
,,,,,56b8ad1be1d0a2000c154093,001,61,female,British,First degree,2024-03-06_15h03.52.896,CRL1h,2023.2.3,Win32,40,65e67470ae2fbf2172c317b2,65e885b46534afcdc320e3ed,,,,,,,,,,,126.3771,1.2,127.5751,127.5753,128.9274,left,1,1.3412,,128.9276,129.9252,0,3,3,2,1,partial,1,images/Ex3.jpg,left,training,hard,4,,,,,
,,,,,56b8ad1be1d0a2000c154093,001,61,female,British,First degree,2024-03-06_15h03.52.896,CRL1h,2023.2.3,Win32,40,65e67470ae2fbf2172c317b2,65e885b46534afcdc320e3ed,,,,,,,,,,,129.955,1.2,131.1483,131.1485,132.3502,left,1,1.1829,,132.3504,133.348,0,4,4,9,1,partial,1,images/Ex2.jpg,left,training,hard,4,,,,,
,,,,,56b8ad1be1d0a2000c154093,001,61,female,British,First degree,2024-03-06_15h03.52.896,CRL1h,2023.2.3,Win32,40,65e67470ae2fbf2172c317b2,65e885b46534afcdc320e3ed,,,,,,,,,,,133.3496,0.9,134.248,134.2482,135.3747,right,1,1.1148,,135.3749,136.3718,0,5,5,6,1,partial,1,images/Ex7.jpg,right,training,hard,4,,,,,
,,,,,56b8ad1be1d0a2000c154093,001,61,female,British,First degree,2024-03-06_15h03.52.896,CRL1h,2023.2.3,Win32,40,65e67470ae2fbf2172c317b2,65e885b46534afcdc320e3ed,,,,,,,,,,,136.373,1.1,137.4709,137.4709,138.3238,right,0,0.8331,,138.324,139.3212,0,6,6,0,1,partial,1,images/Ex1.jpg,left,training,hard,4,,,,,
,,,,,56b8ad1be1d0a2000c154093,001,61,female,British,First degree,2024-03-06_15h03.52.896,CRL1h,2023.2.3,Win32,40,65e67470ae2fbf2172c317b2,65e885b46534afcdc320e3ed,,,,,,,,,,,139.3233,0.8,140.1219,140.122,142.1201,right,1,1.9898,,142.1202,143.1204,0,7,7,7,1,partial,1,images/Ex8.jpg,right,training,hard,4,,,,,
,,,,,56b8ad1be1d0a2000c154093,001,61,female,British,First degree,2024-03-06_15h03.52.896,CRL1h,2023.2.3,Win32,40,65e67470ae2fbf2172c317b2,65e885b46534afcdc320e3ed,,,,,,,,,,,143.1221,1.3,144.4191,144.4193,145.621,left,0,1.1851,,145.6212,146.6199,0,8,8,12,1,partial,1,images/Ex5.jpg,right,training,hard,4,,,,,
,,,,,56b8ad1be1d0a2000c154093,001,61,female,British,First degree,2024-03-06_15h03.52.896,CRL1h,2023.2.3,Win32,40,65e67470ae2fbf2172c317b2,65e885b46534afcdc320e3ed,,,,,,,,,,,146.6211,0.9,147.5188,147.519,148.1946,right,0,0.655,,148.195,149.1921,0,9,9,8,1,partial,1,images/Ex1.jpg,left,training,hard,4,,,,,
,,,,,56b8ad1be1d0a2000c154093,001,61,female,British,First degree,2024-03-06_15h03.52.896,CRL1h,2023.2.3,Win32,40,65e67470ae2fbf2172c317b2,65e885b46534afcdc320e3ed,,,,,,,,,,,149.1925,1.4,150.5927,150.5929,151.6955,left,1,1.0996,,151.6956,152.6924,0,10,10,11,1,partial,1,images/Ex4.jpg,left,training,hard,4,,,,,
,,,,,56b8ad1be1d0a2000c154093,001,61,female,British,First degree,2024-03-06_15h03.52.896,CRL1h,2023.2.3,Win32,40,65e67470ae2fbf2172c317b2,65e885b46534afcdc320e3ed,,,,,,,,,,,152.695,1.2,153.8911,153.8913,154.9192,left,1,1.0089,,154.9194,155.916,0,11,11,10,1,partial,1,images/Ex3.jpg,left,training,hard,4,,,,,
,,,,,56b8ad1be1d0a2000c154093,001,61,female,British,First degree,2024-03-06_15h03.52.896,CRL1h,2023.2.3,Win32,40,65e67470ae2fbf2172c317b2,65e885b46534afcdc320e3ed,,,,,,,,,,,155.9161,1.4,157.3152,157.3154,158.4406,left,0,1.1016,,158.4407,159.4395,0,12,12,5,1,partial,1,images/Ex6.jpg,right,training,hard,4,,,,,
,,,,,56b8ad1be1d0a2000c154093,001,61,female,British,First degree,2024-03-06_15h03.52.896,CRL1h,2023.2.3,Win32,40,65e67470ae2fbf2172c317b2,65e885b46534afcdc320e3ed,,,,,,,,,,,159.44,1.1,160.5404,160.5405,162.5453,right,0,2.0006,,162.5455,163.5428,0,13,13,3,1,partial,1,images/Ex4.jpg,left,training,hard,4,,,,,
,,,,,56b8ad1be1d0a2000c154093,001,61,female,British,First degree,2024-03-06_15h03.52.896,CRL1h,2023.2.3,Win32,40,65e67470ae2fbf2172c317b2,65e885b46534afcdc320e3ed,,,,,,,,,,,163.545,0.8,164.3425,164.3425,165.3189,right,1,0.9723,,165.319,166.3166,0,14,14,13,1,partial,1,images/Ex6.jpg,right,training,hard,4,,,,,
,,,,,56b8ad1be1d0a2000c154093,001,61,female,British,First degree,2024-03-06_15h03.52.896,CRL1h,2023.2.3,Win32,40,65e67470ae2fbf2172c317b2,65e885b46534afcdc320e3ed,,,,,,,,,,,166.3175,1.1,167.4118,167.4119,168.4899,right,0,1.0762,,168.4899,169.4874,0,15,15,1,1,partial,1,images/Ex2.jpg,left,training,hard,4,,,,,
,,,,,56b8ad1be1d0a2000c154093,001,61,female,British,First degree,2024-03-06_15h03.52.896,CRL1h,2023.2.3,Win32,40,65e67470ae2fbf2172c317b2,65e885b46534afcdc320e3ed,,,,,,,,,,,169.4877,0.6,170.0864,170.0866,170.887,left,1,0.7932,,170.8872,171.8914,1,0,16,1,1,partial,1,images/Ex2.jpg,left,training,hard,4,,,,,
,,,,,56b8ad1be1d0a2000c154093,001,61,female,British,First degree,2024-03-06_15h03.52.896,CRL1h,2023.2.3,Win32,40,65e67470ae2fbf2172c317b2,65e885b46534afcdc320e3ed,,,,,,,,,,,171.8925,1.3,173.1924,173.1925,173.8119,left,0,0.6024,,173.8123,174.8149,1,1,17,15,1,partial,1,images/Ex8.jpg,right,training,hard,4,,,,,
,,,,,56b8ad1be1d0a2000c154093,001,61,female,British,First degree,2024-03-06_15h03.52.896,CRL1h,2023.2.3,Win32,40,65e67470ae2fbf2172c317b2,65e885b46534afcdc320e3ed,,,,,,,,,,,174.8159,0.5,175.3101,175.3105,176.2358,right,0,0.9081,,176.2363,177.2381,1,2,18,11,1,partial,1,images/Ex4.jpg,left,training,hard,4,,,,,
,,,,,56b8ad1be1d0a2000c154093,001,61,female,British,First degree,2024-03-06_15h03.52.896,CRL1h,2023.2.3,Win32,40,65e67470ae2fbf2172c317b2,65e885b46534afcdc320e3ed,,,,,,,,,,,177.2389,0.7,177.9398,177.9399,178.6401,right,1,0.6975,,178.6402,179.6337,1,3,19,5,1,partial,1,images/Ex6.jpg,right,training,hard,4,,,,,
,,,,,56b8ad1be1d0a2000c154093,001,61,female,British,First degree,2024-03-06_15h03.52.896,CRL1h,2023.2.3,Win32,40,65e67470ae2fbf2172c317b2,65e885b46534afcdc320e3ed,,,,,,,,,,,179.6339,0.7,180.3378,180.3378,181.0396,right,0,0.6983,,181.0398,182.0325,1,4,20,0,1,partial,1,images/Ex1.jpg,left,training,hard,4,,,,,
,,,,,56b8ad1be1d0a2000c154093,001,61,female,British,First degree,2024-03-06_15h03.52.896,CRL1h,2023.2.3,Win32,40,65e67470ae2fbf2172c317b2,65e885b46534afcdc320e3ed,,,,,,,,,,,182.035,0.5,182.5398,182.5399,183.2882,right,1,0.7455,,183.2885,184.2864,1,5,21,14,1,partial,1,images/Ex7.jpg,right,training,hard,4,,,,,
,,,,,56b8ad1be1d0a2000c154093,001,61,female,British,First degree,2024-03-06_15h03.52.896,CRL1h,2023.2.3,Win32,40,65e67470ae2fbf2172c317b2,65e885b46534afcdc320e3ed,,,,,,,,,,,184.2876,0.5,184.7857,184.7858,185.5307,left,1,0.7292,,185.5308,186.5313,1,6,22,10,1,partial,1,images/Ex3.jpg,left,training,hard,4,,,,,
,,,,,56b8ad1be1d0a2000c154093,001,61,female,British,First degree,2024-03-06_15h03.52.896,CRL1h,2023.2.3,Win32,40,65e67470ae2fbf2172c317b2,65e885b46534afcdc320e3ed,,,,,,,,,,,186.5331,1.5,188.0346,188.0346,188.9076,left,1,0.8611,,188.9077,189.909,1,7,23,2,1,partial,1,images/Ex3.jpg,left,training,hard,4,,,,,
,,,,,56b8ad1be1d0a2000c154093,001,61,female,British,First degree,2024-03-06_15h03.52.896,CRL1h,2023.2.3,Win32,40,65e67470ae2fbf2172c317b2,65e885b46534afcdc320e3ed,,,,,,,,,,,189.9102,0.7,190.6048,190.6049,191.236,right,1,0.627,,191.236,192.2289,1,8,24,12,1,partial,1,images/Ex5.jpg,right,training,hard,4,,,,,
,,,,,56b8ad1be1d0a2000c154093,001,61,female,British,First degree,2024-03-06_15h03.52.896,CRL1h,2023.2.3,Win32,40,65e67470ae2fbf2172c317b2,65e885b46534afcdc320e3ed,,,,,,,,,,,192.2293,1.2,193.4313,193.4313,194.1352,right,1,0.7021,,194.1353,195.1285,1,9,25,13,1,partial,1,images/Ex6.jpg,right,training,hard,4,,,,,
,,,,,56b8ad1be1d0a2000c154093,001,61,female,British,First degree,2024-03-06_15h03.52.896,CRL1h,2023.2.3,Win32,40,65e67470ae2fbf2172c317b2,65e885b46534afcdc320e3ed,,,,,,,,,,,195.1306,1.5,196.632,196.6321,197.3351,right,0,0.6983,,197.3352,198.3274,1,10,26,8,1,partial,1,images/Ex1.jpg,left,training,hard,4,,,,,
,,,,,56b8ad1be1d0a2000c154093,001,61,female,British,First degree,2024-03-06_15h03.52.896,CRL1h,2023.2.3,Win32,40,65e67470ae2fbf2172c317b2,65e885b46534afcdc320e3ed,,,,,,,,,,,198.3296,0.7,199.0311,199.0312,199.9588,left,1,0.925,,199.9589,200.9564,1,11,27,3,1,partial,1,images/Ex4.jpg,left,training,hard,4,,,,,
,,,,,56b8ad1be1d0a2000c154093,001,61,female,British,First degree,2024-03-06_15h03.52.896,CRL1h,2023.2.3,Win32,40,65e67470ae2fbf2172c317b2,65e885b46534afcdc320e3ed,,,,,,,,,,,200.9573,0.8,201.7566,201.7566,202.7583,right,1,0.9992,,202.7585,203.7521,1,12,28,6,1,partial,1,images/Ex7.jpg,right,training,hard,4,,,,,
,,,,,56b8ad1be1d0a2000c154093,001,61,female,British,First degree,2024-03-06_15h03.52.896,CRL1h,2023.2.3,Win32,40,65e67470ae2fbf2172c317b2,65e885b46534afcdc320e3ed,,,,,,,,,,,203.7535,0.6,204.3548,204.3548,205.3515,right,1,0.9915,,205.3516,206.3544,1,13,29,4,1,partial,1,images/Ex5.jpg,right,training,hard,4,,,,,
,,,,,56b8ad1be1d0a2000c154093,001,61,female,British,First degree,2024-03-06_15h03.52.896,CRL1h,2023.2.3,Win32,40,65e67470ae2fbf2172c317b2,65e885b46534afcdc320e3ed,,,,,,,,,,,206.3554,0.8,207.1496,207.1498,207.9813,right,1,0.8273,,207.9813,208.9753,1,14,30,7,1,partial,1,images/Ex8.jpg,right,training,hard,4,,,,,
,,,,,56b8ad1be1d0a2000c154093,001,61,female,British,First degree,2024-03-06_15h03.52.896,CRL1h,2023.2.3,Win32,40,65e67470ae2fbf2172c317b2,65e885b46534afcdc320e3ed,,,,,,,,,,,208.9759,0.6,209.5744,209.5746,210.5481,right,0,0.9665,,210.5481,211.5479,1,15,31,9,1,partial,1,images/Ex2.jpg,left,training,hard,4,,,,,
,,,,,56b8ad1be1d0a2000c154093,001,61,female,British,First degree,2024-03-06_15h03.52.896,CRL1h,2023.2.3,Win32,40,65e67470ae2fbf2172c317b2,65e885b46534afcdc320e3ed,,,,,,,,,,,211.5487,0.5,212.0477,212.0479,213.0288,right,1,0.9772,,213.0289,214.0225,2,0,32,14,1,partial,1,images/Ex7.jpg,right,training,hard,4,,,,,
,,,,,56b8ad1be1d0a2000c154093,001,61,female,British,First degree,2024-03-06_15h03.52.896,CRL1h,2023.2.3,Win32,40,65e67470ae2fbf2172c317b2,65e885b46534afcdc320e3ed,,,,,,,,,,,214.0248,1.1,215.1259,215.126,215.8774,right,1,0.7487,,215.8775,216.8759,2,1,33,7,1,partial,1,images/Ex8.jpg,right,training,hard,4,,,,,
,,,,,56b8ad1be1d0a2000c154093,001,61,female,British,First degree,2024-03-06_15h03.52.896,CRL1h,2023.2.3,Win32,40,65e67470ae2fbf2172c317b2,65e885b46534afcdc320e3ed,,,,,,,,,,,216.8764,1.2,218.0749,218.075,218.8527,right,1,0.7743,,218.8527,219.8483,2,2,34,4,1,partial,1,images/Ex5.jpg,right,training,hard,4,,,,,
,,,,,56b8ad1be1d0a2000c154093,001,61,female,British,First degree,2024-03-06_15h03.52.896,CRL1h,2023.2.3,Win32,40,65e67470ae2fbf2172c317b2,65e885b46534afcdc320e3ed,,,,,,,,,,,219.8498,0.8,220.6481,220.6481,222.376,right,1,1.7262,,222.376,223.375,2,3,35,13,1,partial,1,images/Ex6.jpg,right,training,hard,4,,,,,
,,,,,56b8ad1be1d0a2000c154093,001,61,female,British,First degree,2024-03-06_15h03.52.896,CRL1h,2023.2.3,Win32,40,65e67470ae2fbf2172c317b2,65e885b46534afcdc320e3ed,,,,,,,,,,,223.3758,1.4,224.7716,224.7716,225.7995,right,0,1.0252,,225.7996,226.7981,2,4,36,1,1,partial,1,images/Ex2.jpg,left,training,hard,4,,,,,
,,,,,56b8ad1be1d0a2000c154093,001,61,female,British,First degree,2024-03-06_15h03.52.896,CRL1h,2023.2.3,Win32,40,65e67470ae2fbf2172c317b2,65e885b46534afcdc320e3ed,,,,,,,,,,,226.799,0.8,227.5972,227.5973,228.2471,right,1,0.6478,,228.2472,229.2458,2,5,37,12,1,partial,1,images/Ex5.jpg,right,training,hard,4,,,,,
,,,,,56b8ad1be1d0a2000c154093,001,61,female,British,First degree,2024-03-06_15h03.52.896,CRL1h,2023.2.3,Win32,40,65e67470ae2fbf2172c317b2,65e885b46534afcdc320e3ed,,,,,,,,,,,229.2467,0.9,230.1472,230.1474,231.0216,right,0,0.8701,,231.0218,232.0208,2,6,38,9,1,partial,1,images/Ex2.jpg,left,training,hard,4,,,,,
,,,,,56b8ad1be1d0a2000c154093,001,61,female,British,First degree,2024-03-06_15h03.52.896,CRL1h,2023.2.3,Win32,40,65e67470ae2fbf2172c317b2,65e885b46534afcdc320e3ed,,,,,,,,,,,232.0216,0.7,232.7165,232.7167,233.3906,right,1,0.6629,,233.3907,234.3915,2,7,39,6,1,partial,1,images/Ex7.jpg,right,training,hard,4,,,,,
,,,,,56b8ad1be1d0a2000c154093,001,61,female,British,First degree,2024-03-06_15h03.52.896,CRL1h,2023.2.3,Win32,40,65e67470ae2fbf2172c317b2,65e885b46534afcdc320e3ed,,,,,,,,,,,234.3933,1,235.3934,235.3935,236.0705,right,0,0.6757,,236.0705,237.0649,2,8,40,0,1,partial,1,images/Ex1.jpg,left,training,hard,4,,,,,
,,,,,56b8ad1be1d0a2000c154093,001,61,female,British,First degree,2024-03-06_15h03.52.896,CRL1h,2023.2.3,Win32,40,65e67470ae2fbf2172c317b2,65e885b46534afcdc320e3ed,,,,,,,,,,,237.067,0.6,237.6679,237.6679,238.3206,right,0,0.6497,,238.3207,239.3175,2,9,41,3,1,partial,1,images/Ex4.jpg,left,training,hard,4,,,,,
,,,,,56b8ad1be1d0a2000c154093,001,61,female,British,First degree,2024-03-06_15h03.52.896,CRL1h,2023.2.3,Win32,40,65e67470ae2fbf2172c317b2,65e885b46534afcdc320e3ed,,,,,,,,,,,239.3184,0.9,240.2181,240.2181,241.0424,right,0,0.8215,,241.0424,242.0426,2,10,42,2,1,partial,1,images/Ex3.jpg,left,training,hard,4,,,,,
,,,,,56b8ad1be1d0a2000c154093,001,61,female,British,First degree,2024-03-06_15h03.52.896,CRL1h,2023.2.3,Win32,40,65e67470ae2fbf2172c317b2,65e885b46534afcdc320e3ed,,,,,,,,,,,242.0435,0.9,242.943,242.943,243.6168,right,0,0.6711,,243.6168,244.6167,2,11,43,8,1,partial,1,images/Ex1.jpg,left,training,hard,4,,,,,
,,,,,56b8ad1be1d0a2000c154093,001,61,female,British,First degree,2024-03-06_15h03.52.896,CRL1h,2023.2.3,Win32,40,65e67470ae2fbf2172c317b2,65e885b46534afcdc320e3ed,,,,,,,,,,,244.6183,1,245.6116,245.6116,246.4676,right,1,0.8541,,246.4677,247.4649,2,12,44,5,1,partial,1,images/Ex6.jpg,right,training,hard,4,,,,,
,,,,,56b8ad1be1d0a2000c154093,001,61,female,British,First degree,2024-03-06_15h03.52.896,CRL1h,2023.2.3,Win32,40,65e67470ae2fbf2172c317b2,65e885b46534afcdc320e3ed,,,,,,,,,,,247.4656,1.1,248.5651,248.5652,249.3376,right,1,0.7581,,249.3377,250.3418,2,13,45,15,1,partial,1,images/Ex8.jpg,right,training,hard,4,,,,,
,,,,,56b8ad1be1d0a2000c154093,001,61,female,British,First degree,2024-03-06_15h03.52.896,CRL1h,2023.2.3,Win32,40,65e67470ae2fbf2172c317b2,65e885b46534afcdc320e3ed,,,,,,,,,,,250.3429,1.1,251.4349,251.435,252.167,right,0,0.7292,,252.1671,253.1644,2,14,46,11,1,partial,1,images/Ex4.jpg,left,training,hard,4,,,,,
,,,,,56b8ad1be1d0a2000c154093,001,61,female,British,First degree,2024-03-06_15h03.52.896,CRL1h,2023.2.3,Win32,40,65e67470ae2fbf2172c317b2,65e885b46534afcdc320e3ed,,,,,,,,,,,253.1654,0.6,253.7613,253.7615,254.438,left,1,0.6738,,254.438,255.437,2,15,47,10,1,partial,1,images/Ex3.jpg,left,training,hard,4,,,,,
,,,,,56b8ad1be1d0a2000c154093,001,61,female,British,First degree,2024-03-06_15h03.52.896,CRL1h,2023.2.3,Win32,40,65e67470ae2fbf2172c317b2,65e885b46534afcdc320e3ed,,,,,,,,,,,255.4374,1,256.4336,256.4337,257.1374,left,0,0.7025,,257.1374,258.1373,3,0,48,4,1,partial,1,images/Ex5.jpg,right,training,hard,4,,,,,
,,,,,56b8ad1be1d0a2000c154093,001,61,female,British,First degree,2024-03-06_15h03.52.896,CRL1h,2023.2.3,Win32,40,65e67470ae2fbf2172c317b2,65e885b46534afcdc320e3ed,,,,,,,,,,,258.1383,0.9,259.0367,259.0368,259.5886,right,1,0.5482,,259.5886,260.5874,3,1,49,15,1,partial,1,images/Ex8.jpg,right,training,hard,4,,,,,
,,,,,56b8ad1be1d0a2000c154093,001,61,female,British,First degree,2024-03-06_15h03.52.896,CRL1h,2023.2.3,Win32,40,65e67470ae2fbf2172c317b2,65e885b46534afcdc320e3ed,,,,,,,,,,,260.5883,1.4,261.9867,261.9868,262.9148,right,0,0.9252,,262.9148,263.9085,3,2,50,11,1,partial,1,images/Ex4.jpg,left,training,hard,4,,,,,
,,,,,56b8ad1be1d0a2000c154093,001,61,female,British,First degree,2024-03-06_15h03.52.896,CRL1h,2023.2.3,Win32,40,65e67470ae2fbf2172c317b2,65e885b46534afcdc320e3ed,,,,,,,,,,,263.9096,0.8,264.7063,264.7064,265.5094,left,1,0.8,,265.5094,266.5065,3,3,51,1,1,partial,1,images/Ex2.jpg,left,training,hard,4,,,,,
,,,,,56b8ad1be1d0a2000c154093,001,61,female,British,First degree,2024-03-06_15h03.52.896,CRL1h,2023.2.3,Win32,40,65e67470ae2fbf2172c317b2,65e885b46534afcdc320e3ed,,,,,,,,,,,266.508,1.2,267.705,267.7052,268.7113,left,1,1.0022,,268.7114,269.7091,3,4,52,0,1,partial,1,images/Ex1.jpg,left,training,hard,4,,,,,
,,,,,56b8ad1be1d0a2000c154093,001,61,female,British,First degree,2024-03-06_15h03.52.896,CRL1h,2023.2.3,Win32,40,65e67470ae2fbf2172c317b2,65e885b46534afcdc320e3ed,,,,,,,,,,,269.7101,0.6,270.3092,270.3093,271.1353,left,0,0.8232,,271.1354,272.132,3,5,53,13,1,partial,1,images/Ex6.jpg,right,training,hard,4,,,,,
,,,,,56b8ad1be1d0a2000c154093,001,61,female,British,First degree,2024-03-06_15h03.52.896,CRL1h,2023.2.3,Win32,40,65e67470ae2fbf2172c317b2,65e885b46534afcdc320e3ed,,,,,,,,,,,272.1324,1,273.1297,273.1297,273.8069,right,0,0.6764,,273.8069,274.8022,3,6,54,3,1,partial,1,images/Ex4.jpg,left,training,hard,4,,,,,
,,,,,56b8ad1be1d0a2000c154093,001,61,female,British,First degree,2024-03-06_15h03.52.896,CRL1h,2023.2.3,Win32,40,65e67470ae2fbf2172c317b2,65e885b46534afcdc320e3ed,,,,,,,,,,,274.8028,1.1,275.9053,275.9054,276.6804,left,0,0.7742,,276.6804,277.6795,3,7,55,6,1,partial,1,images/Ex7.jpg,right,training,hard,4,,,,,
,,,,,56b8ad1be1d0a2000c154093,001,61,female,British,First degree,2024-03-06_15h03.52.896,CRL1h,2023.2.3,Win32,40,65e67470ae2fbf2172c317b2,65e885b46534afcdc320e3ed,,,,,,,,,,,277.6799,0.7,278.3762,278.3764,279.3298,left,0,0.9523,,279.3298,280.3291,3,8,56,14,1,partial,1,images/Ex7.jpg,right,training,hard,4,,,,,
,,,,,56b8ad1be1d0a2000c154093,001,61,female,British,First degree,2024-03-06_15h03.52.896,CRL1h,2023.2.3,Win32,40,65e67470ae2fbf2172c317b2,65e885b46534afcdc320e3ed,,,,,,,,,,,280.3294,1.3,281.6296,281.6297,282.2028,right,1,0.555,,282.2031,283.2037,3,9,57,7,1,partial,1,images/Ex8.jpg,right,training,hard,4,,,,,
,,,,,56b8ad1be1d0a2000c154093,001,61,female,British,First degree,2024-03-06_15h03.52.896,CRL1h,2023.2.3,Win32,40,65e67470ae2fbf2172c317b2,65e885b46534afcdc320e3ed,,,,,,,,,,,283.2047,1.2,284.4035,284.4035,285.0024,right,0,0.5814,,285.0025,286.0039,3,10,58,2,1,partial,1,images/Ex3.jpg,left,training,hard,4,,,,,
,,,,,56b8ad1be1d0a2000c154093,001,61,female,British,First degree,2024-03-06_15h03.52.896,CRL1h,2023.2.3,Win32,40,65e67470ae2fbf2172c317b2,65e885b46534afcdc320e3ed,,,,,,,,,,,286.0051,1.1,287.1038,287.1039,287.6561,left,1,0.5495,,287.6561,288.6492,3,11,59,9,1,partial,1,images/Ex2.jpg,left,training,hard,4,,,,,
,,,,,56b8ad1be1d0a2000c154093,001,61,female,British,First degree,2024-03-06_15h03.52.896,CRL1h,2023.2.3,Win32,40,65e67470ae2fbf2172c317b2,65e885b46534afcdc320e3ed,,,,,,,,,,,288.6508,0.9,289.5511,289.5512,290.0528,left,1,0.4984,,290.0529,291.0484,3,12,60,10,1,partial,1,images/Ex3.jpg,left,training,hard,4,,,,,
,,,,,56b8ad1be1d0a2000c154093,001,61,female,British,First degree,2024-03-06_15h03.52.896,CRL1h,2023.2.3,Win32,40,65e67470ae2fbf2172c317b2,65e885b46534afcdc320e3ed,,,,,,,,,,,291.0504,0.7,291.7491,291.7492,292.3742,left,0,0.6199,,292.3744,293.3751,3,13,61,12,1,partial,1,images/Ex5.jpg,right,training,hard,4,,,,,
,,,,,56b8ad1be1d0a2000c154093,001,61,female,British,First degree,2024-03-06_15h03.52.896,CRL1h,2023.2.3,Win32,40,65e67470ae2fbf2172c317b2,65e885b46534afcdc320e3ed,,,,,,,,,,,293.3756,0.8,294.1755,294.1755,294.8773,left,0,0.6993,,294.8775,295.8762,3,14,62,5,1,partial,1,images/Ex6.jpg,right,training,hard,4,,,,,
,,,,,56b8ad1be1d0a2000c154093,001,61,female,British,First degree,2024-03-06_15h03.52.896,CRL1h,2023.2.3,Win32,40,65e67470ae2fbf2172c317b2,65e885b46534afcdc320e3ed,,,,,,,,,,,295.878,1.2,297.072,297.0721,297.5763,right,0,0.5009,,297.5764,298.5744,3,15,63,8,1,partial,1,images/Ex1.jpg,left,training,hard,4,,,,,
,,,,,56b8ad1be1d0a2000c154093,001,61,female,British,First degree,2024-03-06_15h03.52.896,CRL1h,2023.2.3,Win32,40,65e67470ae2fbf2172c317b2,65e885b46534afcdc320e3ed,,,,,,,,,,,298.5761,1.2,299.7742,299.7742,300.4759,right,1,0.6985,,300.476,301.4692,4,0,64,6,1,partial,1,images/Ex7.jpg,right,training,hard,4,,,,,
,,,,,56b8ad1be1d0a2000c154093,001,61,female,British,First degree,2024-03-06_15h03.52.896,CRL1h,2023.2.3,Win32,40,65e67470ae2fbf2172c317b2,65e885b46534afcdc320e3ed,,,,,,,,,,,301.4703,0.7,302.169,302.1693,303.0971,left,0,0.9194,,303.0972,304.0939,4,1,65,4,1,partial,1,images/Ex5.jpg,right,training,hard,4,,,,,
,,,,,56b8ad1be1d0a2000c154093,001,61,female,British,First degree,2024-03-06_15h03.52.896,CRL1h,2023.2.3,Win32,40,65e67470ae2fbf2172c317b2,65e885b46534afcdc320e3ed,,,,,,,,,,,304.0958,0.6,304.6979,304.6981,305.447,left,0,0.7472,,305.447,306.4461,4,2,66,12,1,partial,1,images/Ex5.jpg,right,training,hard,4,,,,,
,,,,,56b8ad1be1d0a2000c154093,001,61,female,British,First degree,2024-03-06_15h03.52.896,CRL1h,2023.2.3,Win32,40,65e67470ae2fbf2172c317b2,65e885b46534afcdc320e3ed,,,,,,,,,,,306.4463,1.2,307.6464,307.6465,308.1976,right,0,0.5484,,308.1977,309.1961,4,3,67,8,1,partial,1,images/Ex1.jpg,left,training,hard,4,,,,,
,,,,,56b8ad1be1d0a2000c154093,001,61,female,British,First degree,2024-03-06_15h03.52.896,CRL1h,2023.2.3,Win32,40,65e67470ae2fbf2172c317b2,65e885b46534afcdc320e3ed,,,,,,,,,,,309.1969,1.1,310.2951,310.2951,311.194,right,0,0.8856,,311.1941,312.191,4,4,68,3,1,partial,1,images/Ex4.jpg,left,training,hard,4,,,,,
,,,,,56b8ad1be1d0a2000c154093,001,61,female,British,First degree,2024-03-06_15h03.52.896,CRL1h,2023.2.3,Win32,40,65e67470ae2fbf2172c317b2,65e885b46534afcdc320e3ed,,,,,,,,,,,312.1932,0.7,312.8965,312.8966,313.5436,right,1,0.6438,,313.5437,314.541,4,5,69,7,1,partial,1,images/Ex8.jpg,right,training,hard,4,,,,,
,,,,,56b8ad1be1d0a2000c154093,001,61,female,British,First degree,2024-03-06_15h03.52.896,CRL1h,2023.2.3,Win32,40,65e67470ae2fbf2172c317b2,65e885b46534afcdc320e3ed,,,,,,,,,,,314.5423,1,315.5462,315.5463,316.3206,left,0,0.7716,,316.3207,317.3143,4,6,70,13,1,partial,1,images/Ex6.jpg,right,training,hard,4,,,,,
,,,,,56b8ad1be1d0a2000c154093,001,61,female,British,First degree,2024-03-06_15h03.52.896,CRL1h,2023.2.3,Win32,40,65e67470ae2fbf2172c317b2,65e885b46534afcdc320e3ed,,,,,,,,,,,317.3165,1.3,318.6145,318.6148,319.3698,left,1,0.7511,,319.37,320.3643,4,7,71,10,1,partial,1,images/Ex3.jpg,left,training,hard,4,,,,,
,,,,,56b8ad1be1d0a2000c154093,001,61,female,British,First degree,2024-03-06_15h03.52.896,CRL1h,2023.2.3,Win32,40,65e67470ae2fbf2172c317b2,65e885b46534afcdc320e3ed,,,,,,,,,,,320.3659,0.6,320.9673,320.9674,321.7888,left,0,0.8073,,321.7894,322.7934,4,8,72,14,1,partial,1,images/Ex7.jpg,right,training,hard,4,,,,,
,,,,,56b8ad1be1d0a2000c154093,001,61,female,British,First degree,2024-03-06_15h03.52.896,CRL1h,2023.2.3,Win32,40,65e67470ae2fbf2172c317b2,65e885b46534afcdc320e3ed,,,,,,,,,,,322.7942,1.2,323.9916,323.9917,324.9144,right,1,0.9042,,324.9145,325.912,4,9,73,5,1,partial,1,images/Ex6.jpg,right,training,hard,4,,,,,
,,,,,56b8ad1be1d0a2000c154093,001,61,female,British,First degree,2024-03-06_15h03.52.896,CRL1h,2023.2.3,Win32,40,65e67470ae2fbf2172c317b2,65e885b46534afcdc320e3ed,,,,,,,,,,,325.9131,0.6,326.5142,326.5143,327.465,left,1,0.9497,,327.465,328.4638,4,10,74,2,1,partial,1,images/Ex3.jpg,left,training,hard,4,,,,,
,,,,,56b8ad1be1d0a2000c154093,001,61,female,British,First degree,2024-03-06_15h03.52.896,CRL1h,2023.2.3,Win32,40,65e67470ae2fbf2172c317b2,65e885b46534afcdc320e3ed,,,,,,,,,,,328.4641,1.5,329.9651,329.9652,331.4598,right,1,1.4771,,331.4599,332.459,4,11,75,15,1,partial,1,images/Ex8.jpg,right,training,hard,4,,,,,
,,,,,56b8ad1be1d0a2000c154093,001,61,female,British,First degree,2024-03-06_15h03.52.896,CRL1h,2023.2.3,Win32,40,65e67470ae2fbf2172c317b2,65e885b46534afcdc320e3ed,,,,,,,,,,,332.4597,1.2,333.6638,333.6639,334.7339,right,0,1.0466,,334.7339,335.7371,4,12,76,11,1,partial,1,images/Ex4.jpg,left,training,hard,4,,,,,
,,,,,56b8ad1be1d0a2000c154093,001,61,female,British,First degree,2024-03-06_15h03.52.896,CRL1h,2023.2.3,Win32,40,65e67470ae2fbf2172c317b2,65e885b46534afcdc320e3ed,,,,,,,,,,,335.7382,0.9,336.633,336.633,337.458,right,0,0.8083,,337.458,338.4609,4,13,77,9,1,partial,1,images/Ex2.jpg,left,training,hard,4,,,,,
,,,,,56b8ad1be1d0a2000c154093,001,61,female,British,First degree,2024-03-06_15h03.52.896,CRL1h,2023.2.3,Win32,40,65e67470ae2fbf2172c317b2,65e885b46534afcdc320e3ed,,,,,,,,,,,338.4612,1.2,339.6574,339.6576,340.6135,left,1,0.9517,,340.6136,341.6109,4,14,78,0,1,partial,1,images/Ex1.jpg,left,training,hard,4,,,,,
,,,,,56b8ad1be1d0a2000c154093,001,61,female,British,First degree,2024-03-06_15h03.52.896,CRL1h,2023.2.3,Win32,40,65e67470ae2fbf2172c317b2,65e885b46534afcdc320e3ed,,,,,,,,,,,341.6118,1,342.6067,342.6069,343.3877,left,1,0.7771,,343.3878,344.3809,4,15,79,1,1,partial,1,images/Ex2.jpg,left,training,hard,4,,,,,
,,,,,56b8ad1be1d0a2000c154093,001,61,female,British,First degree,2024-03-06_15h03.52.896,CRL1h,2023.2.3,Win32,40,65e67470ae2fbf2172c317b2,65e885b46534afcdc320e3ed,,,,,,,,,,,344.3829,1.5,345.8848,345.8849,346.9549,left,0,1.0647,,346.9549,347.9578,5,0,80,6,1,partial,1,images/Ex7.jpg,right,training,hard,4,,,,,
,,,,,56b8ad1be1d0a2000c154093,001,61,female,British,First degree,2024-03-06_15h03.52.896,CRL1h,2023.2.3,Win32,40,65e67470ae2fbf2172c317b2,65e885b46534afcdc320e3ed,,,,,,,,,,,347.9732,1.1,349.0849,349.0851,349.8354,left,0,0.7478,,349.8355,350.8335,5,1,81,4,1,partial,1,images/Ex5.jpg,right,training,hard,4,,,,,
,,,,,56b8ad1be1d0a2000c154093,001,61,female,British,First degree,2024-03-06_15h03.52.896,CRL1h,2023.2.3,Win32,40,65e67470ae2fbf2172c317b2,65e885b46534afcdc320e3ed,,,,,,,,,,,350.8345,0.6,351.4281,351.4282,352.1054,left,1,0.6609,,352.1056,353.1096,5,2,82,2,1,partial,1,images/Ex3.jpg,left,training,hard,4,,,,,
,,,,,56b8ad1be1d0a2000c154093,001,61,female,British,First degree,2024-03-06_15h03.52.896,CRL1h,2023.2.3,Win32,40,65e67470ae2fbf2172c317b2,65e885b46534afcdc320e3ed,,,,,,,,,,,353.1106,1.4,354.5027,354.5028,355.5586,left,0,1.053,,355.5587,356.5568,5,3,83,5,1,partial,1,images/Ex6.jpg,right,training,hard,4,,,,,
,,,,,56b8ad1be1d0a2000c154093,001,61,female,British,First degree,2024-03-06_15h03.52.896,CRL1h,2023.2.3,Win32,40,65e67470ae2fbf2172c317b2,65e885b46534afcdc320e3ed,,,,,,,,,,,356.5577,1,357.5516,357.5518,358.2043,left,0,0.6317,,358.2044,359.2042,5,4,84,15,1,partial,1,images/Ex8.jpg,right,training,hard,4,,,,,
,,,,,56b8ad1be1d0a2000c154093,001,61,female,British,First degree,2024-03-06_15h03.52.896,CRL1h,2023.2.3,Win32,40,65e67470ae2fbf2172c317b2,65e885b46534afcdc320e3ed,,,,,,,,,,,359.2045,0.9,360.105,360.1051,360.9066,left,1,0.7983,,360.9067,361.9005,5,5,85,8,1,partial,1,images/Ex1.jpg,left,training,hard,4,,,,,
,,,,,56b8ad1be1d0a2000c154093,001,61,female,British,First degree,2024-03-06_15h03.52.896,CRL1h,2023.2.3,Win32,40,65e67470ae2fbf2172c317b2,65e885b46534afcdc320e3ed,,,,,,,,,,,361.9029,1.3,363.2041,363.2042,363.8309,left,1,0.6239,,363.831,364.8265,5,6,86,0,1,partial,1,images/Ex1.jpg,left,training,hard,4,,,,,
,,,,,56b8ad1be1d0a2000c154093,001,61,female,British,First degree,2024-03-06_15h03.52.896,CRL1h,2023.2.3,Win32,40,65e67470ae2fbf2172c317b2,65e885b46534afcdc320e3ed,,,,,,,,,,,364.8271,1.5,366.3293,366.3296,367.5051,right,0,1.172,,367.5052,368.5022,5,7,87,3,1,partial,1,images/Ex4.jpg,left,training,hard,4,,,,,
,,,,,56b8ad1be1d0a2000c154093,001,61,female,British,First degree,2024-03-06_15h03.52.896,CRL1h,2023.2.3,Win32,40,65e67470ae2fbf2172c317b2,65e885b46534afcdc320e3ed,,,,,,,,,,,368.5036,1,369.5032,369.5034,370.2545,left,1,0.7482,,370.2546,371.2519,5,8,88,10,1,partial,1,images/Ex3.jpg,left,training,hard,4,,,,,
,,,,,56b8ad1be1d0a2000c154093,001,61,female,British,First degree,2024-03-06_15h03.52.896,CRL1h,2023.2.3,Win32,40,65e67470ae2fbf2172c317b2,65e885b46534afcdc320e3ed,,,,,,,,,,,371.2533,0.8,372.0512,372.0512,372.6779,left,0,0.623,,372.678,373.6756,5,9,89,12,1,partial,1,images/Ex5.jpg,right,training,hard,4,,,,,
,,,,,56b8ad1be1d0a2000c154093,001,61,female,British,First degree,2024-03-06_15h03.52.896,CRL1h,2023.2.3,Win32,40,65e67470ae2fbf2172c317b2,65e885b46534afcdc320e3ed,,,,,,,,,,,373.6764,0.7,374.3723,374.3724,374.8727,left,1,0.4809,,374.8734,375.8751,5,10,90,11,1,partial,1,images/Ex4.jpg,left,training,hard,4,,,,,
,,,,,56b8ad1be1d0a2000c154093,001,61,female,British,First degree,2024-03-06_15h03.52.896,CRL1h,2023.2.3,Win32,40,65e67470ae2fbf2172c317b2,65e885b46534afcdc320e3ed,,,,,,,,,,,375.876,1.3,377.1709,377.171,377.9527,left,0,0.7769,,377.9528,378.9492,5,11,91,7,1,partial,1,images/Ex8.jpg,right,training,hard,4,,,,,
,,,,,56b8ad1be1d0a2000c154093,001,61,female,British,First degree,2024-03-06_15h03.52.896,CRL1h,2023.2.3,Win32,40,65e67470ae2fbf2172c317b2,65e885b46534afcdc320e3ed,,,,,,,,,,,378.9508,0.9,379.8489,379.8489,380.4481,left,0,0.5964,,380.4481,381.4466,5,12,92,14,1,partial,1,images/Ex7.jpg,right,training,hard,4,,,,,
,,,,,56b8ad1be1d0a2000c154093,001,61,female,British,First degree,2024-03-06_15h03.52.896,CRL1h,2023.2.3,Win32,40,65e67470ae2fbf2172c317b2,65e885b46534afcdc320e3ed,,,,,,,,,,,381.4469,0.8,382.2479,382.248,382.9978,left,1,0.7476,,382.9979,383.9933,5,13,93,9,1,partial,1,images/Ex2.jpg,left,training,hard,4,,,,,
,,,,,56b8ad1be1d0a2000c154093,001,61,female,British,First degree,2024-03-06_15h03.52.896,CRL1h,2023.2.3,Win32,40,65e67470ae2fbf2172c317b2,65e885b46534afcdc320e3ed,,,,,,,,,,,383.9941,0.9,384.8932,384.8935,385.9985,right,0,1.1028,,385.9986,386.9967,5,14,94,1,1,partial,1,images/Ex2.jpg,left,training,hard,4,,,,,
,,,,,56b8ad1be1d0a2000c154093,001,61,female,British,First degree,2024-03-06_15h03.52.896,CRL1h,2023.2.3,Win32,40,65e67470ae2fbf2172c317b2,65e885b46534afcdc320e3ed,,,,,,,,,,,386.9979,1.2,388.1952,388.1953,389.1227,right,1,0.9255,,389.1228,390.1165,5,15,95,13,1,partial,1,images/Ex6.jpg,right,training,hard,4,,,,,
,,,,,56b8ad1be1d0a2000c154093,001,61,female,British,First degree,2024-03-06_15h03.52.896,CRL1h,2023.2.3,Win32,40,65e67470ae2fbf2172c317b2,65e885b46534afcdc320e3ed,,,,,,,,,,,390.1185,0.7,390.8224,390.8225,391.8441,left,1,1.0198,,391.8441,392.841,6,0,96,10,1,partial,1,images/Ex3.jpg,left,training,hard,4,,,,,
,,,,,56b8ad1be1d0a2000c154093,001,61,female,British,First degree,2024-03-06_15h03.52.896,CRL1h,2023.2.3,Win32,40,65e67470ae2fbf2172c317b2,65e885b46534afcdc320e3ed,,,,,,,,,,,392.8433,0.7,393.5446,393.5446,394.5196,right,1,0.9727,,394.5196,395.5197,6,1,97,14,1,partial,1,images/Ex7.jpg,right,training,hard,4,,,,,
,,,,,56b8ad1be1d0a2000c154093,001,61,female,British,First degree,2024-03-06_15h03.52.896,CRL1h,2023.2.3,Win32,40,65e67470ae2fbf2172c317b2,65e885b46534afcdc320e3ed,,,,,,,,,,,395.5205,1.1,396.6168,396.6168,397.5675,right,0,0.9442,,397.5679,398.5668,6,2,98,9,1,partial,1,images/Ex2.jpg,left,training,hard,4,,,,,
,,,,,56b8ad1be1d0a2000c154093,001,61,female,British,First degree,2024-03-06_15h03.52.896,CRL1h,2023.2.3,Win32,40,65e67470ae2fbf2172c317b2,65e885b46534afcdc320e3ed,,,,,,,,,,,398.5675,0.6,399.1673,399.1673,399.9919,left,0,0.8227,,399.9919,400.988,6,3,99,12,1,partial,1,images/Ex5.jpg,right,training,hard,4,,,,,
,,,,,56b8ad1be1d0a2000c154093,001,61,female,British,First degree,2024-03-06_15h03.52.896,CRL1h,2023.2.3,Win32,40,65e67470ae2fbf2172c317b2,65e885b46534afcdc320e3ed,,,,,,,,,,,400.9901,1.4,402.3885,402.3886,403.1419,left,1,0.75,,403.142,404.1407,6,4,100,11,1,partial,1,images/Ex4.jpg,left,training,hard,4,,,,,
,,,,,56b8ad1be1d0a2000c154093,001,61,female,British,First degree,2024-03-06_15h03.52.896,CRL1h,2023.2.3,Win32,40,65e67470ae2fbf2172c317b2,65e885b46534afcdc320e3ed,,,,,,,,,,,404.1412,0.9,405.0401,405.0401,405.8651,left,0,0.8099,,405.8653,406.8657,6,5,101,7,1,partial,1,images/Ex8.jpg,right,training,hard,4,,,,,
,,,,,56b8ad1be1d0a2000c154093,001,61,female,British,First degree,2024-03-06_15h03.52.896,CRL1h,2023.2.3,Win32,40,65e67470ae2fbf2172c317b2,65e885b46534afcdc320e3ed,,,,,,,,,,,406.8664,1.1,407.9651,407.9651,408.6167,left,0,0.6485,,408.6167,409.6103,6,6,102,4,1,partial,1,images/Ex5.jpg,right,training,hard,4,,,,,
,,,,,56b8ad1be1d0a2000c154093,001,61,female,British,First degree,2024-03-06_15h03.52.896,CRL1h,2023.2.3,Win32,40,65e67470ae2fbf2172c317b2,65e885b46534afcdc320e3ed,,,,,,,,,,,409.6115,0.5,410.1144,410.1144,410.8117,left,1,0.6824,,410.8119,411.8099,6,7,103,1,1,partial,1,images/Ex2.jpg,left,training,hard,4,,,,,
,,,,,56b8ad1be1d0a2000c154093,001,61,female,British,First degree,2024-03-06_15h03.52.896,CRL1h,2023.2.3,Win32,40,65e67470ae2fbf2172c317b2,65e885b46534afcdc320e3ed,,,,,,,,,,,411.8122,1.4,413.2136,413.2136,413.9642,left,0,0.7476,,413.9642,414.962,6,8,104,13,1,partial,1,images/Ex6.jpg,right,training,hard,4,,,,,
,,,,,56b8ad1be1d0a2000c154093,001,61,female,British,First degree,2024-03-06_15h03.52.896,CRL1h,2023.2.3,Win32,40,65e67470ae2fbf2172c317b2,65e885b46534afcdc320e3ed,,,,,,,,,,,414.9624,0.9,415.8582,415.8584,416.7641,right,1,0.9018,,416.7644,417.7618,6,9,105,15,1,partial,1,images/Ex8.jpg,right,training,hard,4,,,,,
,,,,,56b8ad1be1d0a2000c154093,001,61,female,British,First degree,2024-03-06_15h03.52.896,CRL1h,2023.2.3,Win32,40,65e67470ae2fbf2172c317b2,65e885b46534afcdc320e3ed,,,,,,,,,,,417.7634,1.3,419.0572,419.0574,419.8878,right,0,0.8264,,419.8879,420.8845,6,10,106,3,1,partial,1,images/Ex4.jpg,left,training,hard,4,,,,,
,,,,,56b8ad1be1d0a2000c154093,001,61,female,British,First degree,2024-03-06_15h03.52.896,CRL1h,2023.2.3,Win32,40,65e67470ae2fbf2172c317b2,65e885b46534afcdc320e3ed,,,,,,,,,,,420.8849,1.5,422.3888,422.3889,423.1121,left,1,0.7203,,423.1121,424.1057,6,11,107,2,1,partial,1,images/Ex3.jpg,left,training,hard,4,,,,,
,,,,,56b8ad1be1d0a2000c154093,001,61,female,British,First degree,2024-03-06_15h03.52.896,CRL1h,2023.2.3,Win32,40,65e67470ae2fbf2172c317b2,65e885b46534afcdc320e3ed,,,,,,,,,,,424.1074,0.7,424.8105,424.8105,425.5818,right,1,0.7636,,425.582,426.5858,6,12,108,5,1,partial,1,images/Ex6.jpg,right,training,hard,4,,,,,
,,,,,56b8ad1be1d0a2000c154093,001,61,female,British,First degree,2024-03-06_15h03.52.896,CRL1h,2023.2.3,Win32,40,65e67470ae2fbf2172c317b2,65e885b46534afcdc320e3ed,,,,,,,,,,,426.5867,1.3,427.8837,427.8837,428.7071,left,1,0.8207,,428.7071,429.7077,6,13,109,8,1,partial,1,images/Ex1.jpg,left,training,hard,4,,,,,
,,,,,56b8ad1be1d0a2000c154093,001,61,female,British,First degree,2024-03-06_15h03.52.896,CRL1h,2023.2.3,Win32,40,65e67470ae2fbf2172c317b2,65e885b46534afcdc320e3ed,,,,,,,,,,,429.7087,1.4,431.1076,431.1078,431.8799,left,1,0.7527,,431.8799,432.8785,6,14,110,0,1,partial,1,images/Ex1.jpg,left,training,hard,4,,,,,
,,,,,56b8ad1be1d0a2000c154093,001,61,female,British,First degree,2024-03-06_15h03.52.896,CRL1h,2023.2.3,Win32,40,65e67470ae2fbf2172c317b2,65e885b46534afcdc320e3ed,,,,,,,,,,,432.8801,1.2,434.0809,434.0809,435.258,left,0,1.174,,435.258,436.2515,6,15,111,6,1,partial,1,images/Ex7.jpg,right,training,hard,4,,,,,
,,,,,56b8ad1be1d0a2000c154093,001,61,female,British,First degree,2024-03-06_15h03.52.896,CRL1h,2023.2.3,Win32,40,65e67470ae2fbf2172c317b2,65e885b46534afcdc320e3ed,,,,,,,,,,,436.2538,1.5,437.7511,437.7512,438.5036,left,0,0.7265,,438.5037,439.5045,7,0,112,15,1,partial,1,images/Ex8.jpg,right,training,hard,4,,,,,
,,,,,56b8ad1be1d0a2000c154093,001,61,female,British,First degree,2024-03-06_15h03.52.896,CRL1h,2023.2.3,Win32,40,65e67470ae2fbf2172c317b2,65e885b46534afcdc320e3ed,,,,,,,,,,,439.5053,0.7,440.2043,440.2044,440.8302,left,1,0.6233,,440.8303,441.8247,7,1,113,0,1,partial,1,images/Ex1.jpg,left,training,hard,4,,,,,
,,,,,56b8ad1be1d0a2000c154093,001,61,female,British,First degree,2024-03-06_15h03.52.896,CRL1h,2023.2.3,Win32,40,65e67470ae2fbf2172c317b2,65e885b46534afcdc320e3ed,,,,,,,,,,,441.8265,1.3,443.1299,443.13,443.7556,left,1,0.6227,,443.7556,444.7515,7,2,114,11,1,partial,1,images/Ex4.jpg,left,training,hard,4,,,,,
,,,,,56b8ad1be1d0a2000c154093,001,61,female,British,First degree,2024-03-06_15h03.52.896,CRL1h,2023.2.3,Win32,40,65e67470ae2fbf2172c317b2,65e885b46534afcdc320e3ed,,,,,,,,,,,444.752,1.4,446.1747,446.1749,447.0254,right,1,0.8297,,447.0254,448.0239,7,3,115,13,1,partial,1,images/Ex6.jpg,right,training,hard,4,,,,,
,,,,,56b8ad1be1d0a2000c154093,001,61,female,British,First degree,2024-03-06_15h03.52.896,CRL1h,2023.2.3,Win32,40,65e67470ae2fbf2172c317b2,65e885b46534afcdc320e3ed,,,,,,,,,,,448.0251,1.3,449.3233,449.3234,450.2491,right,0,0.9054,,450.2493,451.2469,7,4,116,9,1,partial,1,images/Ex2.jpg,left,training,hard,4,,,,,
,,,,,56b8ad1be1d0a2000c154093,001,61,female,British,First degree,2024-03-06_15h03.52.896,CRL1h,2023.2.3,Win32,40,65e67470ae2fbf2172c317b2,65e885b46534afcdc320e3ed,,,,,,,,,,,451.2486,0.8,452.0468,452.047,452.9966,right,0,0.9266,,452.9966,453.9957,7,5,117,2,1,partial,1,images/Ex3.jpg,left,training,hard,4,,,,,
,,,,,56b8ad1be1d0a2000c154093,001,61,female,British,First degree,2024-03-06_15h03.52.896,CRL1h,2023.2.3,Win32,40,65e67470ae2fbf2172c317b2,65e885b46534afcdc320e3ed,,,,,,,,,,,453.997,1.1,455.0958,455.096,455.9968,right,1,0.8917,,455.9969,456.9943,7,6,118,14,1,partial,1,images/Ex7.jpg,right,training,hard,4,,,,,
,,,,,56b8ad1be1d0a2000c154093,001,61,female,British,First degree,2024-03-06_15h03.52.896,CRL1h,2023.2.3,Win32,40,65e67470ae2fbf2172c317b2,65e885b46534afcdc320e3ed,,,,,,,,,,,456.9947,1.5,458.4951,458.4951,459.3187,right,1,0.8212,,459.3187,460.32,7,7,119,4,1,partial,1,images/Ex5.jpg,right,training,hard,4,,,,,
,,,,,56b8ad1be1d0a2000c154093,001,61,female,British,First degree,2024-03-06_15h03.52.896,CRL1h,2023.2.3,Win32,40,65e67470ae2fbf2172c317b2,65e885b46534afcdc320e3ed,,,,,,,,,,,460.3214,1.1,461.4178,461.4178,462.2708,left,1,0.8436,,462.271,463.2687,7,8,120,8,1,partial,1,images/Ex1.jpg,left,training,hard,4,,,,,
,,,,,56b8ad1be1d0a2000c154093,001,61,female,British,First degree,2024-03-06_15h03.52.896,CRL1h,2023.2.3,Win32,40,65e67470ae2fbf2172c317b2,65e885b46534afcdc320e3ed,,,,,,,,,,,463.2705,1.4,464.6679,464.668,465.7945,left,0,1.1118,,465.7945,466.7923,7,9,121,7,1,partial,1,images/Ex8.jpg,right,training,hard,4,,,,,
,,,,,56b8ad1be1d0a2000c154093,001,61,female,British,First degree,2024-03-06_15h03.52.896,CRL1h,2023.2.3,Win32,40,65e67470ae2fbf2172c317b2,65e885b46534afcdc320e3ed,,,,,,,,,,,466.7946,0.7,467.4932,467.4934,468.1422,right,0,0.6444,,468.1423,469.1412,7,10,122,3,1,partial,1,images/Ex4.jpg,left,training,hard,4,,,,,
,,,,,56b8ad1be1d0a2000c154093,001,61,female,British,First degree,2024-03-06_15h03.52.896,CRL1h,2023.2.3,Win32,40,65e67470ae2fbf2172c317b2,65e885b46534afcdc320e3ed,,,,,,,,,,,469.1433,1.3,470.4402,470.4402,471.2444,left,1,0.802,,471.2445,472.2405,7,11,123,10,1,partial,1,images/Ex3.jpg,left,training,hard,4,,,,,
,,,,,56b8ad1be1d0a2000c154093,001,61,female,British,First degree,2024-03-06_15h03.52.896,CRL1h,2023.2.3,Win32,40,65e67470ae2fbf2172c317b2,65e885b46534afcdc320e3ed,,,,,,,,,,,472.2427,1.1,473.3395,473.3395,474.0164,right,1,0.6716,,474.0165,475.0143,7,12,124,12,1,partial,1,images/Ex5.jpg,right,training,hard,4,,,,,
,,,,,56b8ad1be1d0a2000c154093,001,61,female,British,First degree,2024-03-06_15h03.52.896,CRL1h,2023.2.3,Win32,40,65e67470ae2fbf2172c317b2,65e885b46534afcdc320e3ed,,,,,,,,,,,475.016,1,476.0142,476.0144,476.8657,right,1,0.8441,,476.8658,477.8641,7,13,125,5,1,partial,1,images/Ex6.jpg,right,training,hard,4,,,,,
,,,,,56b8ad1be1d0a2000c154093,001,61,female,British,First degree,2024-03-06_15h03.52.896,CRL1h,2023.2.3,Win32,40,65e67470ae2fbf2172c317b2,65e885b46534afcdc320e3ed,,,,,,,,,,,477.8654,1.1,478.9638,478.964,479.7654,right,1,0.7836,,479.7655,480.7636,7,14,126,6,1,partial,1,images/Ex7.jpg,right,training,hard,4,,,,,
,,,,,56b8ad1be1d0a2000c154093,001,61,female,British,First degree,2024-03-06_15h03.52.896,CRL1h,2023.2.3,Win32,40,65e67470ae2fbf2172c317b2,65e885b46534afcdc320e3ed,,,,,,,,,,,480.7648,0.9,481.6627,481.6633,482.7389,left,1,1.0551,,482.7391,483.7367,7,15,127,1,1,partial,1,images/Ex2.jpg,left,training,hard,4,,,,,
,,,,,56b8ad1be1d0a2000c154093,001,61,female,British,First degree,2024-03-06_15h03.52.896,CRL1h,2023.2.3,Win32,40,65e67470ae2fbf2172c317b2,65e885b46534afcdc320e3ed,,,,,,,,,,,483.7551,1,484.7616,484.7617,485.5364,right,0,0.7501,,485.5364,486.5352,0,0,0,7,1,partial,2,images/Ex8.jpg,left,reversed,hard,4,,,,,
,,,,,56b8ad1be1d0a2000c154093,001,61,female,British,First degree,2024-03-06_15h03.52.896,CRL1h,2023.2.3,Win32,40,65e67470ae2fbf2172c317b2,65e885b46534afcdc320e3ed,,,,,,,,,,,486.536,1,487.5354,487.5356,488.3873,left,0,0.8406,,488.3874,489.3855,0,1,1,8,1,partial,2,images/Ex1.jpg,right,reversed,hard,4,,,,,
,,,,,56b8ad1be1d0a2000c154093,001,61,female,British,First degree,2024-03-06_15h03.52.896,CRL1h,2023.2.3,Win32,40,65e67470ae2fbf2172c317b2,65e885b46534afcdc320e3ed,,,,,,,,,,,489.3873,0.5,489.8846,489.8848,490.6358,right,1,0.7301,,490.6358,491.6348,0,2,2,9,1,partial,2,images/Ex2.jpg,right,reversed,hard,4,,,,,
,,,,,56b8ad1be1d0a2000c154093,001,61,female,British,First degree,2024-03-06_15h03.52.896,CRL1h,2023.2.3,Win32,40,65e67470ae2fbf2172c317b2,65e885b46534afcdc320e3ed,,,,,,,,,,,491.6361,1,492.6341,492.6342,493.4082,left,0,0.7582,,493.4082,494.4081,0,3,3,12,1,partial,2,images/Ex5.jpg,right,nonreversed,hard,4,,,,,
,,,,,56b8ad1be1d0a2000c154093,001,61,female,British,First degree,2024-03-06_15h03.52.896,CRL1h,2023.2.3,Win32,40,65e67470ae2fbf2172c317b2,65e885b46534afcdc320e3ed,,,,,,,,,,,494.4099,0.9,495.3078,495.308,496.0346,right,1,0.7208,,496.0347,497.0329,0,4,4,1,1,partial,2,images/Ex2.jpg,right,reversed,hard,4,,,,,
,,,,,56b8ad1be1d0a2000c154093,001,61,female,British,First degree,2024-03-06_15h03.52.896,CRL1h,2023.2.3,Win32,40,65e67470ae2fbf2172c317b2,65e885b46534afcdc320e3ed,,,,,,,,,,,497.0345,1.4,498.4318,498.432,499.1845,left,1,0.7485,,499.1846,500.1817,0,5,5,10,1,partial,2,images/Ex3.jpg,left,nonreversed,hard,4,,,,,
,,,,,56b8ad1be1d0a2000c154093,001,61,female,British,First degree,2024-03-06_15h03.52.896,CRL1h,2023.2.3,Win32,40,65e67470ae2fbf2172c317b2,65e885b46534afcdc320e3ed,,,,,,,,,,,500.1836,1.4,501.5811,501.5812,502.2822,right,0,0.6781,,502.2823,503.2812,0,6,6,11,1,partial,2,images/Ex4.jpg,left,nonreversed,hard,4,,,,,
,,,,,56b8ad1be1d0a2000c154093,001,61,female,British,First degree,2024-03-06_15h03.52.896,CRL1h,2023.2.3,Win32,40,65e67470ae2fbf2172c317b2,65e885b46534afcdc320e3ed,,,,,,,,,,,503.2832,1.3,504.58,504.5801,505.3565,right,1,0.7582,,505.3566,506.3543,0,7,7,4,1,partial,2,images/Ex5.jpg,right,nonreversed,hard,4,,,,,
,,,,,56b8ad1be1d0a2000c154093,001,61,female,British,First degree,2024-03-06_15h03.52.896,CRL1h,2023.2.3,Win32,40,65e67470ae2fbf2172c317b2,65e885b46534afcdc320e3ed,,,,,,,,,,,506.3561,1.1,507.4532,507.4533,508.106,left,1,0.6401,,508.1062,509.1051,0,8,8,6,1,partial,2,images/Ex7.jpg,left,reversed,hard,4,,,,,
,,,,,56b8ad1be1d0a2000c154093,001,61,female,British,First degree,2024-03-06_15h03.52.896,CRL1h,2023.2.3,Win32,40,65e67470ae2fbf2172c317b2,65e885b46534afcdc320e3ed,,,,,,,,,,,509.106,0.5,509.6034,509.6035,510.4279,right,0,0.8065,,510.428,511.4272,0,9,9,15,1,partial,2,images/Ex8.jpg,left,reversed,hard,4,,,,,
,,,,,56b8ad1be1d0a2000c154093,001,61,female,British,First degree,2024-03-06_15h03.52.896,CRL1h,2023.2.3,Win32,40,65e67470ae2fbf2172c317b2,65e885b46534afcdc320e3ed,,,,,,,,,,,511.428,0.7,512.1277,512.128,512.5785,left,1,0.4344,,512.579,513.5772,0,10,10,2,1,partial,2,images/Ex3.jpg,left,nonreversed,hard,4,,,,,
,,,,,56b8ad1be1d0a2000c154093,001,61,female,British,First degree,2024-03-06_15h03.52.896,CRL1h,2023.2.3,Win32,40,65e67470ae2fbf2172c317b2,65e885b46534afcdc320e3ed,,,,,,,,,,,513.5792,1.3,514.8782,514.8783,515.6784,left,0,0.7882,,515.6785,516.6762,0,11,11,0,1,partial,2,images/Ex1.jpg,right,reversed,hard,4,,,,,
,,,,,56b8ad1be1d0a2000c154093,001,61,female,British,First degree,2024-03-06_15h03.52.896,CRL1h,2023.2.3,Win32,40,65e67470ae2fbf2172c317b2,65e885b46534afcdc320e3ed,,,,,,,,,,,516.6781,1.2,517.8759,517.8762,518.4251,left,1,0.5378,,518.4251,519.4246,0,12,12,3,1,partial,2,images/Ex4.jpg,left,nonreversed,hard,4,,,,,
,,,,,56b8ad1be1d0a2000c154093,001,61,female,British,First degree,2024-03-06_15h03.52.896,CRL1h,2023.2.3,Win32,40,65e67470ae2fbf2172c317b2,65e885b46534afcdc320e3ed,,,,,,,,,,,519.4255,0.6,520.0248,520.0249,520.6999,right,0,0.6654,,520.7003,521.6986,0,13,13,14,1,partial,2,images/Ex7.jpg,left,reversed,hard,4,,,,,
,,,,,56b8ad1be1d0a2000c154093,001,61,female,British,First degree,2024-03-06_15h03.52.896,CRL1h,2023.2.3,Win32,40,65e67470ae2fbf2172c317b2,65e885b46534afcdc320e3ed,,,,,,,,,,,521.6989,1.4,523.1001,523.1002,523.7759,right,1,0.6555,,523.776,524.7741,0,14,14,13,1,partial,2,images/Ex6.jpg,right,nonreversed,hard,4,,,,,
,,,,,56b8ad1be1d0a2000c154093,001,61,female,British,First degree,2024-03-06_15h03.52.896,CRL1h,2023.2.3,Win32,40,65e67470ae2fbf2172c317b2,65e885b46534afcdc320e3ed,,,,,,,,,,,524.7761,0.6,525.3751,525.3752,526.1744,right,1,0.7799,,526.1746,527.1735,0,15,15,5,1,partial,2,images/Ex6.jpg,right,nonreversed,hard,4,,,,,
,,,,,56b8ad1be1d0a2000c154093,001,61,female,British,First degree,2024-03-06_15h03.52.896,CRL1h,2023.2.3,Win32,40,65e67470ae2fbf2172c317b2,65e885b46534afcdc320e3ed,,,,,,,,,,,527.1748,1.3,528.4724,528.4728,529.5243,right,1,1.0283,,529.5244,530.5229,1,0,16,4,1,partial,2,images/Ex5.jpg,right,nonreversed,hard,4,,,,,
,,,,,56b8ad1be1d0a2000c154093,001,61,female,British,First degree,2024-03-06_15h03.52.896,CRL1h,2023.2.3,Win32,40,65e67470ae2fbf2172c317b2,65e885b46534afcdc320e3ed,,,,,,,,,,,530.5243,0.7,531.2212,531.2218,532.2224,right,1,0.9798,,532.2225,533.2212,1,1,17,13,1,partial,2,images/Ex6.jpg,right,nonreversed,hard,4,,,,,
,,,,,56b8ad1be1d0a2000c154093,001,61,female,British,First degree,2024-03-06_15h03.52.896,CRL1h,2023.2.3,Win32,40,65e67470ae2fbf2172c317b2,65e885b46534afcdc320e3ed,,,,,,,,,,,533.2233,1.1,534.3208,534.321,535.1224,right,0,0.7811,,535.1224,536.1206,1,2,18,14,1,partial,2,images/Ex7.jpg,left,reversed,hard,4,,,,,
,,,,,56b8ad1be1d0a2000c154093,001,61,female,British,First degree,2024-03-06_15h03.52.896,CRL1h,2023.2.3,Win32,40,65e67470ae2fbf2172c317b2,65e885b46534afcdc320e3ed,,,,,,,,,,,536.1224,1.1,537.2204,537.2205,538.1214,right,0,0.8804,,538.1216,539.1192,1,3,19,3,1,partial,2,images/Ex4.jpg,left,nonreversed,hard,4,,,,,
,,,,,56b8ad1be1d0a2000c154093,001,61,female,British,First degree,2024-03-06_15h03.52.896,CRL1h,2023.2.3,Win32,40,65e67470ae2fbf2172c317b2,65e885b46534afcdc320e3ed,,,,,,,,,,,539.121,0.9,540.0188,540.019,540.8456,left,0,0.8057,,540.8457,541.8439,1,4,20,8,1,partial,2,images/Ex1.jpg,right,reversed,hard,4,,,,,
,,,,,56b8ad1be1d0a2000c154093,001,61,female,British,First degree,2024-03-06_15h03.52.896,CRL1h,2023.2.3,Win32,40,65e67470ae2fbf2172c317b2,65e885b46534afcdc320e3ed,,,,,,,,,,,541.8453,0.6,542.4433,542.4433,543.2948,left,1,0.8424,,543.2948,544.2933,1,5,21,2,1,partial,2,images/Ex3.jpg,left,nonreversed,hard,4,,,,,
,,,,,56b8ad1be1d0a2000c154093,001,61,female,British,First degree,2024-03-06_15h03.52.896,CRL1h,2023.2.3,Win32,40,65e67470ae2fbf2172c317b2,65e885b46534afcdc320e3ed,,,,,,,,,,,544.2947,0.6,544.892,544.8925,545.993,left,0,1.088,,545.9931,546.991,1,6,22,5,1,partial,2,images/Ex6.jpg,right,nonreversed,hard,4,,,,,
,,,,,56b8ad1be1d0a2000c154093,001,61,female,British,First degree,2024-03-06_15h03.52.896,CRL1h,2023.2.3,Win32,40,65e67470ae2fbf2172c317b2,65e885b46534afcdc320e3ed,,,,,,,,,,,546.9923,1.4,548.3909,548.3911,549.2432,left,1,0.835,,549.2433,550.2405,1,7,23,10,1,partial,2,images/Ex3.jpg,left,nonreversed,hard,4,,,,,
,,,,,56b8ad1be1d0a2000c154093,001,61,female,British,First degree,2024-03-06_15h03.52.896,CRL1h,2023.2.3,Win32,40,65e67470ae2fbf2172c317b2,65e885b46534afcdc320e3ed,,,,,,,,,,,550.2414,1,551.2404,551.2408,552.2151,right,0,0.9565,,552.2152,553.2137,1,8,24,15,1,partial,2,images/Ex8.jpg,left,reversed,hard,4,,,,,
,,,,,56b8ad1be1d0a2000c154093,001,61,female,British,First degree,2024-03-06_15h03.52.896,CRL1h,2023.2.3,Win32,40,65e67470ae2fbf2172c317b2,65e885b46534afcdc320e3ed,,,,,,,,,,,553.2142,0.6,553.815,553.815,554.5887,right,1,0.7628,,554.5888,555.5886,1,9,25,1,1,partial,2,images/Ex2.jpg,right,reversed,hard,4,,,,,
,,,,,56b8ad1be1d0a2000c154093,001,61,female,British,First degree,2024-03-06_15h03.52.896,CRL1h,2023.2.3,Win32,40,65e67470ae2fbf2172c317b2,65e885b46534afcdc320e3ed,,,,,,,,,,,555.5906,1.4,556.9879,556.9881,557.6904,right,0,0.6815,,557.6905,558.6879,1,10,26,11,1,partial,2,images/Ex4.jpg,left,nonreversed,hard,4,,,,,
,,,,,56b8ad1be1d0a2000c154093,001,61,female,British,First degree,2024-03-06_15h03.52.896,CRL1h,2023.2.3,Win32,40,65e67470ae2fbf2172c317b2,65e885b46534afcdc320e3ed,,,,,,,,,,,558.6896,0.8,559.4874,559.4876,560.2381,left,0,0.7309,,560.2386,561.2371,1,11,27,0,1,partial,2,images/Ex1.jpg,right,reversed,hard,4,,,,,
,,,,,56b8ad1be1d0a2000c154093,001,61,female,British,First degree,2024-03-06_15h03.52.896,CRL1h,2023.2.3,Win32,40,65e67470ae2fbf2172c317b2,65e885b46534afcdc320e3ed,,,,,,,,,,,561.239,1.1,562.3396,562.3398,562.7875,right,1,0.4403,,562.7878,563.7863,1,12,28,12,1,partial,2,images/Ex5.jpg,right,nonreversed,hard,4,,,,,
,,,,,56b8ad1be1d0a2000c154093,001,61,female,British,First degree,2024-03-06_15h03.52.896,CRL1h,2023.2.3,Win32,40,65e67470ae2fbf2172c317b2,65e885b46534afcdc320e3ed,,,,,,,,,,,563.7879,0.6,564.3858,564.386,564.9151,right,1,0.5251,,564.9152,565.9099,1,13,29,9,1,partial,2,images/Ex2.jpg,right,reversed,hard,4,,,,,
,,,,,56b8ad1be1d0a2000c154093,001,61,female,British,First degree,2024-03-06_15h03.52.896,CRL1h,2023.2.3,Win32,40,65e67470ae2fbf2172c317b2,65e885b46534afcdc320e3ed,,,,,,,,,,,565.9111,1.5,567.4093,567.4094,567.9851,right,0,0.5719,,567.9851,568.9842,1,14,30,6,1,partial,2,images/Ex7.jpg,left,reversed,hard,4,,,,,
,,,,,56b8ad1be1d0a2000c154093,001,61,female,British,First degree,2024-03-06_15h03.52.896,CRL1h,2023.2.3,Win32,40,65e67470ae2fbf2172c317b2,65e885b46534afcdc320e3ed,,,,,,,,,,,568.986,0.8,569.7845,569.7846,570.3103,right,0,0.5063,,570.3104,571.309,1,15,31,7,1,partial,2,images/Ex8.jpg,left,reversed,hard,4,,,,,
,,,,,56b8ad1be1d0a2000c154093,001,61,female,British,First degree,2024-03-06_15h03.52.896,CRL1h,2023.2.3,Win32,40,65e67470ae2fbf2172c317b2,65e885b46534afcdc320e3ed,,,,,,,,,,,571.3106,1,572.3086,572.3088,572.7594,right,1,0.4302,,572.7595,573.7583,2,0,32,5,1,partial,2,images/Ex6.jpg,right,nonreversed,hard,4,,,,,
,,,,,56b8ad1be1d0a2000c154093,001,61,female,British,First degree,2024-03-06_15h03.52.896,CRL1h,2023.2.3,Win32,40,65e67470ae2fbf2172c317b2,65e885b46534afcdc320e3ed,,,,,,,,,,,573.7596,1.4,575.1571,575.1574,575.6591,right,1,0.4977,,575.6592,576.6572,2,1,33,1,1,partial,2,images/Ex2.jpg,right,reversed,hard,4,,,,,
,,,,,56b8ad1be1d0a2000c154093,001,61,female,British,First degree,2024-03-06_15h03.52.896,CRL1h,2023.2.3,Win32,40,65e67470ae2fbf2172c317b2,65e885b46534afcdc320e3ed,,,,,,,,,,,576.6591,0.8,577.4573,577.4574,577.8832,right,0,0.406,,577.8833,578.8815,2,2,34,11,1,partial,2,images/Ex4.jpg,left,nonreversed,hard,4,,,,,
,,,,,56b8ad1be1d0a2000c154093,001,61,female,British,First degree,2024-03-06_15h03.52.896,CRL1h,2023.2.3,Win32,40,65e67470ae2fbf2172c317b2,65e885b46534afcdc320e3ed,,,,,,,,,,,578.8832,0.9,579.7808,579.781,580.2569,right,0,0.4653,,580.2571,581.2559,2,3,35,10,1,partial,2,images/Ex3.jpg,left,nonreversed,hard,4,,,,,
,,,,,56b8ad1be1d0a2000c154093,001,61,female,British,First degree,2024-03-06_15h03.52.896,CRL1h,2023.2.3,Win32,40,65e67470ae2fbf2172c317b2,65e885b46534afcdc320e3ed,,,,,,,,,,,581.2574,0.6,581.8556,581.8557,582.3061,right,1,0.4306,,582.3063,583.3042,2,4,36,8,1,partial,2,images/Ex1.jpg,right,reversed,hard,4,,,,,
,,,,,56b8ad1be1d0a2000c154093,001,61,female,British,First degree,2024-03-06_15h03.52.896,CRL1h,2023.2.3,Win32,40,65e67470ae2fbf2172c317b2,65e885b46534afcdc320e3ed,,,,,,,,,,,583.3047,1.2,584.5038,584.5038,584.9109,right,1,0.4053,,584.9109,585.9068,2,5,37,9,1,partial,2,images/Ex2.jpg,right,reversed,hard,4,,,,,
,,,,,56b8ad1be1d0a2000c154093,001,61,female,British,First degree,2024-03-06_15h03.52.896,CRL1h,2023.2.3,Win32,40,65e67470ae2fbf2172c317b2,65e885b46534afcdc320e3ed,,,,,,,,,,,585.9088,0.6,586.5048,586.5049,587.055,right,0,0.5445,,587.0551,588.0538,2,6,38,7,1,partial,2,images/Ex8.jpg,left,reversed,hard,4,,,,,
,,,,,56b8ad1be1d0a2000c154093,001,61,female,British,First degree,2024-03-06_15h03.52.896,CRL1h,2023.2.3,Win32,40,65e67470ae2fbf2172c317b2,65e885b46534afcdc320e3ed,,,,,,,,,,,588.0552,0.5,588.5546,588.5548,589.0046,right,0,0.4383,,589.0051,590.0024,2,7,39,3,1,partial,2,images/Ex4.jpg,left,nonreversed,hard,4,,,,,
,,,,,56b8ad1be1d0a2000c154093,001,61,female,British,First degree,2024-03-06_15h03.52.896,CRL1h,2023.2.3,Win32,40,65e67470ae2fbf2172c317b2,65e885b46534afcdc320e3ed,,,,,,,,,,,590.0037,1.4,591.404,591.4044,591.8541,right,0,0.434,,591.8541,592.8521,2,8,40,6,1,partial,2,images/Ex7.jpg,left,reversed,hard,4,,,,,
,,,,,56b8ad1be1d0a2000c154093,001,61,female,British,First degree,2024-03-06_15h03.52.896,CRL1h,2023.2.3,Win32,40,65e67470ae2fbf2172c317b2,65e885b46534afcdc320e3ed,,,,,,,,,,,592.8539,0.9,593.7519,593.752,594.2022,right,1,0.4314,,594.2025,595.2011,2,9,41,0,1,partial,2,images/Ex1.jpg,right,reversed,hard,4,,,,,
,,,,,56b8ad1be1d0a2000c154093,001,61,female,British,First degree,2024-03-06_15h03.52.896,CRL1h,2023.2.3,Win32,40,65e67470ae2fbf2172c317b2,65e885b46534afcdc320e3ed,,,,,,,,,,,595.202,1,596.201,596.2012,596.6767,right,1,0.4553,,596.677,597.6756,2,10,42,12,1,partial,2,images/Ex5.jpg,right,nonreversed,hard,4,,,,,
,,,,,56b8ad1be1d0a2000c154093,001,61,female,British,First degree,2024-03-06_15h03.52.896,CRL1h,2023.2.3,Win32,40,65e67470ae2fbf2172c317b2,65e885b46534afcdc320e3ed,,,,,,,,,,,597.6771,1.2,598.8757,598.8759,599.3743,right,0,0.4956,,599.3744,600.3752,2,11,43,2,1,partial,2,images/Ex3.jpg,left,nonreversed,hard,4,,,,,
,,,,,56b8ad1be1d0a2000c154093,001,61,female,British,First degree,2024-03-06_15h03.52.896,CRL1h,2023.2.3,Win32,40,65e67470ae2fbf2172c317b2,65e885b46534afcdc320e3ed,,,,,,,,,,,600.3773,0.6,600.9741,600.9744,601.5259,right,0,0.5413,,601.526,602.5247,2,12,44,14,1,partial,2,images/Ex7.jpg,left,reversed,hard,4,,,,,
,,,,,56b8ad1be1d0a2000c154093,001,61,female,British,First degree,2024-03-06_15h03.52.896,CRL1h,2023.2.3,Win32,40,65e67470ae2fbf2172c317b2,65e885b46534afcdc320e3ed,,,,,,,,,,,602.5263,1.5,604.024,604.0242,604.5003,right,1,0.4647,,604.5004,605.4979,2,13,45,4,1,partial,2,images/Ex5.jpg,right,nonreversed,hard,4,,,,,
,,,,,56b8ad1be1d0a2000c154093,001,61,female,British,First degree,2024-03-06_15h03.52.896,CRL1h,2023.2.3,Win32,40,65e67470ae2fbf2172c317b2,65e885b46534afcdc320e3ed,,,,,,,,,,,605.4998,0.6,606.0979,606.0981,606.5488,right,0,0.4393,,606.5489,607.5476,2,14,46,15,1,partial,2,images/Ex8.jpg,left,reversed,hard,4,,,,,
,,,,,56b8ad1be1d0a2000c154093,001,61,female,British,First degree,2024-03-06_15h03.52.896,CRL1h,2023.2.3,Win32,40,65e67470ae2fbf2172c317b2,65e885b46534afcdc320e3ed,,,,,,,,,,,607.5492,1.4,608.9478,608.9481,609.5486,right,1,0.5838,,609.5488,610.5467,2,15,47,13,1,partial,2,images/Ex6.jpg,right,nonreversed,hard,4,,,,,
,,,,,56b8ad1be1d0a2000c154093,001,61,female,British,First degree,2024-03-06_15h03.52.896,CRL1h,2023.2.3,Win32,40,65e67470ae2fbf2172c317b2,65e885b46534afcdc320e3ed,,,,,,,,,,,610.5485,0.8,611.346,611.3462,611.9453,right,1,0.5956,,611.9453,612.9467,3,0,48,0,1,partial,2,images/Ex1.jpg,right,reversed,hard,4,,,,,
,,,,,56b8ad1be1d0a2000c154093,001,61,female,British,First degree,2024-03-06_15h03.52.896,CRL1h,2023.2.3,Win32,40,65e67470ae2fbf2172c317b2,65e885b46534afcdc320e3ed,,,,,,,,,,,612.9477,1,613.946,613.9462,614.6713,right,1,0.7087,,614.6714,615.6691,3,1,49,9,1,partial,2,images/Ex2.jpg,right,reversed,hard,4,,,,,
,,,,,56b8ad1be1d0a2000c154093,001,61,female,British,First degree,2024-03-06_15h03.52.896,CRL1h,2023.2.3,Win32,40,65e67470ae2fbf2172c317b2,65e885b46534afcdc320e3ed,,,,,,,,,,,615.67,1.3,616.9695,616.9696,617.671,left,1,0.6901,,617.6711,618.6685,3,2,50,2,1,partial,2,images/Ex3.jpg,left,nonreversed,hard,4,,,,,
,,,,,56b8ad1be1d0a2000c154093,001,61,female,British,First degree,2024-03-06_15h03.52.896,CRL1h,2023.2.3,Win32,40,65e67470ae2fbf2172c317b2,65e885b46534afcdc320e3ed,,,,,,,,,,,618.6703,1.2,619.8683,619.8686,620.7451,right,0,0.8619,,620.7451,621.7437,3,3,51,7,1,partial,2,images/Ex8.jpg,left,reversed,hard,4,,,,,
,,,,,56b8ad1be1d0a2000c154093,001,61,female,British,First degree,2024-03-06_15h03.52.896,CRL1h,2023.2.3,Win32,40,65e67470ae2fbf2172c317b2,65e885b46534afcdc320e3ed,,,,,,,,,,,621.7449,1,622.7431,622.7432,623.2436,left,1,0.4895,,623.2437,624.2419,3,4,52,6,1,partial,2,images/Ex7.jpg,left,reversed,hard,4,,,,,
,,,,,56b8ad1be1d0a2000c154093,001,61,female,British,First degree,2024-03-06_15h03.52.896,CRL1h,2023.2.3,Win32,40,65e67470ae2fbf2172c317b2,65e885b46534afcdc320e3ed,,,,,,,,,,,624.2437,1.1,625.3426,625.3429,626.0158,left,0,0.6502,,626.0159,627.0163,3,5,53,12,1,partial,2,images/Ex5.jpg,right,nonreversed,hard,4,,,,,
,,,,,56b8ad1be1d0a2000c154093,001,61,female,British,First degree,2024-03-06_15h03.52.896,CRL1h,2023.2.3,Win32,40,65e67470ae2fbf2172c317b2,65e885b46534afcdc320e3ed,,,,,,,,,,,627.0178,1,628.0155,628.0158,628.4152,left,1,0.3778,,628.4153,629.4148,3,6,54,15,1,partial,2,images/Ex8.jpg,left,reversed,hard,4,,,,,
,,,,,56b8ad1be1d0a2000c154093,001,61,female,British,First degree,2024-03-06_15h03.52.896,CRL1h,2023.2.3,Win32,40,65e67470ae2fbf2172c317b2,65e885b46534afcdc320e3ed,,,,,,,,,,,629.4159,1.3,630.7147,630.7149,631.2933,left,1,0.5675,,631.2934,632.2894,3,7,55,10,1,partial,2,images/Ex3.jpg,left,nonreversed,hard,4,,,,,
,,,,,56b8ad1be1d0a2000c154093,001,61,female,British,First degree,2024-03-06_15h03.52.896,CRL1h,2023.2.3,Win32,40,65e67470ae2fbf2172c317b2,65e885b46534afcdc320e3ed,,,,,,,,,,,632.2907,0.9,633.1892,633.1892,633.8652,left,0,0.6556,,633.8653,634.864,3,8,56,13,1,partial,2,images/Ex6.jpg,right,nonreversed,hard,4,,,,,
,,,,,56b8ad1be1d0a2000c154093,001,61,female,British,First degree,2024-03-06_15h03.52.896,CRL1h,2023.2.3,Win32,40,65e67470ae2fbf2172c317b2,65e885b46534afcdc320e3ed,,,,,,,,,,,634.866,1.2,636.0637,636.064,636.814,left,1,0.7311,,636.8141,637.8143,3,9,57,3,1,partial,2,images/Ex4.jpg,left,nonreversed,hard,4,,,,,
,,,,,56b8ad1be1d0a2000c154093,001,61,female,British,First degree,2024-03-06_15h03.52.896,CRL1h,2023.2.3,Win32,40,65e67470ae2fbf2172c317b2,65e885b46534afcdc320e3ed,,,,,,,,,,,637.8157,0.5,638.3141,638.3143,640.5394,right,1,2.2187,,640.5396,641.5366,3,10,58,4,1,partial,2,images/Ex5.jpg,right,nonreversed,hard,4,,,,,
,,,,,56b8ad1be1d0a2000c154093,001,61,female,British,First degree,2024-03-06_15h03.52.896,CRL1h,2023.2.3,Win32,40,65e67470ae2fbf2172c317b2,65e885b46534afcdc320e3ed,,,,,,,,,,,641.5683,0.6,642.1615,642.1618,642.7622,left,0,0.5823,,642.7623,643.7613,3,11,59,5,1,partial,2,images/Ex6.jpg,right,nonreversed,hard,4,,,,,
,,,,,56b8ad1be1d0a2000c154093,001,61,female,British,First degree,2024-03-06_15h03.52.896,CRL1h,2023.2.3,Win32,40,65e67470ae2fbf2172c317b2,65e885b46534afcdc320e3ed,,,,,,,,,,,643.7639,1.2,644.9601,644.9601,646.235,left,0,1.2652,,646.235,647.2345,3,12,60,1,1,partial,2,images/Ex2.jpg,right,reversed,hard,4,,,,,
,,,,,56b8ad1be1d0a2000c154093,001,61,female,British,First degree,2024-03-06_15h03.52.896,CRL1h,2023.2.3,Win32,40,65e67470ae2fbf2172c317b2,65e885b46534afcdc320e3ed,,,,,,,,,,,647.2362,1.2,648.4335,648.4336,649.4102,left,1,0.9593,,649.4105,650.4077,3,13,61,11,1,partial,2,images/Ex4.jpg,left,nonreversed,hard,4,,,,,
,,,,,56b8ad1be1d0a2000c154093,001,61,female,British,First degree,2024-03-06_15h03.52.896,CRL1h,2023.2.3,Win32,40,65e67470ae2fbf2172c317b2,65e885b46534afcdc320e3ed,,,,,,,,,,,650.408,0.7,651.1085,651.1087,651.81,left,0,0.6942,,651.8101,652.811,3,14,62,8,1,partial,2,images/Ex1.jpg,right,reversed,hard,4,,,,,
,,,,,56b8ad1be1d0a2000c154093,001,61,female,British,First degree,2024-03-06_15h03.52.896,CRL1h,2023.2.3,Win32,40,65e67470ae2fbf2172c317b2,65e885b46534afcdc320e3ed,,,,,,,,,,,652.8122,1.5,654.3083,654.3085,654.9325,right,0,0.6067,,654.9325,655.9333,3,15,63,14,1,partial,2,images/Ex7.jpg,left,reversed,hard,4,,,,,
,,,,,56b8ad1be1d0a2000c154093,001,61,female,British,First degree,2024-03-06_15h03.52.896,CRL1h,2023.2.3,Win32,40,65e67470ae2fbf2172c317b2,65e885b46534afcdc320e3ed,,,,,,655.9361,659.331,space,3.3795,,659.3532,0.9,660.2563,660.2564,662.0805,right,1,1.8136,,662.0809,663.0795,0,0,0,7,1,total,1,images/Ex16.jpg,right,training,hard,4,,,,,
,,,,,56b8ad1be1d0a2000c154093,001,61,female,British,First degree,2024-03-06_15h03.52.896,CRL1h,2023.2.3,Win32,40,65e67470ae2fbf2172c317b2,65e885b46534afcdc320e3ed,,,,,,,,,,,663.0811,1.2,664.2802,664.2803,665.9055,left,1,1.6165,,665.9055,666.9053,0,1,1,1,1,total,1,images/Ex10.jpg,left,training,hard,4,,,,,
,,,,,56b8ad1be1d0a2000c154093,001,61,female,British,First degree,2024-03-06_15h03.52.896,CRL1h,2023.2.3,Win32,40,65e67470ae2fbf2172c317b2,65e885b46534afcdc320e3ed,,,,,,,,,,,666.9062,1.2,668.1045,668.1046,668.9028,left,0,0.7901,,668.9028,669.9033,0,2,2,14,1,total,1,images/Ex15.jpg,right,training,hard,4,,,,,
,,,,,56b8ad1be1d0a2000c154093,001,61,female,British,First degree,2024-03-06_15h03.52.896,CRL1h,2023.2.3,Win32,40,65e67470ae2fbf2172c317b2,65e885b46534afcdc320e3ed,,,,,,,,,,,669.9045,1.4,671.3019,671.3022,672.2539,left,1,0.9326,,672.254,673.2531,0,3,3,2,1,total,1,images/Ex11.jpg,left,training,hard,4,,,,,
,,,,,56b8ad1be1d0a2000c154093,001,61,female,British,First degree,2024-03-06_15h03.52.896,CRL1h,2023.2.3,Win32,40,65e67470ae2fbf2172c317b2,65e885b46534afcdc320e3ed,,,,,,,,,,,673.2542,0.9,674.1513,674.1515,675.4774,left,1,1.3185,,675.4776,676.4764,0,4,4,8,1,total,1,images/Ex9.jpg,left,training,hard,4,,,,,
,,,,,56b8ad1be1d0a2000c154093,001,61,female,British,First degree,2024-03-06_15h03.52.896,CRL1h,2023.2.3,Win32,40,65e67470ae2fbf2172c317b2,65e885b46534afcdc320e3ed,,,,,,,,,,,676.4775,0.6,677.075,677.0752,678.4502,right,0,1.3612,,678.4502,679.4522,0,5,5,10,1,total,1,images/Ex11.jpg,left,training,hard,4,,,,,
,,,,,56b8ad1be1d0a2000c154093,001,61,female,British,First degree,2024-03-06_15h03.52.896,CRL1h,2023.2.3,Win32,40,65e67470ae2fbf2172c317b2,65e885b46534afcdc320e3ed,,,,,,,,,,,679.4527,1.5,680.9526,680.9526,682.1298,right,0,1.1748,,682.1299,683.1271,0,6,6,3,1,total,1,images/Ex12.jpg,left,training,hard,4,,,,,
,,,,,56b8ad1be1d0a2000c154093,001,61,female,British,First degree,2024-03-06_15h03.52.896,CRL1h,2023.2.3,Win32,40,65e67470ae2fbf2172c317b2,65e885b46534afcdc320e3ed,,,,,,,,,,,683.128,1.4,684.5262,684.5264,685.2748,left,0,0.7294,,685.2749,686.2725,0,7,7,6,1,total,1,images/Ex15.jpg,right,training,hard,4,,,,,
,,,,,56b8ad1be1d0a2000c154093,001,61,female,British,First degree,2024-03-06_15h03.52.896,CRL1h,2023.2.3,Win32,40,65e67470ae2fbf2172c317b2,65e885b46534afcdc320e3ed,,,,,,,,,,,686.2741,1.2,687.4708,687.4709,688.4463,left,0,0.9659,,688.4464,689.4457,0,8,8,13,1,total,1,images/Ex14.jpg,right,training,hard,4,,,,,
,,,,,56b8ad1be1d0a2000c154093,001,61,female,British,First degree,2024-03-06_15h03.52.896,CRL1h,2023.2.3,Win32,40,65e67470ae2fbf2172c317b2,65e885b46534afcdc320e3ed,,,,,,,,,,,689.4465,1.4,690.8459,690.8461,691.4708,left,0,0.6023,,691.4708,692.4696,0,9,9,5,1,total,1,images/Ex14.jpg,right,training,hard,4,,,,,
,,,,,56b8ad1be1d0a2000c154093,001,61,female,British,First degree,2024-03-06_15h03.52.896,CRL1h,2023.2.3,Win32,40,65e67470ae2fbf2172c317b2,65e885b46534afcdc320e3ed,,,,,,,,,,,692.4705,0.6,693.0706,693.0707,693.7191,right,1,0.6402,,693.7191,694.7199,0,10,10,15,1,total,1,images/Ex16.jpg,right,training,hard,4,,,,,
,,,,,56b8ad1be1d0a2000c154093,001,61,female,British,First degree,2024-03-06_15h03.52.896,CRL1h,2023.2.3,Win32,40,65e67470ae2fbf2172c317b2,65e885b46534afcdc320e3ed,,,,,,,,,,,694.7216,1.2,695.9203,695.9203,696.6958,right,1,0.7662,,696.6958,697.6931,0,11,11,4,1,total,1,images/Ex13.jpg,right,training,hard,4,,,,,
,,,,,56b8ad1be1d0a2000c154093,001,61,female,British,First degree,2024-03-06_15h03.52.896,CRL1h,2023.2.3,Win32,40,65e67470ae2fbf2172c317b2,65e885b46534afcdc320e3ed,,,,,,,,,,,697.6936,0.9,698.5956,698.5957,699.2187,right,0,0.6043,,699.2188,700.2178,0,12,12,9,1,total,1,images/Ex10.jpg,left,training,hard,4,,,,,
,,,,,56b8ad1be1d0a2000c154093,001,61,female,British,First degree,2024-03-06_15h03.52.896,CRL1h,2023.2.3,Win32,40,65e67470ae2fbf2172c317b2,65e885b46534afcdc320e3ed,,,,,,,,,,,700.2194,1.4,701.6176,701.6177,702.218,right,0,0.5756,,702.2181,703.217,0,13,13,11,1,total,1,images/Ex12.jpg,left,training,hard,4,,,,,
,,,,,56b8ad1be1d0a2000c154093,001,61,female,British,First degree,2024-03-06_15h03.52.896,CRL1h,2023.2.3,Win32,40,65e67470ae2fbf2172c317b2,65e885b46534afcdc320e3ed,,,,,,,,,,,703.2186,1.4,704.6166,704.6168,705.3932,right,0,0.7568,,705.3933,706.3913,0,14,14,0,1,total,1,images/Ex9.jpg,left,training,hard,4,,,,,
,,,,,56b8ad1be1d0a2000c154093,001,61,female,British,First degree,2024-03-06_15h03.52.896,CRL1h,2023.2.3,Win32,40,65e67470ae2fbf2172c317b2,65e885b46534afcdc320e3ed,,,,,,,,,,,706.3918,0.8,707.1913,707.1914,707.9161,left,0,0.7039,,707.9163,708.9174,0,15,15,12,1,total,1,images/Ex13.jpg,right,training,hard,4,,,,,
,,,,,56b8ad1be1d0a2000c154093,001,61,female,British,First degree,2024-03-06_15h03.52.896,CRL1h,2023.2.3,Win32,40,65e67470ae2fbf2172c317b2,65e885b46534afcdc320e3ed,,,,,,,,,,,708.918,1.2,710.1148,710.1149,710.8165,right,1,0.6887,,710.8166,711.814,1,0,16,15,1,total,1,images/Ex16.jpg,right,training,hard,4,,,,,
,,,,,56b8ad1be1d0a2000c154093,001,61,female,British,First degree,2024-03-06_15h03.52.896,CRL1h,2023.2.3,Win32,40,65e67470ae2fbf2172c317b2,65e885b46534afcdc320e3ed,,,,,,,,,,,711.8156,1.3,713.1141,713.1142,713.6885,right,1,0.5596,,713.6885,714.6885,1,1,17,7,1,total,1,images/Ex16.jpg,right,training,hard,4,,,,,
,,,,,56b8ad1be1d0a2000c154093,001,61,female,British,First degree,2024-03-06_15h03.52.896,CRL1h,2023.2.3,Win32,40,65e67470ae2fbf2172c317b2,65e885b46534afcdc320e3ed,,,,,,,,,,,714.69,1.4,716.088,716.0882,716.6145,right,0,0.5067,,716.6145,717.6131,1,2,18,11,1,total,1,images/Ex12.jpg,left,training,hard,4,,,,,
,,,,,56b8ad1be1d0a2000c154093,001,61,female,British,First degree,2024-03-06_15h03.52.896,CRL1h,2023.2.3,Win32,40,65e67470ae2fbf2172c317b2,65e885b46534afcdc320e3ed,,,,,,,,,,,717.6143,0.7,718.3119,718.312,719.0379,left,0,0.7216,,719.0379,720.0367,1,3,19,6,1,total,1,images/Ex15.jpg,right,training,hard,4,,,,,
,,,,,56b8ad1be1d0a2000c154093,001,61,female,British,First degree,2024-03-06_15h03.52.896,CRL1h,2023.2.3,Win32,40,65e67470ae2fbf2172c317b2,65e885b46534afcdc320e3ed,,,,,,,,,,,720.0382,0.8,720.837,720.8372,721.6384,left,0,0.7793,,721.6385,722.6366,1,4,20,13,1,total,1,images/Ex14.jpg,right,training,hard,4,,,,,
,,,,,56b8ad1be1d0a2000c154093,001,61,female,British,First degree,2024-03-06_15h03.52.896,CRL1h,2023.2.3,Win32,40,65e67470ae2fbf2172c317b2,65e885b46534afcdc320e3ed,,,,,,,,,,,722.6375,0.7,723.3362,723.3363,724.0096,right,0,0.6648,,724.0096,725.0109,1,5,21,1,1,total,1,images/Ex10.jpg,left,training,hard,4,,,,,
,,,,,56b8ad1be1d0a2000c154093,001,61,female,British,First degree,2024-03-06_15h03.52.896,CRL1h,2023.2.3,Win32,40,65e67470ae2fbf2172c317b2,65e885b46534afcdc320e3ed,,,,,,,,,,,725.0122,1.3,726.3122,726.3124,727.1597,left,1,0.8305,,727.1597,728.1599,1,6,22,10,1,total,1,images/Ex11.jpg,left,training,hard,4,,,,,
,,,,,56b8ad1be1d0a2000c154093,001,61,female,British,First degree,2024-03-06_15h03.52.896,CRL1h,2023.2.3,Win32,40,65e67470ae2fbf2172c317b2,65e885b46534afcdc320e3ed,,,,,,,,,,,728.161,1.4,729.5585,729.5586,730.5102,left,0,0.9341,,730.5103,731.5085,1,7,23,5,1,total,1,images/Ex14.jpg,right,training,hard,4,,,,,
,,,,,56b8ad1be1d0a2000c154093,001,61,female,British,First degree,2024-03-06_15h03.52.896,CRL1h,2023.2.3,Win32,40,65e67470ae2fbf2172c317b2,65e885b46534afcdc320e3ed,,,,,,,,,,,731.51,0.5,732.0078,732.0078,732.5609,right,0,0.5505,,732.5609,733.5581,1,8,24,3,1,total,1,images/Ex12.jpg,left,training,hard,4,,,,,
,,,,,56b8ad1be1d0a2000c154093,001,61,female,British,First degree,2024-03-06_15h03.52.896,CRL1h,2023.2.3,Win32,40,65e67470ae2fbf2172c317b2,65e885b46534afcdc320e3ed,,,,,,,,,,,733.5592,0.6,734.1575,734.1576,734.7326,right,1,0.5699,,734.7327,735.7335,1,9,25,4,1,total,1,images/Ex13.jpg,right,training,hard,4,,,,,
,,,,,56b8ad1be1d0a2000c154093,001,61,female,British,First degree,2024-03-06_15h03.52.896,CRL1h,2023.2.3,Win32,40,65e67470ae2fbf2172c317b2,65e885b46534afcdc320e3ed,,,,,,,,,,,735.7345,0.5,736.2322,736.2322,736.7333,right,0,0.4929,,736.7334,737.7342,1,10,26,8,1,total,1,images/Ex9.jpg,left,training,hard,4,,,,,
,,,,,56b8ad1be1d0a2000c154093,001,61,female,British,First degree,2024-03-06_15h03.52.896,CRL1h,2023.2.3,Win32,40,65e67470ae2fbf2172c317b2,65e885b46534afcdc320e3ed,,,,,,,,,,,737.735,0.8,738.5316,738.5317,739.2571,right,1,0.7112,,739.2572,740.2556,1,11,27,14,1,total,1,images/Ex15.jpg,right,training,hard,4,,,,,
,,,,,56b8ad1be1d0a2000c154093,001,61,female,British,First degree,2024-03-06_15h03.52.896,CRL1h,2023.2.3,Win32,40,65e67470ae2fbf2172c317b2,65e885b46534afcdc320e3ed,,,,,,,,,,,740.2568,1.4,741.6554,741.6555,742.6063,right,0,0.9347,,742.6064,743.6047,1,12,28,9,1,total,1,images/Ex10.jpg,left,training,hard,4,,,,,
,,,,,56b8ad1be1d0a2000c154093,001,61,female,British,First degree,2024-03-06_15h03.52.896,CRL1h,2023.2.3,Win32,40,65e67470ae2fbf2172c317b2,65e885b46534afcdc320e3ed,,,,,,,,,,,743.6057,1.3,744.9044,744.9045,745.3817,right,0,0.4576,,745.3817,746.3778,1,13,29,0,1,total,1,images/Ex9.jpg,left,training,hard,4,,,,,
,,,,,56b8ad1be1d0a2000c154093,001,61,female,British,First degree,2024-03-06_15h03.52.896,CRL1h,2023.2.3,Win32,40,65e67470ae2fbf2172c317b2,65e885b46534afcdc320e3ed,,,,,,,,,,,746.3785,1.5,747.8785,747.8786,748.33,right,1,0.4312,,748.3301,749.3281,1,14,30,12,1,total,1,images/Ex13.jpg,right,training,hard,4,,,,,
,,,,,56b8ad1be1d0a2000c154093,001,61,female,British,First degree,2024-03-06_15h03.52.896,CRL1h,2023.2.3,Win32,40,65e67470ae2fbf2172c317b2,65e885b46534afcdc320e3ed,,,,,,,,,,,749.3291,1.2,750.5277,750.5278,751.3043,left,1,0.7554,,751.3045,752.3035,1,15,31,2,1,total,1,images/Ex11.jpg,left,training,hard,4,,,,,
,,,,,56b8ad1be1d0a2000c154093,001,61,female,British,First degree,2024-03-06_15h03.52.896,CRL1h,2023.2.3,Win32,40,65e67470ae2fbf2172c317b2,65e885b46534afcdc320e3ed,,,,,,,,,,,752.3043,1.4,753.7033,753.7035,754.4756,left,1,0.767,,754.4756,755.4751,2,0,32,0,1,total,1,images/Ex9.jpg,left,training,hard,4,,,,,
,,,,,56b8ad1be1d0a2000c154093,001,61,female,British,First degree,2024-03-06_15h03.52.896,CRL1h,2023.2.3,Win32,40,65e67470ae2fbf2172c317b2,65e885b46534afcdc320e3ed,,,,,,,,,,,755.4757,0.7,756.1758,756.1759,756.7763,left,1,0.592,,756.7764,757.7736,2,1,33,11,1,total,1,images/Ex12.jpg,left,training,hard,4,,,,,
,,,,,56b8ad1be1d0a2000c154093,001,61,female,British,First degree,2024-03-06_15h03.52.896,CRL1h,2023.2.3,Win32,40,65e67470ae2fbf2172c317b2,65e885b46534afcdc320e3ed,,,,,,,,,,,757.774,1.2,758.9748,758.9749,759.8513,left,1,0.8705,,759.8514,760.8503,2,2,34,1,1,total,1,images/Ex10.jpg,left,training,hard,4,,,,,
,,,,,56b8ad1be1d0a2000c154093,001,61,female,British,First degree,2024-03-06_15h03.52.896,CRL1h,2023.2.3,Win32,40,65e67470ae2fbf2172c317b2,65e885b46534afcdc320e3ed,,,,,,,,,,,760.8514,0.9,761.7491,761.7492,762.5645,left,0,0.7764,,762.5645,763.5486,2,3,35,12,1,total,1,images/Ex13.jpg,right,training,hard,4,,,,,
,,,,,56b8ad1be1d0a2000c154093,001,61,female,British,First degree,2024-03-06_15h03.52.896,CRL1h,2023.2.3,Win32,40,65e67470ae2fbf2172c317b2,65e885b46534afcdc320e3ed,,,,,,,,,,,763.5497,1.1,764.6495,764.6495,765.3248,left,0,0.6579,,765.3248,766.3233,2,4,36,14,1,total,1,images/Ex15.jpg,right,training,hard,4,,,,,
,,,,,56b8ad1be1d0a2000c154093,001,61,female,British,First degree,2024-03-06_15h03.52.896,CRL1h,2023.2.3,Win32,40,65e67470ae2fbf2172c317b2,65e885b46534afcdc320e3ed,,,,,,,,,,,766.3241,1.4,767.7236,767.7237,768.3766,left,0,0.65,,768.3766,769.3762,2,5,37,6,1,total,1,images/Ex15.jpg,right,training,hard,4,,,,,
,,,,,56b8ad1be1d0a2000c154093,001,61,female,British,First degree,2024-03-06_15h03.52.896,CRL1h,2023.2.3,Win32,40,65e67470ae2fbf2172c317b2,65e885b46534afcdc320e3ed,,,,,,,,,,,769.3769,0.5,769.8704,769.8705,770.7696,left,1,0.8816,,770.7696,771.7706,2,6,38,9,1,total,1,images/Ex10.jpg,left,training,hard,4,,,,,
,,,,,56b8ad1be1d0a2000c154093,001,61,female,British,First degree,2024-03-06_15h03.52.896,CRL1h,2023.2.3,Win32,40,65e67470ae2fbf2172c317b2,65e885b46534afcdc320e3ed,,,,,,,,,,,771.7719,0.7,772.47,772.47,773.1241,right,1,0.6514,,773.1242,774.1202,2,7,39,7,1,total,1,images/Ex16.jpg,right,training,hard,4,,,,,
,,,,,56b8ad1be1d0a2000c154093,001,61,female,British,First degree,2024-03-06_15h03.52.896,CRL1h,2023.2.3,Win32,40,65e67470ae2fbf2172c317b2,65e885b46534afcdc320e3ed,,,,,,,,,,,774.1214,1.2,775.3211,775.3212,775.9463,right,1,0.6076,,775.9464,776.9453,2,8,40,15,1,total,1,images/Ex16.jpg,right,training,hard,4,,,,,
,,,,,56b8ad1be1d0a2000c154093,001,61,female,British,First degree,2024-03-06_15h03.52.896,CRL1h,2023.2.3,Win32,40,65e67470ae2fbf2172c317b2,65e885b46534afcdc320e3ed,,,,,,,,,,,776.9464,1.3,778.2441,778.2443,779.6181,left,0,1.3565,,779.6181,780.6183,2,9,41,13,1,total,1,images/Ex14.jpg,right,training,hard,4,,,,,
,,,,,56b8ad1be1d0a2000c154093,001,61,female,British,First degree,2024-03-06_15h03.52.896,CRL1h,2023.2.3,Win32,40,65e67470ae2fbf2172c317b2,65e885b46534afcdc320e3ed,,,,,,,,,,,780.6193,1,781.6179,781.6179,782.6444,left,1,1.0078,,782.6445,783.643,2,10,42,10,1,total,1,images/Ex11.jpg,left,training,hard,4,,,,,
,,,,,56b8ad1be1d0a2000c154093,001,61,female,British,First degree,2024-03-06_15h03.52.896,CRL1h,2023.2.3,Win32,40,65e67470ae2fbf2172c317b2,65e885b46534afcdc320e3ed,,,,,,,,,,,783.644,0.8,784.4406,784.4406,785.3437,left,1,0.8836,,785.3438,786.3417,2,11,43,3,1,total,1,images/Ex12.jpg,left,training,hard,4,,,,,
,,,,,56b8ad1be1d0a2000c154093,001,61,female,British,First degree,2024-03-06_15h03.52.896,CRL1h,2023.2.3,Win32,40,65e67470ae2fbf2172c317b2,65e885b46534afcdc320e3ed,,,,,,,,,,,786.3428,0.9,787.2412,787.2412,787.9672,left,0,0.7064,,787.9673,788.965,2,12,44,4,1,total,1,images/Ex13.jpg,right,training,hard,4,,,,,
,,,,,56b8ad1be1d0a2000c154093,001,61,female,British,First degree,2024-03-06_15h03.52.896,CRL1h,2023.2.3,Win32,40,65e67470ae2fbf2172c317b2,65e885b46534afcdc320e3ed,,,,,,,,,,,788.9663,1.4,790.3647,790.3648,791.5415,left,1,1.1649,,791.5416,792.5376,2,13,45,8,1,total,1,images/Ex9.jpg,left,training,hard,4,,,,,
,,,,,56b8ad1be1d0a2000c154093,001,61,female,British,First degree,2024-03-06_15h03.52.896,CRL1h,2023.2.3,Win32,40,65e67470ae2fbf2172c317b2,65e885b46534afcdc320e3ed,,,,,,,,,,,792.5381,0.7,793.2373,793.2374,794.39,right,1,1.1371,,794.3901,795.3876,2,14,46,5,1,total,1,images/Ex14.jpg,right,training,hard,4,,,,,
,,,,,56b8ad1be1d0a2000c154093,001,61,female,British,First degree,2024-03-06_15h03.52.896,CRL1h,2023.2.3,Win32,40,65e67470ae2fbf2172c317b2,65e885b46534afcdc320e3ed,,,,,,,,,,,795.3884,1.2,796.589,796.5891,797.5644,left,1,0.9583,,797.5644,798.5622,2,15,47,2,1,total,1,images/Ex11.jpg,left,training,hard,4,,,,,
,,,,,56b8ad1be1d0a2000c154093,001,61,female,British,First degree,2024-03-06_15h03.52.896,CRL1h,2023.2.3,Win32,40,65e67470ae2fbf2172c317b2,65e885b46534afcdc320e3ed,,,,,,,,,,,798.5637,1.1,799.6605,799.6605,801.0138,left,0,1.3489,,801.014,802.0126,3,0,48,12,1,total,1,images/Ex13.jpg,right,training,hard,4,,,,,
,,,,,56b8ad1be1d0a2000c154093,001,61,female,British,First degree,2024-03-06_15h03.52.896,CRL1h,2023.2.3,Win32,40,65e67470ae2fbf2172c317b2,65e885b46534afcdc320e3ed,,,,,,,,,,,802.0382,1.5,803.5351,803.5352,804.2154,left,0,0.6692,,804.2156,805.214,3,1,49,13,1,total,1,images/Ex14.jpg,right,training,hard,4,,,,,
,,,,,56b8ad1be1d0a2000c154093,001,61,female,British,First degree,2024-03-06_15h03.52.896,CRL1h,2023.2.3,Win32,40,65e67470ae2fbf2172c317b2,65e885b46534afcdc320e3ed,,,,,,,,,,,805.2157,1.4,806.6136,806.6136,807.5379,left,0,0.9216,,807.538,808.5389,3,2,50,6,1,total,1,images/Ex15.jpg,right,training,hard,4,,,,,
,,,,,56b8ad1be1d0a2000c154093,001,61,female,British,First degree,2024-03-06_15h03.52.896,CRL1h,2023.2.3,Win32,40,65e67470ae2fbf2172c317b2,65e885b46534afcdc320e3ed,,,,,,,,,,,808.5399,0.8,809.3385,809.3386,810.1645,right,1,0.8234,,810.1645,811.1581,3,3,51,5,1,total,1,images/Ex14.jpg,right,training,hard,4,,,,,
,,,,,56b8ad1be1d0a2000c154093,001,61,female,British,First degree,2024-03-06_15h03.52.896,CRL1h,2023.2.3,Win32,40,65e67470ae2fbf2172c317b2,65e885b46534afcdc320e3ed,,,,,,,,,,,811.1596,0.8,811.9566,811.9566,812.8878,right,0,0.9297,,812.8878,813.8875,3,4,52,0,1,total,1,images/Ex9.jpg,left,training,hard,4,,,,,
,,,,,56b8ad1be1d0a2000c154093,001,61,female,British,First degree,2024-03-06_15h03.52.896,CRL1h,2023.2.3,Win32,40,65e67470ae2fbf2172c317b2,65e885b46534afcdc320e3ed,,,,,,,,,,,813.8883,0.7,814.5804,814.5804,815.287,right,1,0.7046,,815.2872,816.281,3,5,53,7,1,total,1,images/Ex16.jpg,right,training,hard,4,,,,,
,,,,,56b8ad1be1d0a2000c154093,001,61,female,British,First degree,2024-03-06_15h03.52.896,CRL1h,2023.2.3,Win32,40,65e67470ae2fbf2172c317b2,65e885b46534afcdc320e3ed,,,,,,,,,,,816.282,1.3,817.5851,817.5852,818.3848,left,1,0.797,,818.3849,819.3841,3,6,54,2,1,total,1,images/Ex11.jpg,left,training,hard,4,,,,,
,,,,,56b8ad1be1d0a2000c154093,001,61,female,British,First degree,2024-03-06_15h03.52.896,CRL1h,2023.2.3,Win32,40,65e67470ae2fbf2172c317b2,65e885b46534afcdc320e3ed,,,,,,,,,,,819.3851,1.2,820.5797,820.5799,821.4073,right,0,0.8245,,821.4073,822.4078,3,7,55,8,1,total,1,images/Ex9.jpg,left,training,hard,4,,,,,
,,,,,56b8ad1be1d0a2000c154093,001,61,female,British,First degree,2024-03-06_15h03.52.896,CRL1h,2023.2.3,Win32,40,65e67470ae2fbf2172c317b2,65e885b46534afcdc320e3ed,,,,,,,,,,,822.4093,1.2,823.6078,823.6078,824.1556,left,1,0.5413,,824.1556,825.1555,3,8,56,9,1,total,1,images/Ex10.jpg,left,training,hard,4,,,,,
,,,,,56b8ad1be1d0a2000c154093,001,61,female,British,First degree,2024-03-06_15h03.52.896,CRL1h,2023.2.3,Win32,40,65e67470ae2fbf2172c317b2,65e885b46534afcdc320e3ed,,,,,,,,,,,825.1559,1.4,826.5573,826.5576,828.1553,left,1,1.596,,828.1554,829.154,3,9,57,10,1,total,1,images/Ex11.jpg,left,training,hard,4,,,,,
,,,,,56b8ad1be1d0a2000c154093,001,61,female,British,First degree,2024-03-06_15h03.52.896,CRL1h,2023.2.3,Win32,40,65e67470ae2fbf2172c317b2,65e885b46534afcdc320e3ed,,,,,,,,,,,829.1543,0.7,829.853,829.8531,830.9319,right,1,1.0762,,830.9319,831.9284,3,10,58,15,1,total,1,images/Ex16.jpg,right,training,hard,4,,,,,
,,,,,56b8ad1be1d0a2000c154093,001,61,female,British,First degree,2024-03-06_15h03.52.896,CRL1h,2023.2.3,Win32,40,65e67470ae2fbf2172c317b2,65e885b46534afcdc320e3ed,,,,,,,,,,,831.9288,1.2,833.1294,833.1295,834.5309,left,0,1.3981,,834.531,835.5296,3,11,59,4,1,total,1,images/Ex13.jpg,right,training,hard,4,,,,,
,,,,,56b8ad1be1d0a2000c154093,001,61,female,British,First degree,2024-03-06_15h03.52.896,CRL1h,2023.2.3,Win32,40,65e67470ae2fbf2172c317b2,65e885b46534afcdc320e3ed,,,,,,,,,,,835.5303,1,836.5271,836.5271,837.4237,right,0,0.8752,,837.4239,838.4266,3,12,60,1,1,total,1,images/Ex10.jpg,left,training,hard,4,,,,,
,,,,,56b8ad1be1d0a2000c154093,001,61,female,British,First degree,2024-03-06_15h03.52.896,CRL1h,2023.2.3,Win32,40,65e67470ae2fbf2172c317b2,65e885b46534afcdc320e3ed,,,,,,,,,,,838.4273,0.8,839.2257,839.2257,840.1792,left,1,0.9516,,840.1793,841.1792,3,13,61,3,1,total,1,images/Ex12.jpg,left,training,hard,4,,,,,
,,,,,56b8ad1be1d0a2000c154093,001,61,female,British,First degree,2024-03-06_15h03.52.896,CRL1h,2023.2.3,Win32,40,65e67470ae2fbf2172c317b2,65e885b46534afcdc320e3ed,,,,,,,,,,,841.1803,1.2,842.3768,842.3768,843.3284,left,1,0.9498,,843.3285,844.3272,3,14,62,11,1,total,1,images/Ex12.jpg,left,training,hard,4,,,,,
,,,,,56b8ad1be1d0a2000c154093,001,61,female,British,First degree,2024-03-06_15h03.52.896,CRL1h,2023.2.3,Win32,40,65e67470ae2fbf2172c317b2,65e885b46534afcdc320e3ed,,,,,,,,,,,844.328,1.2,845.5256,845.5257,846.6772,left,0,1.1487,,846.6773,847.6736,3,15,63,14,1,total,1,images/Ex15.jpg,right,training,hard,4,,,,,
,,,,,56b8ad1be1d0a2000c154093,001,61,female,British,First degree,2024-03-06_15h03.52.896,CRL1h,2023.2.3,Win32,40,65e67470ae2fbf2172c317b2,65e885b46534afcdc320e3ed,,,,,,,,,,,847.6745,0.9,848.5755,848.5757,849.7015,left,1,1.1227,,849.7016,850.6991,4,0,64,9,1,total,1,images/Ex10.jpg,left,training,hard,4,,,,,
,,,,,56b8ad1be1d0a2000c154093,001,61,female,British,First degree,2024-03-06_15h03.52.896,CRL1h,2023.2.3,Win32,40,65e67470ae2fbf2172c317b2,65e885b46534afcdc320e3ed,,,,,,,,,,,850.7002,1.3,851.9947,851.9948,852.6485,right,1,0.6512,,852.6486,853.6473,4,1,65,15,1,total,1,images/Ex16.jpg,right,training,hard,4,,,,,
,,,,,56b8ad1be1d0a2000c154093,001,61,female,British,First degree,2024-03-06_15h03.52.896,CRL1h,2023.2.3,Win32,40,65e67470ae2fbf2172c317b2,65e885b46534afcdc320e3ed,,,,,,,,,,,853.6485,0.6,854.2429,854.243,855.3993,left,1,1.1541,,855.3993,856.3961,4,2,66,0,1,total,1,images/Ex9.jpg,left,training,hard,4,,,,,
,,,,,56b8ad1be1d0a2000c154093,001,61,female,British,First degree,2024-03-06_15h03.52.896,CRL1h,2023.2.3,Win32,40,65e67470ae2fbf2172c317b2,65e885b46534afcdc320e3ed,,,,,,,,,,,856.3963,1.1,857.4917,857.4918,858.7483,left,1,1.254,,858.7484,859.7452,4,3,67,3,1,total,1,images/Ex12.jpg,left,training,hard,4,,,,,
,,,,,56b8ad1be1d0a2000c154093,001,61,female,British,First degree,2024-03-06_15h03.52.896,CRL1h,2023.2.3,Win32,40,65e67470ae2fbf2172c317b2,65e885b46534afcdc320e3ed,,,,,,,,,,,859.7458,1.3,861.0415,861.0417,861.6974,left,1,0.6522,,861.6974,862.6914,4,4,68,11,1,total,1,images/Ex12.jpg,left,training,hard,4,,,,,
,,,,,56b8ad1be1d0a2000c154093,001,61,female,British,First degree,2024-03-06_15h03.52.896,CRL1h,2023.2.3,Win32,40,65e67470ae2fbf2172c317b2,65e885b46534afcdc320e3ed,,,,,,,,,,,862.6934,0.9,863.5947,863.5947,865.1944,left,0,1.5972,,865.1945,866.1947,4,5,69,5,1,total,1,images/Ex14.jpg,right,training,hard,4,,,,,
,,,,,56b8ad1be1d0a2000c154093,001,61,female,British,First degree,2024-03-06_15h03.52.896,CRL1h,2023.2.3,Win32,40,65e67470ae2fbf2172c317b2,65e885b46534afcdc320e3ed,,,,,,,,,,,866.1959,1.3,867.4888,867.4888,868.3707,left,1,0.8793,,868.3708,869.3669,4,6,70,8,1,total,1,images/Ex9.jpg,left,training,hard,4,,,,,
,,,,,56b8ad1be1d0a2000c154093,001,61,female,British,First degree,2024-03-06_15h03.52.896,CRL1h,2023.2.3,Win32,40,65e67470ae2fbf2172c317b2,65e885b46534afcdc320e3ed,,,,,,,,,,,869.3676,0.5,869.8636,869.8638,870.6698,right,1,0.8022,,870.6699,871.6643,4,7,71,7,1,total,1,images/Ex16.jpg,right,training,hard,4,,,,,
,,,,,56b8ad1be1d0a2000c154093,001,61,female,British,First degree,2024-03-06_15h03.52.896,CRL1h,2023.2.3,Win32,40,65e67470ae2fbf2172c317b2,65e885b46534afcdc320e3ed,,,,,,,,,,,871.6652,0.7,872.3658,872.366,873.5685,left,0,1.2007,,873.5686,874.5669,4,8,72,6,1,total,1,images/Ex15.jpg,right,training,hard,4,,,,,
,,,,,56b8ad1be1d0a2000c154093,001,61,female,British,First degree,2024-03-06_15h03.52.896,CRL1h,2023.2.3,Win32,40,65e67470ae2fbf2172c317b2,65e885b46534afcdc320e3ed,,,,,,,,,,,874.5676,1.4,875.965,875.9651,876.9182,right,1,0.9514,,876.9182,877.9172,4,9,73,14,1,total,1,images/Ex15.jpg,right,training,hard,4,,,,,
,,,,,56b8ad1be1d0a2000c154093,001,61,female,British,First degree,2024-03-06_15h03.52.896,CRL1h,2023.2.3,Win32,40,65e67470ae2fbf2172c317b2,65e885b46534afcdc320e3ed,,,,,,,,,,,877.918,0.8,878.7113,878.7123,879.4925,right,0,0.7766,,879.4925,880.4849,4,10,74,2,1,total,1,images/Ex11.jpg,left,training,hard,4,,,,,
,,,,,56b8ad1be1d0a2000c154093,001,61,female,British,First degree,2024-03-06_15h03.52.896,CRL1h,2023.2.3,Win32,40,65e67470ae2fbf2172c317b2,65e885b46534afcdc320e3ed,,,,,,,,,,,880.486,0.8,881.2853,881.2854,882.2406,right,1,0.9518,,882.2406,883.2385,4,11,75,4,1,total,1,images/Ex13.jpg,right,training,hard,4,,,,,
,,,,,56b8ad1be1d0a2000c154093,001,61,female,British,First degree,2024-03-06_15h03.52.896,CRL1h,2023.2.3,Win32,40,65e67470ae2fbf2172c317b2,65e885b46534afcdc320e3ed,,,,,,,,,,,883.2393,0.8,884.0395,884.0395,885.0106,left,0,0.9599,,885.0107,886.0085,4,12,76,12,1,total,1,images/Ex13.jpg,right,training,hard,4,,,,,
,,,,,56b8ad1be1d0a2000c154093,001,61,female,British,First degree,2024-03-06_15h03.52.896,CRL1h,2023.2.3,Win32,40,65e67470ae2fbf2172c317b2,65e885b46534afcdc320e3ed,,,,,,,,,,,886.0102,0.6,886.6124,886.6125,887.409,right,0,0.7878,,887.4092,888.4106,4,13,77,10,1,total,1,images/Ex11.jpg,left,training,hard,4,,,,,
,,,,,56b8ad1be1d0a2000c154093,001,61,female,British,First degree,2024-03-06_15h03.52.896,CRL1h,2023.2.3,Win32,40,65e67470ae2fbf2172c317b2,65e885b46534afcdc320e3ed,,,,,,,,,,,888.4111,1.4,889.8094,889.8094,890.7137,left,0,0.9011,,890.7137,891.711,4,14,78,13,1,total,1,images/Ex14.jpg,right,training,hard,4,,,,,
,,,,,56b8ad1be1d0a2000c154093,001,61,female,British,First degree,2024-03-06_15h03.52.896,CRL1h,2023.2.3,Win32,40,65e67470ae2fbf2172c317b2,65e885b46534afcdc320e3ed,,,,,,,,,,,891.7124,1.1,892.8158,892.8159,893.6842,right,0,0.8667,,893.6842,894.686,4,15,79,1,1,total,1,images/Ex10.jpg,left,training,hard,4,,,,,
,,,,,56b8ad1be1d0a2000c154093,001,61,female,British,First degree,2024-03-06_15h03.52.896,CRL1h,2023.2.3,Win32,40,65e67470ae2fbf2172c317b2,65e885b46534afcdc320e3ed,,,,,,,,,,,894.6869,1.4,896.0853,896.0855,896.8864,left,0,0.7984,,896.8865,897.8837,5,0,80,6,1,total,1,images/Ex15.jpg,right,training,hard,4,,,,,
,,,,,56b8ad1be1d0a2000c154093,001,61,female,British,First degree,2024-03-06_15h03.52.896,CRL1h,2023.2.3,Win32,40,65e67470ae2fbf2172c317b2,65e885b46534afcdc320e3ed,,,,,,,,,,,897.8845,1.3,899.1796,899.1797,899.7321,right,1,0.5338,,899.7321,900.7283,5,1,81,4,1,total,1,images/Ex13.jpg,right,training,hard,4,,,,,
,,,,,56b8ad1be1d0a2000c154093,001,61,female,British,First degree,2024-03-06_15h03.52.896,CRL1h,2023.2.3,Win32,40,65e67470ae2fbf2172c317b2,65e885b46534afcdc320e3ed,,,,,,,,,,,900.7293,1,901.7322,901.7325,902.5847,left,1,0.8502,,902.5848,903.5795,5,2,82,2,1,total,1,images/Ex11.jpg,left,training,hard,4,,,,,
,,,,,56b8ad1be1d0a2000c154093,001,61,female,British,First degree,2024-03-06_15h03.52.896,CRL1h,2023.2.3,Win32,40,65e67470ae2fbf2172c317b2,65e885b46534afcdc320e3ed,,,,,,,,,,,903.5808,0.5,904.0837,904.0837,904.9086,right,1,0.8223,,904.9087,905.9063,5,3,83,15,1,total,1,images/Ex16.jpg,right,training,hard,4,,,,,
,,,,,56b8ad1be1d0a2000c154093,001,61,female,British,First degree,2024-03-06_15h03.52.896,CRL1h,2023.2.3,Win32,40,65e67470ae2fbf2172c317b2,65e885b46534afcdc320e3ed,,,,,,,,,,,905.9072,1.3,907.2082,907.2083,908.2831,left,1,1.0712,,908.2832,909.2801,5,4,84,9,1,total,1,images/Ex10.jpg,left,training,hard,4,,,,,
,,,,,56b8ad1be1d0a2000c154093,001,61,female,British,First degree,2024-03-06_15h03.52.896,CRL1h,2023.2.3,Win32,40,65e67470ae2fbf2172c317b2,65e885b46534afcdc320e3ed,,,,,,,,,,,909.2807,0.6,909.8761,909.8763,910.931,left,0,1.0509,,910.9311,911.9298,5,5,85,5,1,total,1,images/Ex14.jpg,right,training,hard,4,,,,,
,,,,,56b8ad1be1d0a2000c154093,001,61,female,British,First degree,2024-03-06_15h03.52.896,CRL1h,2023.2.3,Win32,40,65e67470ae2fbf2172c317b2,65e885b46534afcdc320e3ed,,,,,,,,,,,911.9315,1.3,913.2253,913.2254,914.1809,left,1,0.9512,,914.181,915.1734,5,6,86,3,1,total,1,images/Ex12.jpg,left,training,hard,4,,,,,
,,,,,56b8ad1be1d0a2000c154093,001,61,female,British,First degree,2024-03-06_15h03.52.896,CRL1h,2023.2.3,Win32,40,65e67470ae2fbf2172c317b2,65e885b46534afcdc320e3ed,,,,,,,,,,,915.1738,0.7,915.8779,915.8779,916.8034,left,1,0.9057,,916.8034,917.8051,5,7,87,8,1,total,1,images/Ex9.jpg,left,training,hard,4,,,,,
,,,,,56b8ad1be1d0a2000c154093,001,61,female,British,First degree,2024-03-06_15h03.52.896,CRL1h,2023.2.3,Win32,40,65e67470ae2fbf2172c317b2,65e885b46534afcdc320e3ed,,,,,,,,,,,917.806,1.1,918.8983,918.8984,919.9776,right,1,1.0758,,919.9776,920.9776,5,8,88,14,1,total,1,images/Ex15.jpg,right,training,hard,4,,,,,
,,,,,56b8ad1be1d0a2000c154093,001,61,female,British,First degree,2024-03-06_15h03.52.896,CRL1h,2023.2.3,Win32,40,65e67470ae2fbf2172c317b2,65e885b46534afcdc320e3ed,,,,,,,,,,,920.9787,0.9,921.8759,921.876,923.099,left,1,1.2057,,923.0991,924.1006,5,9,89,11,1,total,1,images/Ex12.jpg,left,training,hard,4,,,,,
,,,,,56b8ad1be1d0a2000c154093,001,61,female,British,First degree,2024-03-06_15h03.52.896,CRL1h,2023.2.3,Win32,40,65e67470ae2fbf2172c317b2,65e885b46534afcdc320e3ed,,,,,,,,,,,924.1015,1.4,925.499,925.4991,927.5966,right,0,2.094,,927.5968,928.5994,5,10,90,1,1,total,1,images/Ex10.jpg,left,training,hard,4,,,,,
,,,,,56b8ad1be1d0a2000c154093,001,61,female,British,First degree,2024-03-06_15h03.52.896,CRL1h,2023.2.3,Win32,40,65e67470ae2fbf2172c317b2,65e885b46534afcdc320e3ed,,,,,,,,,,,928.6005,1.5,930.098,930.098,930.8007,right,1,0.6998,,930.8008,931.7992,5,11,91,7,1,total,1,images/Ex16.jpg,right,training,hard,4,,,,,
,,,,,56b8ad1be1d0a2000c154093,001,61,female,British,First degree,2024-03-06_15h03.52.896,CRL1h,2023.2.3,Win32,40,65e67470ae2fbf2172c317b2,65e885b46534afcdc320e3ed,,,,,,,,,,,931.8004,1,932.7976,932.7977,933.6204,left,1,0.808,,933.6205,934.6181,5,12,92,0,1,total,1,images/Ex9.jpg,left,training,hard,4,,,,,
,,,,,56b8ad1be1d0a2000c154093,001,61,female,British,First degree,2024-03-06_15h03.52.896,CRL1h,2023.2.3,Win32,40,65e67470ae2fbf2172c317b2,65e885b46534afcdc320e3ed,,,,,,,,,,,934.6199,0.7,935.322,935.322,937.1734,right,1,1.8474,,937.1735,938.1673,5,13,93,12,1,total,1,images/Ex13.jpg,right,training,hard,4,,,,,
,,,,,56b8ad1be1d0a2000c154093,001,61,female,British,First degree,2024-03-06_15h03.52.896,CRL1h,2023.2.3,Win32,40,65e67470ae2fbf2172c317b2,65e885b46534afcdc320e3ed,,,,,,,,,,,938.2001,0.9,939.0959,939.0961,940.0217,left,1,0.9231,,940.0217,941.0203,5,14,94,10,1,total,1,images/Ex11.jpg,left,training,hard,4,,,,,
,,,,,56b8ad1be1d0a2000c154093,001,61,female,British,First degree,2024-03-06_15h03.52.896,CRL1h,2023.2.3,Win32,40,65e67470ae2fbf2172c317b2,65e885b46534afcdc320e3ed,,,,,,,,,,,941.0214,1.3,942.3156,942.3158,943.7463,left,0,1.4257,,943.7464,944.7403,5,15,95,13,1,total,1,images/Ex14.jpg,right,training,hard,4,,,,,
,,,,,56b8ad1be1d0a2000c154093,001,61,female,British,First degree,2024-03-06_15h03.52.896,CRL1h,2023.2.3,Win32,40,65e67470ae2fbf2172c317b2,65e885b46534afcdc320e3ed,,,,,,,,,,,944.7428,1,945.7445,945.7446,946.7164,left,1,0.9666,,946.7164,947.7197,6,0,96,3,1,total,1,images/Ex12.jpg,left,training,hard,4,,,,,
,,,,,56b8ad1be1d0a2000c154093,001,61,female,British,First degree,2024-03-06_15h03.52.896,CRL1h,2023.2.3,Win32,40,65e67470ae2fbf2172c317b2,65e885b46534afcdc320e3ed,,,,,,,,,,,947.7208,0.6,948.3143,948.3145,949.869,right,0,1.5516,,949.869,950.867,6,1,97,0,1,total,1,images/Ex9.jpg,left,training,hard,4,,,,,
,,,,,56b8ad1be1d0a2000c154093,001,61,female,British,First degree,2024-03-06_15h03.52.896,CRL1h,2023.2.3,Win32,40,65e67470ae2fbf2172c317b2,65e885b46534afcdc320e3ed,,,,,,,,,,,950.8679,0.5,951.3659,951.366,952.1689,left,1,0.8012,,952.169,953.166,6,2,98,2,1,total,1,images/Ex11.jpg,left,training,hard,4,,,,,
,,,,,56b8ad1be1d0a2000c154093,001,61,female,British,First degree,2024-03-06_15h03.52.896,CRL1h,2023.2.3,Win32,40,65e67470ae2fbf2172c317b2,65e885b46534afcdc320e3ed,,,,,,,,,,,953.1671,0.6,953.7643,953.7643,954.5442,left,0,0.7768,,954.5444,955.5405,6,3,99,13,1,total,1,images/Ex14.jpg,right,training,hard,4,,,,,
,,,,,56b8ad1be1d0a2000c154093,001,61,female,British,First degree,2024-03-06_15h03.52.896,CRL1h,2023.2.3,Win32,40,65e67470ae2fbf2172c317b2,65e885b46534afcdc320e3ed,,,,,,,,,,,955.5416,1.1,956.6402,956.6402,957.9895,left,1,1.3468,,957.9896,958.9847,6,4,100,10,1,total,1,images/Ex11.jpg,left,training,hard,4,,,,,
,,,,,56b8ad1be1d0a2000c154093,001,61,female,British,First degree,2024-03-06_15h03.52.896,CRL1h,2023.2.3,Win32,40,65e67470ae2fbf2172c317b2,65e885b46534afcdc320e3ed,,,,,,,,,,,958.9862,0.9,959.8887,959.8888,961.1408,left,1,1.2487,,961.1409,962.1369,6,5,101,9,1,total,1,images/Ex10.jpg,left,training,hard,4,,,,,
,,,,,56b8ad1be1d0a2000c154093,001,61,female,British,First degree,2024-03-06_15h03.52.896,CRL1h,2023.2.3,Win32,40,65e67470ae2fbf2172c317b2,65e885b46534afcdc320e3ed,,,,,,,,,,,962.1383,1,963.134,963.1341,963.7898,right,1,0.6514,,963.7899,964.7877,6,6,102,7,1,total,1,images/Ex16.jpg,right,training,hard,4,,,,,
,,,,,56b8ad1be1d0a2000c154093,001,61,female,British,First degree,2024-03-06_15h03.52.896,CRL1h,2023.2.3,Win32,40,65e67470ae2fbf2172c317b2,65e885b46534afcdc320e3ed,,,,,,,,,,,964.7882,0.7,965.4866,965.4866,966.3617,left,1,0.8732,,966.3617,967.3627,6,7,103,11,1,total,1,images/Ex12.jpg,left,training,hard,4,,,,,
,,,,,56b8ad1be1d0a2000c154093,001,61,female,British,First degree,2024-03-06_15h03.52.896,CRL1h,2023.2.3,Win32,40,65e67470ae2fbf2172c317b2,65e885b46534afcdc320e3ed,,,,,,,,,,,967.3639,0.9,968.2631,968.2633,968.9621,right,1,0.6965,,968.9621,969.9602,6,8,104,15,1,total,1,images/Ex16.jpg,right,training,hard,4,,,,,
,,,,,56b8ad1be1d0a2000c154093,001,61,female,British,First degree,2024-03-06_15h03.52.896,CRL1h,2023.2.3,Win32,40,65e67470ae2fbf2172c317b2,65e885b46534afcdc320e3ed,,,,,,,,,,,969.9607,0.6,970.5614,970.5614,971.5598,left,0,0.9871,,971.5599,972.5616,6,9,105,14,1,total,1,images/Ex15.jpg,right,training,hard,4,,,,,
,,,,,56b8ad1be1d0a2000c154093,001,61,female,British,First degree,2024-03-06_15h03.52.896,CRL1h,2023.2.3,Win32,40,65e67470ae2fbf2172c317b2,65e885b46534afcdc320e3ed,,,,,,,,,,,972.5625,0.6,973.1607,973.1608,974.1364,left,1,0.9717,,974.1365,975.1354,6,10,106,8,1,total,1,images/Ex9.jpg,left,training,hard,4,,,,,
,,,,,56b8ad1be1d0a2000c154093,001,61,female,British,First degree,2024-03-06_15h03.52.896,CRL1h,2023.2.3,Win32,40,65e67470ae2fbf2172c317b2,65e885b46534afcdc320e3ed,,,,,,,,,,,975.136,0.6,975.7337,975.7338,977.2844,left,0,1.5476,,977.2844,978.2792,6,11,107,5,1,total,1,images/Ex14.jpg,right,training,hard,4,,,,,
,,,,,56b8ad1be1d0a2000c154093,001,61,female,British,First degree,2024-03-06_15h03.52.896,CRL1h,2023.2.3,Win32,40,65e67470ae2fbf2172c317b2,65e885b46534afcdc320e3ed,,,,,,,,,,,978.3101,0.9,979.2088,979.2089,980.0848,left,0,0.8732,,980.0849,981.0784,6,12,108,4,1,total,1,images/Ex13.jpg,right,training,hard,4,,,,,
,,,,,56b8ad1be1d0a2000c154093,001,61,female,British,First degree,2024-03-06_15h03.52.896,CRL1h,2023.2.3,Win32,40,65e67470ae2fbf2172c317b2,65e885b46534afcdc320e3ed,,,,,,,,,,,981.0801,1.1,982.1797,982.1797,983.0077,left,0,0.8254,,983.0078,984.0042,6,13,109,6,1,total,1,images/Ex15.jpg,right,training,hard,4,,,,,
,,,,,56b8ad1be1d0a2000c154093,001,61,female,British,First degree,2024-03-06_15h03.52.896,CRL1h,2023.2.3,Win32,40,65e67470ae2fbf2172c317b2,65e885b46534afcdc320e3ed,,,,,,,,,,,984.0052,1.4,985.4062,985.4069,986.4807,right,1,1.0713,,986.4808,987.4803,6,14,110,12,1,total,1,images/Ex13.jpg,right,training,hard,4,,,,,
,,,,,56b8ad1be1d0a2000c154093,001,61,female,British,First degree,2024-03-06_15h03.52.896,CRL1h,2023.2.3,Win32,40,65e67470ae2fbf2172c317b2,65e885b46534afcdc320e3ed,,,,,,,,,,,987.4813,1.1,988.5798,988.58,989.6064,left,1,1.0231,,989.6064,990.6014,6,15,111,1,1,total,1,images/Ex10.jpg,left,training,hard,4,,,,,
,,,,,56b8ad1be1d0a2000c154093,001,61,female,British,First degree,2024-03-06_15h03.52.896,CRL1h,2023.2.3,Win32,40,65e67470ae2fbf2172c317b2,65e885b46534afcdc320e3ed,,,,,,,,,,,990.603,1,991.604,991.604,992.7003,left,1,1.0917,,992.7004,993.7036,7,0,112,1,1,total,1,images/Ex10.jpg,left,training,hard,4,,,,,
,,,,,56b8ad1be1d0a2000c154093,001,61,female,British,First degree,2024-03-06_15h03.52.896,CRL1h,2023.2.3,Win32,40,65e67470ae2fbf2172c317b2,65e885b46534afcdc320e3ed,,,,,,,,,,,993.7045,1.1,994.8028,994.8028,996.1551,right,0,1.35,,996.1552,997.1527,7,1,113,0,1,total,1,images/Ex9.jpg,left,training,hard,4,,,,,
,,,,,56b8ad1be1d0a2000c154093,001,61,female,British,First degree,2024-03-06_15h03.52.896,CRL1h,2023.2.3,Win32,40,65e67470ae2fbf2172c317b2,65e885b46534afcdc320e3ed,,,,,,,,,,,997.1541,0.6,997.7511,997.7511,998.5021,left,1,0.7499,,998.5021,999.4997,7,2,114,8,1,total,1,images/Ex9.jpg,left,training,hard,4,,,,,
,,,,,56b8ad1be1d0a2000c154093,001,61,female,British,First degree,2024-03-06_15h03.52.896,CRL1h,2023.2.3,Win32,40,65e67470ae2fbf2172c317b2,65e885b46534afcdc320e3ed,,,,,,,,,,,999.5001,0.6,1000.0981,1000.0982,1000.9017,left,1,0.8008,,1000.9018,1001.8971,7,3,115,9,1,total,1,images/Ex10.jpg,left,training,hard,4,,,,,
,,,,,56b8ad1be1d0a2000c154093,001,61,female,British,First degree,2024-03-06_15h03.52.896,CRL1h,2023.2.3,Win32,40,65e67470ae2fbf2172c317b2,65e885b46534afcdc320e3ed,,,,,,,,,,,1001.8987,0.8,1002.6969,1002.6971,1004.5981,right,1,1.8825,,1004.5981,1005.5967,7,4,116,6,1,total,1,images/Ex15.jpg,right,training,hard,4,,,,,
,,,,,56b8ad1be1d0a2000c154093,001,61,female,British,First degree,2024-03-06_15h03.52.896,CRL1h,2023.2.3,Win32,40,65e67470ae2fbf2172c317b2,65e885b46534afcdc320e3ed,,,,,,,,,,,1005.5979,0.9,1006.4948,1006.4948,1007.3259,right,1,0.8284,,1007.326,1008.3239,7,5,117,15,1,total,1,images/Ex16.jpg,right,training,hard,4,,,,,
,,,,,56b8ad1be1d0a2000c154093,001,61,female,British,First degree,2024-03-06_15h03.52.896,CRL1h,2023.2.3,Win32,40,65e67470ae2fbf2172c317b2,65e885b46534afcdc320e3ed,,,,,,,,,,,1008.325,0.8,1009.1234,1009.1234,1010.8249,right,1,1.6986,,1010.825,1011.8187,7,6,118,4,1,total,1,images/Ex13.jpg,right,training,hard,4,,,,,
,,,,,56b8ad1be1d0a2000c154093,001,61,female,British,First degree,2024-03-06_15h03.52.896,CRL1h,2023.2.3,Win32,40,65e67470ae2fbf2172c317b2,65e885b46534afcdc320e3ed,,,,,,,,,,,1011.8205,0.9,1012.7197,1012.7198,1014.2987,left,1,1.5756,,1014.2988,1015.2932,7,7,119,2,1,total,1,images/Ex11.jpg,left,training,hard,4,,,,,
,,,,,56b8ad1be1d0a2000c154093,001,61,female,British,First degree,2024-03-06_15h03.52.896,CRL1h,2023.2.3,Win32,40,65e67470ae2fbf2172c317b2,65e885b46534afcdc320e3ed,,,,,,,,,,,1015.2935,0.8,1016.0951,1016.0951,1016.8239,right,1,0.7267,,1016.824,1017.8207,7,8,120,7,1,total,1,images/Ex16.jpg,right,training,hard,4,,,,,
,,,,,56b8ad1be1d0a2000c154093,001,61,female,British,First degree,2024-03-06_15h03.52.896,CRL1h,2023.2.3,Win32,40,65e67470ae2fbf2172c317b2,65e885b46534afcdc320e3ed,,,,,,,,,,,1017.8223,1,1018.8206,1018.8206,1020.8669,left,1,2.0362,,1020.867,1021.8677,7,9,121,3,1,total,1,images/Ex12.jpg,left,training,hard,4,,,,,
,,,,,56b8ad1be1d0a2000c154093,001,61,female,British,First degree,2024-03-06_15h03.52.896,CRL1h,2023.2.3,Win32,40,65e67470ae2fbf2172c317b2,65e885b46534afcdc320e3ed,,,,,,,,,,,1021.868,1,1022.8707,1022.8708,1024.7183,left,1,1.8457,,1024.7184,1025.7171,7,10,122,11,1,total,1,images/Ex12.jpg,left,training,hard,4,,,,,
,,,,,56b8ad1be1d0a2000c154093,001,61,female,British,First degree,2024-03-06_15h03.52.896,CRL1h,2023.2.3,Win32,40,65e67470ae2fbf2172c317b2,65e885b46534afcdc320e3ed,,,,,,,,,,,1025.7175,0.7,1026.4168,1026.4168,1027.763,right,1,1.3428,,1027.763,1028.7643,7,11,123,13,1,total,1,images/Ex14.jpg,right,training,hard,4,,,,,
,,,,,56b8ad1be1d0a2000c154093,001,61,female,British,First degree,2024-03-06_15h03.52.896,CRL1h,2023.2.3,Win32,40,65e67470ae2fbf2172c317b2,65e885b46534afcdc320e3ed,,,,,,,,,,,1028.7976,0.6,1029.3882,1029.3884,1030.4171,left,1,1.0257,,1030.4171,1031.4128,7,12,124,10,1,total,1,images/Ex11.jpg,left,training,hard,4,,,,,
,,,,,56b8ad1be1d0a2000c154093,001,61,female,British,First degree,2024-03-06_15h03.52.896,CRL1h,2023.2.3,Win32,40,65e67470ae2fbf2172c317b2,65e885b46534afcdc320e3ed,,,,,,,,,,,1031.4139,0.6,1032.0171,1032.0171,1033.9672,left,0,1.9475,,1033.9673,1034.9664,7,13,125,12,1,total,1,images/Ex13.jpg,right,training,hard,4,,,,,
,,,,,56b8ad1be1d0a2000c154093,001,61,female,British,First degree,2024-03-06_15h03.52.896,CRL1h,2023.2.3,Win32,40,65e67470ae2fbf2172c317b2,65e885b46534afcdc320e3ed,,,,,,,,,,,1034.9937,1.4,1036.3891,1036.3891,1037.3163,left,0,0.9248,,1037.3164,1038.3101,7,14,126,14,1,total,1,images/Ex15.jpg,right,training,hard,4,,,,,
