infCons.started,infCons.stopped,resp_consent.keys,resp_consent.rt,resp_consent.duration,participant,session,Age?,Gender?,Nationality?,Highest Educational Degree?,date,expName,psychopyVersion,OS,frameRate,STUDY_ID,SESSION_ID,instructions.started,instructions.stopped,resp_instructions.keys,resp_instructions.rt,resp_instructions.duration,nextTask.started,nextTask.stopped,ready_task.keys,ready_task.rt,ready_task.duration,fixation.started,ITI,fixation.stopped,stim.started,stim.stopped,response.keys,response.corr,response.rt,response.duration,feedback.started,feedback.stopped,trials.thisRepN,trials.thisTrialN,trials.thisN,trials.thisIndex,trials.ran,task,phase,Exemplars,r_correct,condition,difficulty,set,end.started,end.stopped,resp_end.keys,resp_end.rt,resp_end.duration
0.0002,27.8458,space,27.7519,,58c8497430c4cf0001ce9caf,001,43,male,United Kingdo,Bachelor Degree,2024-03-06_12h15.57.550,CRL1h,2023.2.3,MacIntel,59.98080614,65e67470ae2fbf2172c317b2,65e85e5d0cf162c5c3cdf0f5,,,,,,,,,,,,,,,,,,,,,,,,,,,,,,,,,,,,,,
,,,,,58c8497430c4cf0001ce9caf,001,43,male,United Kingdo,Bachelor Degree,2024-03-06_12h15.57.550,CRL1h,2023.2.3,MacIntel,59.98080614,65e67470ae2fbf2172c317b2,65e85e5d0cf162c5c3cdf0f5,27.8459,50.2176,space,22.3466,,,,,,,,,,,,,,,,,,,,,,,,,,,,,,,,,,
,,,,,58c8497430c4cf0001ce9caf,001,43,male,United Kingdo,Bachelor Degree,2024-03-06_12h15.57.550,CRL1h,2023.2.3,MacIntel,59.98080614,65e67470ae2fbf2172c317b2,65e85e5d0cf162c5c3cdf0f5,,,,,,50.2209,53.5822,space,3.3423,,53.5859,0.9,54.4795,54.4796,67.6448,left,0,13.1612,,67.6449,68.6418,0,0,0,15,1,total,1,images/Ex8.jpg,right,training,hard,2,,,,,
,,,,,58c8497430c4cf0001ce9caf,001,43,male,United Kingdo,Bachelor Degree,2024-03-06_12h15.57.550,CRL1h,2023.2.3,MacIntel,59.98080614,65e67470ae2fbf2172c317b2,65e85e5d0cf162c5c3cdf0f5,,,,,,,,,,,68.6423,0.8,69.4464,69.4465,73.9594,left,1,4.5114,,73.9594,74.9491,0,1,1,0,1,total,1,images/Ex1.jpg,left,training,hard,2,,,,,
,,,,,58c8497430c4cf0001ce9caf,001,43,male,United Kingdo,Bachelor Degree,2024-03-06_12h15.57.550,CRL1h,2023.2.3,MacIntel,59.98080614,65e67470ae2fbf2172c317b2,65e85e5d0cf162c5c3cdf0f5,,,,,,,,,,,74.9493,1,75.947,75.947,76.4392,left,1,0.4912,,76.4392,77.4325,0,2,2,9,1,total,1,images/Ex2.jpg,left,training,hard,2,,,,,
,,,,,58c8497430c4cf0001ce9caf,001,43,male,United Kingdo,Bachelor Degree,2024-03-06_12h15.57.550,CRL1h,2023.2.3,MacIntel,59.98080614,65e67470ae2fbf2172c317b2,65e85e5d0cf162c5c3cdf0f5,,,,,,,,,,,77.4327,1.3,78.7354,78.7354,80.6515,right,0,1.9153,,80.6515,81.6524,0,3,3,1,1,total,1,images/Ex2.jpg,left,training,hard,2,,,,,
,,,,,58c8497430c4cf0001ce9caf,001,43,male,United Kingdo,Bachelor Degree,2024-03-06_12h15.57.550,CRL1h,2023.2.3,MacIntel,59.98080614,65e67470ae2fbf2172c317b2,65e85e5d0cf162c5c3cdf0f5,,,,,,,,,,,81.6527,1.3,82.9548,82.9548,84.0735,left,1,1.1181,,84.0735,85.0729,0,4,4,3,1,total,1,images/Ex4.jpg,left,training,hard,2,,,,,
,,,,,58c8497430c4cf0001ce9caf,001,43,male,United Kingdo,Bachelor Degree,2024-03-06_12h15.57.550,CRL1h,2023.2.3,MacIntel,59.98080614,65e67470ae2fbf2172c317b2,65e85e5d0cf162c5c3cdf0f5,,,,,,,,,,,85.0732,1.2,86.2654,86.2654,87.286,right,0,1.0198,,87.2861,88.2782,0,5,5,10,1,total,1,images/Ex3.jpg,left,training,hard,2,,,,,
,,,,,58c8497430c4cf0001ce9caf,001,43,male,United Kingdo,Bachelor Degree,2024-03-06_12h15.57.550,CRL1h,2023.2.3,MacIntel,59.98080614,65e67470ae2fbf2172c317b2,65e85e5d0cf162c5c3cdf0f5,,,,,,,,,,,88.2785,0.6,88.8673,88.8673,90.6834,left,1,1.815,,90.6834,91.6852,0,6,6,11,1,total,1,images/Ex4.jpg,left,training,hard,2,,,,,
,,,,,58c8497430c4cf0001ce9caf,001,43,male,United Kingdo,Bachelor Degree,2024-03-06_12h15.57.550,CRL1h,2023.2.3,MacIntel,59.98080614,65e67470ae2fbf2172c317b2,65e85e5d0cf162c5c3cdf0f5,,,,,,,,,,,91.6854,0.6,92.2757,92.2757,93.3175,left,0,1.0409,,93.3176,94.3113,0,7,7,6,1,total,1,images/Ex7.jpg,right,training,hard,2,,,,,
,,,,,58c8497430c4cf0001ce9caf,001,43,male,United Kingdo,Bachelor Degree,2024-03-06_12h15.57.550,CRL1h,2023.2.3,MacIntel,59.98080614,65e67470ae2fbf2172c317b2,65e85e5d0cf162c5c3cdf0f5,,,,,,,,,,,94.3115,0.8,95.1095,95.1095,95.7829,left,0,0.6726,,95.7829,96.7804,0,8,8,12,1,total,1,images/Ex5.jpg,right,training,hard,2,,,,,
,,,,,58c8497430c4cf0001ce9caf,001,43,male,United Kingdo,Bachelor Degree,2024-03-06_12h15.57.550,CRL1h,2023.2.3,MacIntel,59.98080614,65e67470ae2fbf2172c317b2,65e85e5d0cf162c5c3cdf0f5,,,,,,,,,,,96.7808,1.1,97.8853,97.8853,99.1576,right,1,1.2719,,99.1576,100.1499,0,9,9,4,1,total,1,images/Ex5.jpg,right,training,hard,2,,,,,
,,,,,58c8497430c4cf0001ce9caf,001,43,male,United Kingdo,Bachelor Degree,2024-03-06_12h15.57.550,CRL1h,2023.2.3,MacIntel,59.98080614,65e67470ae2fbf2172c317b2,65e85e5d0cf162c5c3cdf0f5,,,,,,,,,,,100.1503,0.9,101.045,101.045,101.8601,right,1,0.8143,,101.8601,102.8579,0,10,10,14,1,total,1,images/Ex7.jpg,right,training,hard,2,,,,,
,,,,,58c8497430c4cf0001ce9caf,001,43,male,United Kingdo,Bachelor Degree,2024-03-06_12h15.57.550,CRL1h,2023.2.3,MacIntel,59.98080614,65e67470ae2fbf2172c317b2,65e85e5d0cf162c5c3cdf0f5,,,,,,,,,,,102.8582,0.8,103.6552,103.6553,104.7698,left,0,1.1138,,104.7699,105.7738,0,11,11,5,1,total,1,images/Ex6.jpg,right,training,hard,2,,,,,
,,,,,58c8497430c4cf0001ce9caf,001,43,male,United Kingdo,Bachelor Degree,2024-03-06_12h15.57.550,CRL1h,2023.2.3,MacIntel,59.98080614,65e67470ae2fbf2172c317b2,65e85e5d0cf162c5c3cdf0f5,,,,,,,,,,,105.7741,0.7,106.4732,106.4732,107.3891,left,0,0.9152,,107.3891,108.3805,0,12,12,7,1,total,1,images/Ex8.jpg,right,training,hard,2,,,,,
,,,,,58c8497430c4cf0001ce9caf,001,43,male,United Kingdo,Bachelor Degree,2024-03-06_12h15.57.550,CRL1h,2023.2.3,MacIntel,59.98080614,65e67470ae2fbf2172c317b2,65e85e5d0cf162c5c3cdf0f5,,,,,,,,,,,108.3808,1,109.3753,109.3753,110.1917,left,1,0.8157,,110.1917,111.1906,0,13,13,8,1,total,1,images/Ex1.jpg,left,training,hard,2,,,,,
,,,,,58c8497430c4cf0001ce9caf,001,43,male,United Kingdo,Bachelor Degree,2024-03-06_12h15.57.550,CRL1h,2023.2.3,MacIntel,59.98080614,65e67470ae2fbf2172c317b2,65e85e5d0cf162c5c3cdf0f5,,,,,,,,,,,111.1909,1.2,112.3921,112.3921,113.1401,right,1,0.7475,,113.1402,114.1433,0,14,14,13,1,total,1,images/Ex6.jpg,right,training,hard,2,,,,,
,,,,,58c8497430c4cf0001ce9caf,001,43,male,United Kingdo,Bachelor Degree,2024-03-06_12h15.57.550,CRL1h,2023.2.3,MacIntel,59.98080614,65e67470ae2fbf2172c317b2,65e85e5d0cf162c5c3cdf0f5,,,,,,,,,,,114.1436,0.6,114.7416,114.7417,115.6793,right,0,0.9371,,115.6793,116.6669,0,15,15,2,1,total,1,images/Ex3.jpg,left,training,hard,2,,,,,
,,,,,58c8497430c4cf0001ce9caf,001,43,male,United Kingdo,Bachelor Degree,2024-03-06_12h15.57.550,CRL1h,2023.2.3,MacIntel,59.98080614,65e67470ae2fbf2172c317b2,65e85e5d0cf162c5c3cdf0f5,,,,,,,,,,,116.6672,0.8,117.4634,117.4635,118.6969,left,0,1.2328,,118.6969,119.6943,1,0,16,15,1,total,1,images/Ex8.jpg,right,training,hard,2,,,,,
,,,,,58c8497430c4cf0001ce9caf,001,43,male,United Kingdo,Bachelor Degree,2024-03-06_12h15.57.550,CRL1h,2023.2.3,MacIntel,59.98080614,65e67470ae2fbf2172c317b2,65e85e5d0cf162c5c3cdf0f5,,,,,,,,,,,119.6945,0.6,120.2942,120.2942,121.2085,left,1,0.9127,,121.2085,122.1986,1,1,17,2,1,total,1,images/Ex3.jpg,left,training,hard,2,,,,,
,,,,,58c8497430c4cf0001ce9caf,001,43,male,United Kingdo,Bachelor Degree,2024-03-06_12h15.57.550,CRL1h,2023.2.3,MacIntel,59.98080614,65e67470ae2fbf2172c317b2,65e85e5d0cf162c5c3cdf0f5,,,,,,,,,,,122.1989,0.6,122.8022,122.8022,123.4574,left,1,0.6546,,123.4574,124.4559,1,2,18,10,1,total,1,images/Ex3.jpg,left,training,hard,2,,,,,
,,,,,58c8497430c4cf0001ce9caf,001,43,male,United Kingdo,Bachelor Degree,2024-03-06_12h15.57.550,CRL1h,2023.2.3,MacIntel,59.98080614,65e67470ae2fbf2172c317b2,65e85e5d0cf162c5c3cdf0f5,,,,,,,,,,,124.4562,0.6,125.0517,125.0518,125.8782,right,1,0.8258,,125.8782,126.8744,1,3,19,4,1,total,1,images/Ex5.jpg,right,training,hard,2,,,,,
,,,,,58c8497430c4cf0001ce9caf,001,43,male,United Kingdo,Bachelor Degree,2024-03-06_12h15.57.550,CRL1h,2023.2.3,MacIntel,59.98080614,65e67470ae2fbf2172c317b2,65e85e5d0cf162c5c3cdf0f5,,,,,,,,,,,126.8746,1.3,128.1699,128.1699,129.2526,left,1,1.082,,129.2526,130.2402,1,4,20,3,1,total,1,images/Ex4.jpg,left,training,hard,2,,,,,
,,,,,58c8497430c4cf0001ce9caf,001,43,male,United Kingdo,Bachelor Degree,2024-03-06_12h15.57.550,CRL1h,2023.2.3,MacIntel,59.98080614,65e67470ae2fbf2172c317b2,65e85e5d0cf162c5c3cdf0f5,,,,,,,,,,,130.2405,0.8,131.0406,131.0406,132.4321,right,1,1.3908,,132.4321,133.4304,1,5,21,6,1,total,1,images/Ex7.jpg,right,training,hard,2,,,,,
,,,,,58c8497430c4cf0001ce9caf,001,43,male,United Kingdo,Bachelor Degree,2024-03-06_12h15.57.550,CRL1h,2023.2.3,MacIntel,59.98080614,65e67470ae2fbf2172c317b2,65e85e5d0cf162c5c3cdf0f5,,,,,,,,,,,133.4306,0.6,134.0287,134.0287,134.9658,right,0,0.9365,,134.9659,135.9642,1,6,22,9,1,total,1,images/Ex2.jpg,left,training,hard,2,,,,,
,,,,,58c8497430c4cf0001ce9caf,001,43,male,United Kingdo,Bachelor Degree,2024-03-06_12h15.57.550,CRL1h,2023.2.3,MacIntel,59.98080614,65e67470ae2fbf2172c317b2,65e85e5d0cf162c5c3cdf0f5,,,,,,,,,,,135.9646,1.3,137.2658,137.2658,137.9143,left,1,0.6479,,137.9143,138.9152,1,7,23,8,1,total,1,images/Ex1.jpg,left,training,hard,2,,,,,
,,,,,58c8497430c4cf0001ce9caf,001,43,male,United Kingdo,Bachelor Degree,2024-03-06_12h15.57.550,CRL1h,2023.2.3,MacIntel,59.98080614,65e67470ae2fbf2172c317b2,65e85e5d0cf162c5c3cdf0f5,,,,,,,,,,,138.9154,1.3,140.2035,140.2036,140.9626,left,0,0.7584,,140.9627,141.9553,1,8,24,12,1,total,1,images/Ex5.jpg,right,training,hard,2,,,,,
,,,,,58c8497430c4cf0001ce9caf,001,43,male,United Kingdo,Bachelor Degree,2024-03-06_12h15.57.550,CRL1h,2023.2.3,MacIntel,59.98080614,65e67470ae2fbf2172c317b2,65e85e5d0cf162c5c3cdf0f5,,,,,,,,,,,141.9556,0.6,142.5519,142.5519,143.8802,right,1,1.3276,,143.8802,144.8829,1,9,25,13,1,total,1,images/Ex6.jpg,right,training,hard,2,,,,,
,,,,,58c8497430c4cf0001ce9caf,001,43,male,United Kingdo,Bachelor Degree,2024-03-06_12h15.57.550,CRL1h,2023.2.3,MacIntel,59.98080614,65e67470ae2fbf2172c317b2,65e85e5d0cf162c5c3cdf0f5,,,,,,,,,,,144.8832,1,145.8825,145.8826,146.938,right,0,1.0547,,146.9381,147.9386,1,10,26,11,1,total,1,images/Ex4.jpg,left,training,hard,2,,,,,
,,,,,58c8497430c4cf0001ce9caf,001,43,male,United Kingdo,Bachelor Degree,2024-03-06_12h15.57.550,CRL1h,2023.2.3,MacIntel,59.98080614,65e67470ae2fbf2172c317b2,65e85e5d0cf162c5c3cdf0f5,,,,,,,,,,,147.9389,1.2,149.1365,149.1366,150.2179,right,0,1.0805,,150.2179,151.2199,1,11,27,1,1,total,1,images/Ex2.jpg,left,training,hard,2,,,,,
,,,,,58c8497430c4cf0001ce9caf,001,43,male,United Kingdo,Bachelor Degree,2024-03-06_12h15.57.550,CRL1h,2023.2.3,MacIntel,59.98080614,65e67470ae2fbf2172c317b2,65e85e5d0cf162c5c3cdf0f5,,,,,,,,,,,151.2203,0.8,152.0159,152.016,153.381,right,1,1.3643,,153.381,154.3713,1,12,28,7,1,total,1,images/Ex8.jpg,right,training,hard,2,,,,,
,,,,,58c8497430c4cf0001ce9caf,001,43,male,United Kingdo,Bachelor Degree,2024-03-06_12h15.57.550,CRL1h,2023.2.3,MacIntel,59.98080614,65e67470ae2fbf2172c317b2,65e85e5d0cf162c5c3cdf0f5,,,,,,,,,,,154.3716,1.3,155.6619,155.662,157.6797,right,0,2.0172,,157.6797,158.6711,1,13,29,0,1,total,1,images/Ex1.jpg,left,training,hard,2,,,,,
,,,,,58c8497430c4cf0001ce9caf,001,43,male,United Kingdo,Bachelor Degree,2024-03-06_12h15.57.550,CRL1h,2023.2.3,MacIntel,59.98080614,65e67470ae2fbf2172c317b2,65e85e5d0cf162c5c3cdf0f5,,,,,,,,,,,158.6714,0.7,159.3661,159.3661,161.2155,right,1,1.8486,,161.2155,162.2149,1,14,30,5,1,total,1,images/Ex6.jpg,right,training,hard,2,,,,,
,,,,,58c8497430c4cf0001ce9caf,001,43,male,United Kingdo,Bachelor Degree,2024-03-06_12h15.57.550,CRL1h,2023.2.3,MacIntel,59.98080614,65e67470ae2fbf2172c317b2,65e85e5d0cf162c5c3cdf0f5,,,,,,,,,,,162.2151,0.6,162.8178,162.8178,163.8411,left,0,1.0224,,163.8411,164.8315,1,15,31,14,1,total,1,images/Ex7.jpg,right,training,hard,2,,,,,
,,,,,58c8497430c4cf0001ce9caf,001,43,male,United Kingdo,Bachelor Degree,2024-03-06_12h15.57.550,CRL1h,2023.2.3,MacIntel,59.98080614,65e67470ae2fbf2172c317b2,65e85e5d0cf162c5c3cdf0f5,,,,,,,,,,,164.8318,1.4,166.2294,166.2295,167.4035,right,0,1.1735,,167.4035,168.4053,2,0,32,3,1,total,1,images/Ex4.jpg,left,training,hard,2,,,,,
,,,,,58c8497430c4cf0001ce9caf,001,43,male,United Kingdo,Bachelor Degree,2024-03-06_12h15.57.550,CRL1h,2023.2.3,MacIntel,59.98080614,65e67470ae2fbf2172c317b2,65e85e5d0cf162c5c3cdf0f5,,,,,,,,,,,168.4056,1.4,169.7946,169.7946,170.856,right,0,1.0607,,170.856,171.8597,2,1,33,8,1,total,1,images/Ex1.jpg,left,training,hard,2,,,,,
,,,,,58c8497430c4cf0001ce9caf,001,43,male,United Kingdo,Bachelor Degree,2024-03-06_12h15.57.550,CRL1h,2023.2.3,MacIntel,59.98080614,65e67470ae2fbf2172c317b2,65e85e5d0cf162c5c3cdf0f5,,,,,,,,,,,171.8601,1,172.8508,172.8508,173.7026,left,0,0.8512,,173.7026,174.6928,2,2,34,7,1,total,1,images/Ex8.jpg,right,training,hard,2,,,,,
,,,,,58c8497430c4cf0001ce9caf,001,43,male,United Kingdo,Bachelor Degree,2024-03-06_12h15.57.550,CRL1h,2023.2.3,MacIntel,59.98080614,65e67470ae2fbf2172c317b2,65e85e5d0cf162c5c3cdf0f5,,,,,,,,,,,174.693,1.2,175.893,175.893,176.999,right,0,1.1053,,176.999,177.9966,2,3,35,10,1,total,1,images/Ex3.jpg,left,training,hard,2,,,,,
,,,,,58c8497430c4cf0001ce9caf,001,43,male,United Kingdo,Bachelor Degree,2024-03-06_12h15.57.550,CRL1h,2023.2.3,MacIntel,59.98080614,65e67470ae2fbf2172c317b2,65e85e5d0cf162c5c3cdf0f5,,,,,,,,,,,177.9968,1.2,179.193,179.193,180.7233,right,0,1.5297,,180.7233,181.7194,2,4,36,2,1,total,1,images/Ex3.jpg,left,training,hard,2,,,,,
,,,,,58c8497430c4cf0001ce9caf,001,43,male,United Kingdo,Bachelor Degree,2024-03-06_12h15.57.550,CRL1h,2023.2.3,MacIntel,59.98080614,65e67470ae2fbf2172c317b2,65e85e5d0cf162c5c3cdf0f5,,,,,,,,,,,181.7197,1.4,183.1093,183.1094,184.5042,left,0,1.3941,,184.5043,185.4953,2,5,37,6,1,total,1,images/Ex7.jpg,right,training,hard,2,,,,,
,,,,,58c8497430c4cf0001ce9caf,001,43,male,United Kingdo,Bachelor Degree,2024-03-06_12h15.57.550,CRL1h,2023.2.3,MacIntel,59.98080614,65e67470ae2fbf2172c317b2,65e85e5d0cf162c5c3cdf0f5,,,,,,,,,,,185.4956,0.8,186.3003,186.3004,187.5007,left,1,1.1995,,187.5008,188.4954,2,6,38,0,1,total,1,images/Ex1.jpg,left,training,hard,2,,,,,
,,,,,58c8497430c4cf0001ce9caf,001,43,male,United Kingdo,Bachelor Degree,2024-03-06_12h15.57.550,CRL1h,2023.2.3,MacIntel,59.98080614,65e67470ae2fbf2172c317b2,65e85e5d0cf162c5c3cdf0f5,,,,,,,,,,,188.4957,0.6,189.0843,189.0843,189.9839,right,0,0.8988,,189.984,190.9809,2,7,39,9,1,total,1,images/Ex2.jpg,left,training,hard,2,,,,,
,,,,,58c8497430c4cf0001ce9caf,001,43,male,United Kingdo,Bachelor Degree,2024-03-06_12h15.57.550,CRL1h,2023.2.3,MacIntel,59.98080614,65e67470ae2fbf2172c317b2,65e85e5d0cf162c5c3cdf0f5,,,,,,,,,,,190.9811,1,191.9844,191.9845,193.265,left,0,1.2798,,193.265,194.262,2,8,40,12,1,total,1,images/Ex5.jpg,right,training,hard,2,,,,,
,,,,,58c8497430c4cf0001ce9caf,001,43,male,United Kingdo,Bachelor Degree,2024-03-06_12h15.57.550,CRL1h,2023.2.3,MacIntel,59.98080614,65e67470ae2fbf2172c317b2,65e85e5d0cf162c5c3cdf0f5,,,,,,,,,,,194.2623,0.7,194.9664,194.9664,196.2058,left,0,1.2387,,196.2058,197.1819,2,9,41,14,1,total,1,images/Ex7.jpg,right,training,hard,2,,,,,
,,,,,58c8497430c4cf0001ce9caf,001,43,male,United Kingdo,Bachelor Degree,2024-03-06_12h15.57.550,CRL1h,2023.2.3,MacIntel,59.98080614,65e67470ae2fbf2172c317b2,65e85e5d0cf162c5c3cdf0f5,,,,,,,,,,,197.1824,0.6,197.7866,197.7867,198.7877,left,0,1.0006,,198.7877,199.787,2,10,42,13,1,total,1,images/Ex6.jpg,right,training,hard,2,,,,,
,,,,,58c8497430c4cf0001ce9caf,001,43,male,United Kingdo,Bachelor Degree,2024-03-06_12h15.57.550,CRL1h,2023.2.3,MacIntel,59.98080614,65e67470ae2fbf2172c317b2,65e85e5d0cf162c5c3cdf0f5,,,,,,,,,,,199.7873,1.4,201.1766,201.1766,202.035,right,1,0.8577,,202.035,203.0286,2,11,43,5,1,total,1,images/Ex6.jpg,right,training,hard,2,,,,,
,,,,,58c8497430c4cf0001ce9caf,001,43,male,United Kingdo,Bachelor Degree,2024-03-06_12h15.57.550,CRL1h,2023.2.3,MacIntel,59.98080614,65e67470ae2fbf2172c317b2,65e85e5d0cf162c5c3cdf0f5,,,,,,,,,,,203.0289,0.7,203.7314,203.7314,204.5214,right,0,0.7892,,204.5214,205.5118,2,12,44,1,1,total,1,images/Ex2.jpg,left,training,hard,2,,,,,
,,,,,58c8497430c4cf0001ce9caf,001,43,male,United Kingdo,Bachelor Degree,2024-03-06_12h15.57.550,CRL1h,2023.2.3,MacIntel,59.98080614,65e67470ae2fbf2172c317b2,65e85e5d0cf162c5c3cdf0f5,,,,,,,,,,,205.5121,1,206.5112,206.5112,207.4969,right,1,0.9852,,207.4969,208.4946,2,13,45,15,1,total,1,images/Ex8.jpg,right,training,hard,2,,,,,
,,,,,58c8497430c4cf0001ce9caf,001,43,male,United Kingdo,Bachelor Degree,2024-03-06_12h15.57.550,CRL1h,2023.2.3,MacIntel,59.98080614,65e67470ae2fbf2172c317b2,65e85e5d0cf162c5c3cdf0f5,,,,,,,,,,,208.495,1.3,209.7886,209.7887,210.6318,left,0,0.8425,,210.6318,211.6211,2,14,46,4,1,total,1,images/Ex5.jpg,right,training,hard,2,,,,,
,,,,,58c8497430c4cf0001ce9caf,001,43,male,United Kingdo,Bachelor Degree,2024-03-06_12h15.57.550,CRL1h,2023.2.3,MacIntel,59.98080614,65e67470ae2fbf2172c317b2,65e85e5d0cf162c5c3cdf0f5,,,,,,,,,,,211.6215,1.3,212.9137,212.9137,214.1343,left,1,1.2199,,214.1343,215.1354,2,15,47,11,1,total,1,images/Ex4.jpg,left,training,hard,2,,,,,
,,,,,58c8497430c4cf0001ce9caf,001,43,male,United Kingdo,Bachelor Degree,2024-03-06_12h15.57.550,CRL1h,2023.2.3,MacIntel,59.98080614,65e67470ae2fbf2172c317b2,65e85e5d0cf162c5c3cdf0f5,,,,,,,,,,,215.1357,1.1,216.2362,216.2363,217.0158,right,1,0.779,,217.0158,218.0124,3,0,48,12,1,total,1,images/Ex5.jpg,right,training,hard,2,,,,,
,,,,,58c8497430c4cf0001ce9caf,001,43,male,United Kingdo,Bachelor Degree,2024-03-06_12h15.57.550,CRL1h,2023.2.3,MacIntel,59.98080614,65e67470ae2fbf2172c317b2,65e85e5d0cf162c5c3cdf0f5,,,,,,,,,,,218.0127,1.4,219.415,219.415,221.1237,left,0,1.7079,,221.1238,222.1239,3,1,49,15,1,total,1,images/Ex8.jpg,right,training,hard,2,,,,,
,,,,,58c8497430c4cf0001ce9caf,001,43,male,United Kingdo,Bachelor Degree,2024-03-06_12h15.57.550,CRL1h,2023.2.3,MacIntel,59.98080614,65e67470ae2fbf2172c317b2,65e85e5d0cf162c5c3cdf0f5,,,,,,,,,,,222.1242,0.9,223.0214,223.0215,223.7748,left,1,0.7527,,223.7748,224.7696,3,2,50,0,1,total,1,images/Ex1.jpg,left,training,hard,2,,,,,
,,,,,58c8497430c4cf0001ce9caf,001,43,male,United Kingdo,Bachelor Degree,2024-03-06_12h15.57.550,CRL1h,2023.2.3,MacIntel,59.98080614,65e67470ae2fbf2172c317b2,65e85e5d0cf162c5c3cdf0f5,,,,,,,,,,,224.77,0.6,225.3589,225.3589,226.0951,left,1,0.7354,,226.0952,227.0905,3,3,51,10,1,total,1,images/Ex3.jpg,left,training,hard,2,,,,,
,,,,,58c8497430c4cf0001ce9caf,001,43,male,United Kingdo,Bachelor Degree,2024-03-06_12h15.57.550,CRL1h,2023.2.3,MacIntel,59.98080614,65e67470ae2fbf2172c317b2,65e85e5d0cf162c5c3cdf0f5,,,,,,,,,,,227.0907,0.5,227.5902,227.5903,228.639,right,0,1.048,,228.639,229.6289,3,4,52,9,1,total,1,images/Ex2.jpg,left,training,hard,2,,,,,
,,,,,58c8497430c4cf0001ce9caf,001,43,male,United Kingdo,Bachelor Degree,2024-03-06_12h15.57.550,CRL1h,2023.2.3,MacIntel,59.98080614,65e67470ae2fbf2172c317b2,65e85e5d0cf162c5c3cdf0f5,,,,,,,,,,,229.6291,1.3,230.9286,230.9287,232.1991,left,1,1.2696,,232.1992,233.1929,3,5,53,3,1,total,1,images/Ex4.jpg,left,training,hard,2,,,,,
,,,,,58c8497430c4cf0001ce9caf,001,43,male,United Kingdo,Bachelor Degree,2024-03-06_12h15.57.550,CRL1h,2023.2.3,MacIntel,59.98080614,65e67470ae2fbf2172c317b2,65e85e5d0cf162c5c3cdf0f5,,,,,,,,,,,233.1931,0.5,233.6928,233.6929,234.4648,right,1,0.7714,,234.4648,235.453,3,6,54,6,1,total,1,images/Ex7.jpg,right,training,hard,2,,,,,
,,,,,58c8497430c4cf0001ce9caf,001,43,male,United Kingdo,Bachelor Degree,2024-03-06_12h15.57.550,CRL1h,2023.2.3,MacIntel,59.98080614,65e67470ae2fbf2172c317b2,65e85e5d0cf162c5c3cdf0f5,,,,,,,,,,,235.4537,0.7,236.1443,236.1443,237.8159,left,1,1.6709,,237.8159,238.8205,3,7,55,2,1,total,1,images/Ex3.jpg,left,training,hard,2,,,,,
,,,,,58c8497430c4cf0001ce9caf,001,43,male,United Kingdo,Bachelor Degree,2024-03-06_12h15.57.550,CRL1h,2023.2.3,MacIntel,59.98080614,65e67470ae2fbf2172c317b2,65e85e5d0cf162c5c3cdf0f5,,,,,,,,,,,238.8209,0.7,239.5233,239.5234,240.9948,right,0,1.4706,,240.9948,241.9841,3,8,56,8,1,total,1,images/Ex1.jpg,left,training,hard,2,,,,,
,,,,,58c8497430c4cf0001ce9caf,001,43,male,United Kingdo,Bachelor Degree,2024-03-06_12h15.57.550,CRL1h,2023.2.3,MacIntel,59.98080614,65e67470ae2fbf2172c317b2,65e85e5d0cf162c5c3cdf0f5,,,,,,,,,,,241.9842,1.5,243.4828,243.4828,244.9253,right,1,1.442,,244.9253,245.9262,3,9,57,13,1,total,1,images/Ex6.jpg,right,training,hard,2,,,,,
,,,,,58c8497430c4cf0001ce9caf,001,43,male,United Kingdo,Bachelor Degree,2024-03-06_12h15.57.550,CRL1h,2023.2.3,MacIntel,59.98080614,65e67470ae2fbf2172c317b2,65e85e5d0cf162c5c3cdf0f5,,,,,,,,,,,245.9264,0.8,246.7257,246.7258,248.4198,right,1,1.6933,,248.4199,249.4109,3,10,58,7,1,total,1,images/Ex8.jpg,right,training,hard,2,,,,,
,,,,,58c8497430c4cf0001ce9caf,001,43,male,United Kingdo,Bachelor Degree,2024-03-06_12h15.57.550,CRL1h,2023.2.3,MacIntel,59.98080614,65e67470ae2fbf2172c317b2,65e85e5d0cf162c5c3cdf0f5,,,,,,,,,,,249.4111,0.8,250.2005,250.2005,250.7283,left,1,0.5271,,250.7284,251.7279,3,11,59,1,1,total,1,images/Ex2.jpg,left,training,hard,2,,,,,
,,,,,58c8497430c4cf0001ce9caf,001,43,male,United Kingdo,Bachelor Degree,2024-03-06_12h15.57.550,CRL1h,2023.2.3,MacIntel,59.98080614,65e67470ae2fbf2172c317b2,65e85e5d0cf162c5c3cdf0f5,,,,,,,,,,,251.7281,0.9,252.6255,252.6255,253.3963,left,0,0.7702,,253.3963,254.394,3,12,60,14,1,total,1,images/Ex7.jpg,right,training,hard,2,,,,,
,,,,,58c8497430c4cf0001ce9caf,001,43,male,United Kingdo,Bachelor Degree,2024-03-06_12h15.57.550,CRL1h,2023.2.3,MacIntel,59.98080614,65e67470ae2fbf2172c317b2,65e85e5d0cf162c5c3cdf0f5,,,,,,,,,,,254.3943,0.9,255.29,255.2901,256.8516,left,1,1.5608,,256.8517,257.8507,3,13,61,11,1,total,1,images/Ex4.jpg,left,training,hard,2,,,,,
,,,,,58c8497430c4cf0001ce9caf,001,43,male,United Kingdo,Bachelor Degree,2024-03-06_12h15.57.550,CRL1h,2023.2.3,MacIntel,59.98080614,65e67470ae2fbf2172c317b2,65e85e5d0cf162c5c3cdf0f5,,,,,,,,,,,257.8509,1.1,258.9502,258.9502,260.068,left,0,1.1171,,260.068,261.0624,3,14,62,5,1,total,1,images/Ex6.jpg,right,training,hard,2,,,,,
,,,,,58c8497430c4cf0001ce9caf,001,43,male,United Kingdo,Bachelor Degree,2024-03-06_12h15.57.550,CRL1h,2023.2.3,MacIntel,59.98080614,65e67470ae2fbf2172c317b2,65e85e5d0cf162c5c3cdf0f5,,,,,,,,,,,261.0626,0.7,261.7504,261.7504,262.8718,left,0,1.1207,,262.8719,263.8637,3,15,63,4,1,total,1,images/Ex5.jpg,right,training,hard,2,,,,,
,,,,,58c8497430c4cf0001ce9caf,001,43,male,United Kingdo,Bachelor Degree,2024-03-06_12h15.57.550,CRL1h,2023.2.3,MacIntel,59.98080614,65e67470ae2fbf2172c317b2,65e85e5d0cf162c5c3cdf0f5,,,,,,,,,,,263.8643,1.4,265.2549,265.255,266.3584,right,0,1.1027,,266.3584,267.3557,4,0,64,10,1,total,1,images/Ex3.jpg,left,training,hard,2,,,,,
,,,,,58c8497430c4cf0001ce9caf,001,43,male,United Kingdo,Bachelor Degree,2024-03-06_12h15.57.550,CRL1h,2023.2.3,MacIntel,59.98080614,65e67470ae2fbf2172c317b2,65e85e5d0cf162c5c3cdf0f5,,,,,,,,,,,267.3559,1.1,268.4566,268.4566,269.4741,left,1,1.017,,269.4741,270.4729,4,1,65,1,1,total,1,images/Ex2.jpg,left,training,hard,2,,,,,
,,,,,58c8497430c4cf0001ce9caf,001,43,male,United Kingdo,Bachelor Degree,2024-03-06_12h15.57.550,CRL1h,2023.2.3,MacIntel,59.98080614,65e67470ae2fbf2172c317b2,65e85e5d0cf162c5c3cdf0f5,,,,,,,,,,,270.4733,1.1,271.5732,271.5732,272.9938,left,0,1.4199,,272.9938,273.9872,4,2,66,5,1,total,1,images/Ex6.jpg,right,training,hard,2,,,,,
,,,,,58c8497430c4cf0001ce9caf,001,43,male,United Kingdo,Bachelor Degree,2024-03-06_12h15.57.550,CRL1h,2023.2.3,MacIntel,59.98080614,65e67470ae2fbf2172c317b2,65e85e5d0cf162c5c3cdf0f5,,,,,,,,,,,273.9876,0.7,274.6753,274.6753,275.4459,left,0,0.7699,,275.4459,276.4482,4,3,67,12,1,total,1,images/Ex5.jpg,right,training,hard,2,,,,,
,,,,,58c8497430c4cf0001ce9caf,001,43,male,United Kingdo,Bachelor Degree,2024-03-06_12h15.57.550,CRL1h,2023.2.3,MacIntel,59.98080614,65e67470ae2fbf2172c317b2,65e85e5d0cf162c5c3cdf0f5,,,,,,,,,,,276.4485,0.8,277.2517,277.2518,277.5626,right,0,0.3103,,277.5626,278.5616,4,4,68,8,1,total,1,images/Ex1.jpg,left,training,hard,2,,,,,
,,,,,58c8497430c4cf0001ce9caf,001,43,male,United Kingdo,Bachelor Degree,2024-03-06_12h15.57.550,CRL1h,2023.2.3,MacIntel,59.98080614,65e67470ae2fbf2172c317b2,65e85e5d0cf162c5c3cdf0f5,,,,,,,,,,,278.5619,0.6,279.165,279.1651,280.2869,left,0,1.1211,,280.2869,281.2854,4,5,69,14,1,total,1,images/Ex7.jpg,right,training,hard,2,,,,,
,,,,,58c8497430c4cf0001ce9caf,001,43,male,United Kingdo,Bachelor Degree,2024-03-06_12h15.57.550,CRL1h,2023.2.3,MacIntel,59.98080614,65e67470ae2fbf2172c317b2,65e85e5d0cf162c5c3cdf0f5,,,,,,,,,,,281.2857,0.7,281.9839,281.9839,283.7863,left,1,1.8017,,283.7863,284.7837,4,6,70,11,1,total,1,images/Ex4.jpg,left,training,hard,2,,,,,
,,,,,58c8497430c4cf0001ce9caf,001,43,male,United Kingdo,Bachelor Degree,2024-03-06_12h15.57.550,CRL1h,2023.2.3,MacIntel,59.98080614,65e67470ae2fbf2172c317b2,65e85e5d0cf162c5c3cdf0f5,,,,,,,,,,,284.7839,1,285.7865,285.7865,286.8066,left,0,1.0195,,286.8067,287.8024,4,7,71,4,1,total,1,images/Ex5.jpg,right,training,hard,2,,,,,
,,,,,58c8497430c4cf0001ce9caf,001,43,male,United Kingdo,Bachelor Degree,2024-03-06_12h15.57.550,CRL1h,2023.2.3,MacIntel,59.98080614,65e67470ae2fbf2172c317b2,65e85e5d0cf162c5c3cdf0f5,,,,,,,,,,,287.8025,0.7,288.5046,288.5046,288.9273,left,1,0.4221,,288.9273,289.9235,4,8,72,2,1,total,1,images/Ex3.jpg,left,training,hard,2,,,,,
,,,,,58c8497430c4cf0001ce9caf,001,43,male,United Kingdo,Bachelor Degree,2024-03-06_12h15.57.550,CRL1h,2023.2.3,MacIntel,59.98080614,65e67470ae2fbf2172c317b2,65e85e5d0cf162c5c3cdf0f5,,,,,,,,,,,289.9236,0.7,290.6202,290.6202,292.1078,right,0,1.487,,292.1078,293.1072,4,9,73,0,1,total,1,images/Ex1.jpg,left,training,hard,2,,,,,
,,,,,58c8497430c4cf0001ce9caf,001,43,male,United Kingdo,Bachelor Degree,2024-03-06_12h15.57.550,CRL1h,2023.2.3,MacIntel,59.98080614,65e67470ae2fbf2172c317b2,65e85e5d0cf162c5c3cdf0f5,,,,,,,,,,,293.1075,0.7,293.8018,293.8018,294.6488,left,0,0.8464,,294.6488,295.6507,4,10,74,15,1,total,1,images/Ex8.jpg,right,training,hard,2,,,,,
,,,,,58c8497430c4cf0001ce9caf,001,43,male,United Kingdo,Bachelor Degree,2024-03-06_12h15.57.550,CRL1h,2023.2.3,MacIntel,59.98080614,65e67470ae2fbf2172c317b2,65e85e5d0cf162c5c3cdf0f5,,,,,,,,,,,295.6508,1.1,296.743,296.743,297.5976,left,1,0.854,,297.5976,298.5932,4,11,75,9,1,total,1,images/Ex2.jpg,left,training,hard,2,,,,,
,,,,,58c8497430c4cf0001ce9caf,001,43,male,United Kingdo,Bachelor Degree,2024-03-06_12h15.57.550,CRL1h,2023.2.3,MacIntel,59.98080614,65e67470ae2fbf2172c317b2,65e85e5d0cf162c5c3cdf0f5,,,,,,,,,,,298.5934,1.3,299.8961,299.8962,300.9936,left,0,1.0965,,300.9936,301.9859,4,12,76,13,1,total,1,images/Ex6.jpg,right,training,hard,2,,,,,
,,,,,58c8497430c4cf0001ce9caf,001,43,male,United Kingdo,Bachelor Degree,2024-03-06_12h15.57.550,CRL1h,2023.2.3,MacIntel,59.98080614,65e67470ae2fbf2172c317b2,65e85e5d0cf162c5c3cdf0f5,,,,,,,,,,,301.9861,0.7,302.6847,302.6847,303.7689,left,0,1.0836,,303.7689,304.7619,4,13,77,6,1,total,1,images/Ex7.jpg,right,training,hard,2,,,,,
,,,,,58c8497430c4cf0001ce9caf,001,43,male,United Kingdo,Bachelor Degree,2024-03-06_12h15.57.550,CRL1h,2023.2.3,MacIntel,59.98080614,65e67470ae2fbf2172c317b2,65e85e5d0cf162c5c3cdf0f5,,,,,,,,,,,304.7622,0.5,305.2498,305.2498,305.9353,left,1,0.6848,,305.9353,306.9273,4,14,78,3,1,total,1,images/Ex4.jpg,left,training,hard,2,,,,,
,,,,,58c8497430c4cf0001ce9caf,001,43,male,United Kingdo,Bachelor Degree,2024-03-06_12h15.57.550,CRL1h,2023.2.3,MacIntel,59.98080614,65e67470ae2fbf2172c317b2,65e85e5d0cf162c5c3cdf0f5,,,,,,,,,,,306.9277,1.4,308.3204,308.3204,309.5407,right,1,1.2197,,309.5407,310.5292,4,15,79,7,1,total,1,images/Ex8.jpg,right,training,hard,2,,,,,
,,,,,58c8497430c4cf0001ce9caf,001,43,male,United Kingdo,Bachelor Degree,2024-03-06_12h15.57.550,CRL1h,2023.2.3,MacIntel,59.98080614,65e67470ae2fbf2172c317b2,65e85e5d0cf162c5c3cdf0f5,,,,,,,,,,,310.5296,1.4,311.9291,311.9292,312.8445,right,1,0.9148,,312.8446,313.8399,5,0,80,6,1,total,1,images/Ex7.jpg,right,training,hard,2,,,,,
,,,,,58c8497430c4cf0001ce9caf,001,43,male,United Kingdo,Bachelor Degree,2024-03-06_12h15.57.550,CRL1h,2023.2.3,MacIntel,59.98080614,65e67470ae2fbf2172c317b2,65e85e5d0cf162c5c3cdf0f5,,,,,,,,,,,313.8403,1.1,314.9283,314.9283,316.2454,left,1,1.3164,,316.2455,317.2458,5,1,81,3,1,total,1,images/Ex4.jpg,left,training,hard,2,,,,,
,,,,,58c8497430c4cf0001ce9caf,001,43,male,United Kingdo,Bachelor Degree,2024-03-06_12h15.57.550,CRL1h,2023.2.3,MacIntel,59.98080614,65e67470ae2fbf2172c317b2,65e85e5d0cf162c5c3cdf0f5,,,,,,,,,,,317.246,0.9,318.1403,318.1403,319.9302,left,1,1.7892,,319.9302,320.9317,5,2,82,9,1,total,1,images/Ex2.jpg,left,training,hard,2,,,,,
,,,,,58c8497430c4cf0001ce9caf,001,43,male,United Kingdo,Bachelor Degree,2024-03-06_12h15.57.550,CRL1h,2023.2.3,MacIntel,59.98080614,65e67470ae2fbf2172c317b2,65e85e5d0cf162c5c3cdf0f5,,,,,,,,,,,320.932,1.2,322.1313,322.1313,323.0437,right,1,0.9115,,323.0437,324.0325,5,3,83,13,1,total,1,images/Ex6.jpg,right,training,hard,2,,,,,
,,,,,58c8497430c4cf0001ce9caf,001,43,male,United Kingdo,Bachelor Degree,2024-03-06_12h15.57.550,CRL1h,2023.2.3,MacIntel,59.98080614,65e67470ae2fbf2172c317b2,65e85e5d0cf162c5c3cdf0f5,,,,,,,,,,,324.0328,1.4,325.4363,325.4363,326.7068,right,0,1.2698,,326.7068,327.7037,5,4,84,8,1,total,1,images/Ex1.jpg,left,training,hard,2,,,,,
,,,,,58c8497430c4cf0001ce9caf,001,43,male,United Kingdo,Bachelor Degree,2024-03-06_12h15.57.550,CRL1h,2023.2.3,MacIntel,59.98080614,65e67470ae2fbf2172c317b2,65e85e5d0cf162c5c3cdf0f5,,,,,,,,,,,327.704,1,328.6991,328.6991,329.7068,left,1,1.0069,,329.7068,330.6971,5,5,85,1,1,total,1,images/Ex2.jpg,left,training,hard,2,,,,,
,,,,,58c8497430c4cf0001ce9caf,001,43,male,United Kingdo,Bachelor Degree,2024-03-06_12h15.57.550,CRL1h,2023.2.3,MacIntel,59.98080614,65e67470ae2fbf2172c317b2,65e85e5d0cf162c5c3cdf0f5,,,,,,,,,,,330.6974,1.1,331.7991,331.7992,333.8482,left,1,2.0458,,333.8483,334.8514,5,6,86,2,1,total,1,images/Ex3.jpg,left,training,hard,2,,,,,
,,,,,58c8497430c4cf0001ce9caf,001,43,male,United Kingdo,Bachelor Degree,2024-03-06_12h15.57.550,CRL1h,2023.2.3,MacIntel,59.98080614,65e67470ae2fbf2172c317b2,65e85e5d0cf162c5c3cdf0f5,,,,,,,,,,,334.8517,1.4,336.242,336.242,337.6457,left,1,1.4031,,337.6457,338.6406,5,7,87,10,1,total,1,images/Ex3.jpg,left,training,hard,2,,,,,
,,,,,58c8497430c4cf0001ce9caf,001,43,male,United Kingdo,Bachelor Degree,2024-03-06_12h15.57.550,CRL1h,2023.2.3,MacIntel,59.98080614,65e67470ae2fbf2172c317b2,65e85e5d0cf162c5c3cdf0f5,,,,,,,,,,,338.641,1.5,340.1316,340.1317,341.0007,left,1,0.8658,,341.0007,341.9957,5,8,88,11,1,total,1,images/Ex4.jpg,left,training,hard,2,,,,,
,,,,,58c8497430c4cf0001ce9caf,001,43,male,United Kingdo,Bachelor Degree,2024-03-06_12h15.57.550,CRL1h,2023.2.3,MacIntel,59.98080614,65e67470ae2fbf2172c317b2,65e85e5d0cf162c5c3cdf0f5,,,,,,,,,,,341.996,0.6,342.5883,342.5883,343.6685,right,1,1.0794,,343.6685,344.6585,5,9,89,4,1,total,1,images/Ex5.jpg,right,training,hard,2,,,,,
,,,,,58c8497430c4cf0001ce9caf,001,43,male,United Kingdo,Bachelor Degree,2024-03-06_12h15.57.550,CRL1h,2023.2.3,MacIntel,59.98080614,65e67470ae2fbf2172c317b2,65e85e5d0cf162c5c3cdf0f5,,,,,,,,,,,344.6588,1.4,346.0524,346.0524,347.4847,left,0,1.4315,,347.4848,348.4759,5,10,90,15,1,total,1,images/Ex8.jpg,right,training,hard,2,,,,,
,,,,,58c8497430c4cf0001ce9caf,001,43,male,United Kingdo,Bachelor Degree,2024-03-06_12h15.57.550,CRL1h,2023.2.3,MacIntel,59.98080614,65e67470ae2fbf2172c317b2,65e85e5d0cf162c5c3cdf0f5,,,,,,,,,,,348.4761,0.7,349.179,349.179,350.085,left,0,0.9052,,350.085,351.0819,5,11,91,7,1,total,1,images/Ex8.jpg,right,training,hard,2,,,,,
,,,,,58c8497430c4cf0001ce9caf,001,43,male,United Kingdo,Bachelor Degree,2024-03-06_12h15.57.550,CRL1h,2023.2.3,MacIntel,59.98080614,65e67470ae2fbf2172c317b2,65e85e5d0cf162c5c3cdf0f5,,,,,,,,,,,351.0822,0.8,351.8757,351.8758,352.6802,left,0,0.8032,,352.6802,353.67,5,12,92,14,1,total,1,images/Ex7.jpg,right,training,hard,2,,,,,
,,,,,58c8497430c4cf0001ce9caf,001,43,male,United Kingdo,Bachelor Degree,2024-03-06_12h15.57.550,CRL1h,2023.2.3,MacIntel,59.98080614,65e67470ae2fbf2172c317b2,65e85e5d0cf162c5c3cdf0f5,,,,,,,,,,,353.6703,1.1,354.763,354.763,355.5762,left,0,0.8128,,355.5763,356.5651,5,13,93,12,1,total,1,images/Ex5.jpg,right,training,hard,2,,,,,
,,,,,58c8497430c4cf0001ce9caf,001,43,male,United Kingdo,Bachelor Degree,2024-03-06_12h15.57.550,CRL1h,2023.2.3,MacIntel,59.98080614,65e67470ae2fbf2172c317b2,65e85e5d0cf162c5c3cdf0f5,,,,,,,,,,,356.5654,0.6,357.1694,357.1694,357.9805,left,0,0.8103,,357.9805,358.9716,5,14,94,5,1,total,1,images/Ex6.jpg,right,training,hard,2,,,,,
,,,,,58c8497430c4cf0001ce9caf,001,43,male,United Kingdo,Bachelor Degree,2024-03-06_12h15.57.550,CRL1h,2023.2.3,MacIntel,59.98080614,65e67470ae2fbf2172c317b2,65e85e5d0cf162c5c3cdf0f5,,,,,,,,,,,358.972,1.3,360.2602,360.2602,361.1553,left,1,0.8943,,361.1553,362.1537,5,15,95,0,1,total,1,images/Ex1.jpg,left,training,hard,2,,,,,
,,,,,58c8497430c4cf0001ce9caf,001,43,male,United Kingdo,Bachelor Degree,2024-03-06_12h15.57.550,CRL1h,2023.2.3,MacIntel,59.98080614,65e67470ae2fbf2172c317b2,65e85e5d0cf162c5c3cdf0f5,,,,,,,,,,,362.154,1.4,363.553,363.553,364.8565,left,1,1.3029,,364.8565,365.8469,6,0,96,8,1,total,1,images/Ex1.jpg,left,training,hard,2,,,,,
,,,,,58c8497430c4cf0001ce9caf,001,43,male,United Kingdo,Bachelor Degree,2024-03-06_12h15.57.550,CRL1h,2023.2.3,MacIntel,59.98080614,65e67470ae2fbf2172c317b2,65e85e5d0cf162c5c3cdf0f5,,,,,,,,,,,365.8471,0.9,366.7456,366.7457,367.6085,right,1,0.8623,,367.6085,368.61,6,1,97,15,1,total,1,images/Ex8.jpg,right,training,hard,2,,,,,
,,,,,58c8497430c4cf0001ce9caf,001,43,male,United Kingdo,Bachelor Degree,2024-03-06_12h15.57.550,CRL1h,2023.2.3,MacIntel,59.98080614,65e67470ae2fbf2172c317b2,65e85e5d0cf162c5c3cdf0f5,,,,,,,,,,,368.6102,1.4,370.0084,370.0084,371.1667,right,0,1.1576,,371.1667,372.1617,6,2,98,9,1,total,1,images/Ex2.jpg,left,training,hard,2,,,,,
,,,,,58c8497430c4cf0001ce9caf,001,43,male,United Kingdo,Bachelor Degree,2024-03-06_12h15.57.550,CRL1h,2023.2.3,MacIntel,59.98080614,65e67470ae2fbf2172c317b2,65e85e5d0cf162c5c3cdf0f5,,,,,,,,,,,372.162,0.6,372.7521,372.7521,374.3004,right,1,1.5473,,374.3004,375.2892,6,3,99,13,1,total,1,images/Ex6.jpg,right,training,hard,2,,,,,
,,,,,58c8497430c4cf0001ce9caf,001,43,male,United Kingdo,Bachelor Degree,2024-03-06_12h15.57.550,CRL1h,2023.2.3,MacIntel,59.98080614,65e67470ae2fbf2172c317b2,65e85e5d0cf162c5c3cdf0f5,,,,,,,,,,,375.2895,1.2,376.481,376.4811,377.8411,right,0,1.3593,,377.8411,378.8327,6,4,100,10,1,total,1,images/Ex3.jpg,left,training,hard,2,,,,,
,,,,,58c8497430c4cf0001ce9caf,001,43,male,United Kingdo,Bachelor Degree,2024-03-06_12h15.57.550,CRL1h,2023.2.3,MacIntel,59.98080614,65e67470ae2fbf2172c317b2,65e85e5d0cf162c5c3cdf0f5,,,,,,,,,,,378.8329,0.7,379.5247,379.5247,380.599,left,0,1.0735,,380.5991,381.5921,6,5,101,5,1,total,1,images/Ex6.jpg,right,training,hard,2,,,,,
,,,,,58c8497430c4cf0001ce9caf,001,43,male,United Kingdo,Bachelor Degree,2024-03-06_12h15.57.550,CRL1h,2023.2.3,MacIntel,59.98080614,65e67470ae2fbf2172c317b2,65e85e5d0cf162c5c3cdf0f5,,,,,,,,,,,381.5922,1.3,382.8875,382.8876,383.9516,left,1,1.0625,,383.9516,384.9522,6,6,102,2,1,total,1,images/Ex3.jpg,left,training,hard,2,,,,,
,,,,,58c8497430c4cf0001ce9caf,001,43,male,United Kingdo,Bachelor Degree,2024-03-06_12h15.57.550,CRL1h,2023.2.3,MacIntel,59.98080614,65e67470ae2fbf2172c317b2,65e85e5d0cf162c5c3cdf0f5,,,,,,,,,,,384.9525,0.9,385.84,385.84,387.0938,right,1,1.2531,,387.0938,388.0886,6,7,103,12,1,total,1,images/Ex5.jpg,right,training,hard,2,,,,,
,,,,,58c8497430c4cf0001ce9caf,001,43,male,United Kingdo,Bachelor Degree,2024-03-06_12h15.57.550,CRL1h,2023.2.3,MacIntel,59.98080614,65e67470ae2fbf2172c317b2,65e85e5d0cf162c5c3cdf0f5,,,,,,,,,,,388.0888,1.2,389.2894,389.2895,390.7794,left,0,1.4893,,390.7795,391.7832,6,8,104,6,1,total,1,images/Ex7.jpg,right,training,hard,2,,,,,
,,,,,58c8497430c4cf0001ce9caf,001,43,male,United Kingdo,Bachelor Degree,2024-03-06_12h15.57.550,CRL1h,2023.2.3,MacIntel,59.98080614,65e67470ae2fbf2172c317b2,65e85e5d0cf162c5c3cdf0f5,,,,,,,,,,,391.7835,1.5,393.2808,393.2808,394.1594,left,1,0.8779,,394.1594,395.1595,6,9,105,0,1,total,1,images/Ex1.jpg,left,training,hard,2,,,,,
,,,,,58c8497430c4cf0001ce9caf,001,43,male,United Kingdo,Bachelor Degree,2024-03-06_12h15.57.550,CRL1h,2023.2.3,MacIntel,59.98080614,65e67470ae2fbf2172c317b2,65e85e5d0cf162c5c3cdf0f5,,,,,,,,,,,395.1599,0.9,396.0604,396.0604,396.8146,left,1,0.7535,,396.8146,397.8032,6,10,106,11,1,total,1,images/Ex4.jpg,left,training,hard,2,,,,,
,,,,,58c8497430c4cf0001ce9caf,001,43,male,United Kingdo,Bachelor Degree,2024-03-06_12h15.57.550,CRL1h,2023.2.3,MacIntel,59.98080614,65e67470ae2fbf2172c317b2,65e85e5d0cf162c5c3cdf0f5,,,,,,,,,,,397.8035,0.6,398.3985,398.3985,400.5021,right,1,2.103,,400.5022,401.4954,6,11,107,4,1,total,1,images/Ex5.jpg,right,training,hard,2,,,,,
,,,,,58c8497430c4cf0001ce9caf,001,43,male,United Kingdo,Bachelor Degree,2024-03-06_12h15.57.550,CRL1h,2023.2.3,MacIntel,59.98080614,65e67470ae2fbf2172c317b2,65e85e5d0cf162c5c3cdf0f5,,,,,,,,,,,401.4957,0.5,401.9967,401.9967,404.1949,right,1,2.1974,,404.1949,405.1839,6,12,108,7,1,total,1,images/Ex8.jpg,right,training,hard,2,,,,,
,,,,,58c8497430c4cf0001ce9caf,001,43,male,United Kingdo,Bachelor Degree,2024-03-06_12h15.57.550,CRL1h,2023.2.3,MacIntel,59.98080614,65e67470ae2fbf2172c317b2,65e85e5d0cf162c5c3cdf0f5,,,,,,,,,,,405.1842,1.5,406.688,406.688,408.0722,right,1,1.3837,,408.0722,409.0729,6,13,109,14,1,total,1,images/Ex7.jpg,right,training,hard,2,,,,,
,,,,,58c8497430c4cf0001ce9caf,001,43,male,United Kingdo,Bachelor Degree,2024-03-06_12h15.57.550,CRL1h,2023.2.3,MacIntel,59.98080614,65e67470ae2fbf2172c317b2,65e85e5d0cf162c5c3cdf0f5,,,,,,,,,,,409.0733,1,410.0742,410.0742,410.9111,left,1,0.8362,,410.9111,411.9098,6,14,110,3,1,total,1,images/Ex4.jpg,left,training,hard,2,,,,,
,,,,,58c8497430c4cf0001ce9caf,001,43,male,United Kingdo,Bachelor Degree,2024-03-06_12h15.57.550,CRL1h,2023.2.3,MacIntel,59.98080614,65e67470ae2fbf2172c317b2,65e85e5d0cf162c5c3cdf0f5,,,,,,,,,,,411.9101,0.5,412.409,412.4091,414.0839,right,0,1.6741,,414.0839,415.0761,6,15,111,1,1,total,1,images/Ex2.jpg,left,training,hard,2,,,,,
,,,,,58c8497430c4cf0001ce9caf,001,43,male,United Kingdo,Bachelor Degree,2024-03-06_12h15.57.550,CRL1h,2023.2.3,MacIntel,59.98080614,65e67470ae2fbf2172c317b2,65e85e5d0cf162c5c3cdf0f5,,,,,,,,,,,415.0764,1.1,416.1801,416.1801,417.8331,right,1,1.6523,,417.8332,418.8297,7,0,112,13,1,total,1,images/Ex6.jpg,right,training,hard,2,,,,,
,,,,,58c8497430c4cf0001ce9caf,001,43,male,United Kingdo,Bachelor Degree,2024-03-06_12h15.57.550,CRL1h,2023.2.3,MacIntel,59.98080614,65e67470ae2fbf2172c317b2,65e85e5d0cf162c5c3cdf0f5,,,,,,,,,,,418.8299,1.4,420.2335,420.2335,421.4051,right,1,1.1708,,421.4051,422.399,7,1,113,14,1,total,1,images/Ex7.jpg,right,training,hard,2,,,,,
,,,,,58c8497430c4cf0001ce9caf,001,43,male,United Kingdo,Bachelor Degree,2024-03-06_12h15.57.550,CRL1h,2023.2.3,MacIntel,59.98080614,65e67470ae2fbf2172c317b2,65e85e5d0cf162c5c3cdf0f5,,,,,,,,,,,422.3994,1.2,423.5993,423.5993,424.4543,left,1,0.8544,,424.4543,425.4544,7,2,114,11,1,total,1,images/Ex4.jpg,left,training,hard,2,,,,,
,,,,,58c8497430c4cf0001ce9caf,001,43,male,United Kingdo,Bachelor Degree,2024-03-06_12h15.57.550,CRL1h,2023.2.3,MacIntel,59.98080614,65e67470ae2fbf2172c317b2,65e85e5d0cf162c5c3cdf0f5,,,,,,,,,,,425.4547,0.6,426.0551,426.0552,428.0352,left,1,1.9794,,428.0352,429.0368,7,3,115,9,1,total,1,images/Ex2.jpg,left,training,hard,2,,,,,
,,,,,58c8497430c4cf0001ce9caf,001,43,male,United Kingdo,Bachelor Degree,2024-03-06_12h15.57.550,CRL1h,2023.2.3,MacIntel,59.98080614,65e67470ae2fbf2172c317b2,65e85e5d0cf162c5c3cdf0f5,,,,,,,,,,,429.0371,0.8,429.8383,429.8383,430.8054,right,1,0.9665,,430.8055,431.7952,7,4,116,7,1,total,1,images/Ex8.jpg,right,training,hard,2,,,,,
,,,,,58c8497430c4cf0001ce9caf,001,43,male,United Kingdo,Bachelor Degree,2024-03-06_12h15.57.550,CRL1h,2023.2.3,MacIntel,59.98080614,65e67470ae2fbf2172c317b2,65e85e5d0cf162c5c3cdf0f5,,,,,,,,,,,431.7955,0.5,432.2959,432.2959,433.7095,right,1,1.4132,,433.7095,434.7113,7,5,117,15,1,total,1,images/Ex8.jpg,right,training,hard,2,,,,,
,,,,,58c8497430c4cf0001ce9caf,001,43,male,United Kingdo,Bachelor Degree,2024-03-06_12h15.57.550,CRL1h,2023.2.3,MacIntel,59.98080614,65e67470ae2fbf2172c317b2,65e85e5d0cf162c5c3cdf0f5,,,,,,,,,,,434.7117,1.2,435.9119,435.9119,437.528,left,0,1.6153,,437.528,438.5164,7,6,118,12,1,total,1,images/Ex5.jpg,right,training,hard,2,,,,,
,,,,,58c8497430c4cf0001ce9caf,001,43,male,United Kingdo,Bachelor Degree,2024-03-06_12h15.57.550,CRL1h,2023.2.3,MacIntel,59.98080614,65e67470ae2fbf2172c317b2,65e85e5d0cf162c5c3cdf0f5,,,,,,,,,,,438.5166,1.1,439.6164,439.6164,440.8823,left,1,1.2651,,440.8824,441.8845,7,7,119,1,1,total,1,images/Ex2.jpg,left,training,hard,2,,,,,
,,,,,58c8497430c4cf0001ce9caf,001,43,male,United Kingdo,Bachelor Degree,2024-03-06_12h15.57.550,CRL1h,2023.2.3,MacIntel,59.98080614,65e67470ae2fbf2172c317b2,65e85e5d0cf162c5c3cdf0f5,,,,,,,,,,,441.8847,1.2,443.073,443.073,446.0084,left,1,2.9346,,446.0084,447.003,7,8,120,8,1,total,1,images/Ex1.jpg,left,training,hard,2,,,,,
,,,,,58c8497430c4cf0001ce9caf,001,43,male,United Kingdo,Bachelor Degree,2024-03-06_12h15.57.550,CRL1h,2023.2.3,MacIntel,59.98080614,65e67470ae2fbf2172c317b2,65e85e5d0cf162c5c3cdf0f5,,,,,,,,,,,447.0033,0.7,447.7023,447.7024,449.0393,left,1,1.3362,,449.0393,450.0348,7,9,121,2,1,total,1,images/Ex3.jpg,left,training,hard,2,,,,,
,,,,,58c8497430c4cf0001ce9caf,001,43,male,United Kingdo,Bachelor Degree,2024-03-06_12h15.57.550,CRL1h,2023.2.3,MacIntel,59.98080614,65e67470ae2fbf2172c317b2,65e85e5d0cf162c5c3cdf0f5,,,,,,,,,,,450.0351,1,451.0406,451.0406,453.2405,left,1,2.1994,,453.2405,454.2381,7,10,122,10,1,total,1,images/Ex3.jpg,left,training,hard,2,,,,,
,,,,,58c8497430c4cf0001ce9caf,001,43,male,United Kingdo,Bachelor Degree,2024-03-06_12h15.57.550,CRL1h,2023.2.3,MacIntel,59.98080614,65e67470ae2fbf2172c317b2,65e85e5d0cf162c5c3cdf0f5,,,,,,,,,,,454.2383,1,455.2271,455.2271,456.7691,left,1,1.5412,,456.7691,457.76,7,11,123,0,1,total,1,images/Ex1.jpg,left,training,hard,2,,,,,
,,,,,58c8497430c4cf0001ce9caf,001,43,male,United Kingdo,Bachelor Degree,2024-03-06_12h15.57.550,CRL1h,2023.2.3,MacIntel,59.98080614,65e67470ae2fbf2172c317b2,65e85e5d0cf162c5c3cdf0f5,,,,,,,,,,,457.7602,1,458.7498,458.7498,459.7629,right,1,1.0124,,459.7629,460.7547,7,12,124,4,1,total,1,images/Ex5.jpg,right,training,hard,2,,,,,
,,,,,58c8497430c4cf0001ce9caf,001,43,male,United Kingdo,Bachelor Degree,2024-03-06_12h15.57.550,CRL1h,2023.2.3,MacIntel,59.98080614,65e67470ae2fbf2172c317b2,65e85e5d0cf162c5c3cdf0f5,,,,,,,,,,,460.755,0.6,461.3545,461.3545,463.6528,left,0,2.2977,,463.6528,464.6494,7,13,125,5,1,total,1,images/Ex6.jpg,right,training,hard,2,,,,,
,,,,,58c8497430c4cf0001ce9caf,001,43,male,United Kingdo,Bachelor Degree,2024-03-06_12h15.57.550,CRL1h,2023.2.3,MacIntel,59.98080614,65e67470ae2fbf2172c317b2,65e85e5d0cf162c5c3cdf0f5,,,,,,,,,,,464.6496,1.5,466.1468,466.1468,467.8906,right,1,1.7432,,467.8906,468.8836,7,14,126,6,1,total,1,images/Ex7.jpg,right,training,hard,2,,,,,
,,,,,58c8497430c4cf0001ce9caf,001,43,male,United Kingdo,Bachelor Degree,2024-03-06_12h15.57.550,CRL1h,2023.2.3,MacIntel,59.98080614,65e67470ae2fbf2172c317b2,65e85e5d0cf162c5c3cdf0f5,,,,,,,,,,,468.8839,1.1,469.9859,469.986,470.8227,left,1,0.8361,,470.8227,471.812,7,15,127,3,1,total,1,images/Ex4.jpg,left,training,hard,2,,,,,
,,,,,58c8497430c4cf0001ce9caf,001,43,male,United Kingdo,Bachelor Degree,2024-03-06_12h15.57.550,CRL1h,2023.2.3,MacIntel,59.98080614,65e67470ae2fbf2172c317b2,65e85e5d0cf162c5c3cdf0f5,,,,,,,,,,,471.8153,1.2,473.0062,473.0063,473.8901,left,0,0.8832,,473.8901,474.8947,0,0,0,11,1,total,2,images/Ex4.jpg,right,reversed,hard,2,,,,,
,,,,,58c8497430c4cf0001ce9caf,001,43,male,United Kingdo,Bachelor Degree,2024-03-06_12h15.57.550,CRL1h,2023.2.3,MacIntel,59.98080614,65e67470ae2fbf2172c317b2,65e85e5d0cf162c5c3cdf0f5,,,,,,,,,,,474.895,0.9,475.7984,475.7985,477.4535,left,0,1.6541,,477.4535,478.4575,0,1,1,2,1,total,2,images/Ex3.jpg,right,reversed,hard,2,,,,,
,,,,,58c8497430c4cf0001ce9caf,001,43,male,United Kingdo,Bachelor Degree,2024-03-06_12h15.57.550,CRL1h,2023.2.3,MacIntel,59.98080614,65e67470ae2fbf2172c317b2,65e85e5d0cf162c5c3cdf0f5,,,,,,,,,,,478.4579,1.4,479.846,479.846,482.2099,left,0,2.363,,482.2099,483.2022,0,2,2,3,1,total,2,images/Ex4.jpg,right,reversed,hard,2,,,,,
,,,,,58c8497430c4cf0001ce9caf,001,43,male,United Kingdo,Bachelor Degree,2024-03-06_12h15.57.550,CRL1h,2023.2.3,MacIntel,59.98080614,65e67470ae2fbf2172c317b2,65e85e5d0cf162c5c3cdf0f5,,,,,,,,,,,483.2025,0.9,484.1012,484.1013,485.9024,left,1,1.8003,,485.9025,486.9022,0,3,3,13,1,total,2,images/Ex6.jpg,left,reversed,hard,2,,,,,
,,,,,58c8497430c4cf0001ce9caf,001,43,male,United Kingdo,Bachelor Degree,2024-03-06_12h15.57.550,CRL1h,2023.2.3,MacIntel,59.98080614,65e67470ae2fbf2172c317b2,65e85e5d0cf162c5c3cdf0f5,,,,,,,,,,,486.9025,1.3,488.2027,488.2028,489.8397,left,1,1.6364,,489.8398,490.8405,0,4,4,5,1,total,2,images/Ex6.jpg,left,reversed,hard,2,,,,,
,,,,,58c8497430c4cf0001ce9caf,001,43,male,United Kingdo,Bachelor Degree,2024-03-06_12h15.57.550,CRL1h,2023.2.3,MacIntel,59.98080614,65e67470ae2fbf2172c317b2,65e85e5d0cf162c5c3cdf0f5,,,,,,,,,,,490.8407,1.2,492.0407,492.0407,493.5538,right,1,1.5123,,493.5538,494.5474,0,5,5,10,1,total,2,images/Ex3.jpg,right,reversed,hard,2,,,,,
,,,,,58c8497430c4cf0001ce9caf,001,43,male,United Kingdo,Bachelor Degree,2024-03-06_12h15.57.550,CRL1h,2023.2.3,MacIntel,59.98080614,65e67470ae2fbf2172c317b2,65e85e5d0cf162c5c3cdf0f5,,,,,,,,,,,494.5475,1,495.5396,495.5396,496.5107,left,1,0.9704,,496.5107,497.5082,0,6,6,4,1,total,2,images/Ex5.jpg,left,reversed,hard,2,,,,,
,,,,,58c8497430c4cf0001ce9caf,001,43,male,United Kingdo,Bachelor Degree,2024-03-06_12h15.57.550,CRL1h,2023.2.3,MacIntel,59.98080614,65e67470ae2fbf2172c317b2,65e85e5d0cf162c5c3cdf0f5,,,,,,,,,,,497.5085,1.2,498.7085,498.7085,501.3989,right,1,2.6896,,501.399,502.3977,0,7,7,9,1,total,2,images/Ex2.jpg,right,reversed,hard,2,,,,,
,,,,,58c8497430c4cf0001ce9caf,001,43,male,United Kingdo,Bachelor Degree,2024-03-06_12h15.57.550,CRL1h,2023.2.3,MacIntel,59.98080614,65e67470ae2fbf2172c317b2,65e85e5d0cf162c5c3cdf0f5,,,,,,,,,,,502.3979,1.1,503.4941,503.4941,504.3101,right,1,0.8154,,504.3101,505.3075,0,8,8,1,1,total,2,images/Ex2.jpg,right,reversed,hard,2,,,,,
,,,,,58c8497430c4cf0001ce9caf,001,43,male,United Kingdo,Bachelor Degree,2024-03-06_12h15.57.550,CRL1h,2023.2.3,MacIntel,59.98080614,65e67470ae2fbf2172c317b2,65e85e5d0cf162c5c3cdf0f5,,,,,,,,,,,505.3077,0.7,506.0072,506.0073,507.5668,right,1,1.5588,,507.5668,508.5616,0,9,9,0,1,total,2,images/Ex1.jpg,right,reversed,hard,2,,,,,
,,,,,58c8497430c4cf0001ce9caf,001,43,male,United Kingdo,Bachelor Degree,2024-03-06_12h15.57.550,CRL1h,2023.2.3,MacIntel,59.98080614,65e67470ae2fbf2172c317b2,65e85e5d0cf162c5c3cdf0f5,,,,,,,,,,,508.5618,1.2,509.7624,509.7625,510.9631,right,0,1.2,,510.9631,511.9571,0,10,10,7,1,total,2,images/Ex8.jpg,left,reversed,hard,2,,,,,
,,,,,58c8497430c4cf0001ce9caf,001,43,male,United Kingdo,Bachelor Degree,2024-03-06_12h15.57.550,CRL1h,2023.2.3,MacIntel,59.98080614,65e67470ae2fbf2172c317b2,65e85e5d0cf162c5c3cdf0f5,,,,,,,,,,,511.9575,0.7,512.6583,512.6583,514.3471,left,1,1.6882,,514.3471,515.3423,0,11,11,14,1,total,2,images/Ex7.jpg,left,reversed,hard,2,,,,,
,,,,,58c8497430c4cf0001ce9caf,001,43,male,United Kingdo,Bachelor Degree,2024-03-06_12h15.57.550,CRL1h,2023.2.3,MacIntel,59.98080614,65e67470ae2fbf2172c317b2,65e85e5d0cf162c5c3cdf0f5,,,,,,,,,,,515.3424,1,516.3384,516.3385,517.0819,left,1,0.743,,517.0819,518.0728,0,12,12,6,1,total,2,images/Ex7.jpg,left,reversed,hard,2,,,,,
,,,,,58c8497430c4cf0001ce9caf,001,43,male,United Kingdo,Bachelor Degree,2024-03-06_12h15.57.550,CRL1h,2023.2.3,MacIntel,59.98080614,65e67470ae2fbf2172c317b2,65e85e5d0cf162c5c3cdf0f5,,,,,,,,,,,518.0731,0.5,518.5724,518.5725,519.9973,right,0,1.4239,,519.9974,520.9919,0,13,13,15,1,total,2,images/Ex8.jpg,left,reversed,hard,2,,,,,
,,,,,58c8497430c4cf0001ce9caf,001,43,male,United Kingdo,Bachelor Degree,2024-03-06_12h15.57.550,CRL1h,2023.2.3,MacIntel,59.98080614,65e67470ae2fbf2172c317b2,65e85e5d0cf162c5c3cdf0f5,,,,,,,,,,,520.9921,0.8,521.7899,521.79,524.1032,left,1,2.3106,,524.1033,525.0974,0,14,14,12,1,total,2,images/Ex5.jpg,left,reversed,hard,2,,,,,
,,,,,58c8497430c4cf0001ce9caf,001,43,male,United Kingdo,Bachelor Degree,2024-03-06_12h15.57.550,CRL1h,2023.2.3,MacIntel,59.98080614,65e67470ae2fbf2172c317b2,65e85e5d0cf162c5c3cdf0f5,,,,,,,,,,,525.0977,0.9,525.987,525.987,527.0946,right,1,1.1069,,527.0946,528.0984,0,15,15,8,1,total,2,images/Ex1.jpg,right,reversed,hard,2,,,,,
,,,,,58c8497430c4cf0001ce9caf,001,43,male,United Kingdo,Bachelor Degree,2024-03-06_12h15.57.550,CRL1h,2023.2.3,MacIntel,59.98080614,65e67470ae2fbf2172c317b2,65e85e5d0cf162c5c3cdf0f5,,,,,,,,,,,528.0989,1.5,529.5966,529.5966,530.8758,left,1,1.2783,,530.8758,531.8657,1,0,16,14,1,total,2,images/Ex7.jpg,left,reversed,hard,2,,,,,
,,,,,58c8497430c4cf0001ce9caf,001,43,male,United Kingdo,Bachelor Degree,2024-03-06_12h15.57.550,CRL1h,2023.2.3,MacIntel,59.98080614,65e67470ae2fbf2172c317b2,65e85e5d0cf162c5c3cdf0f5,,,,,,,,,,,531.866,1.2,533.0677,533.0677,534.9426,right,1,1.8742,,534.9426,535.9397,1,1,17,11,1,total,2,images/Ex4.jpg,right,reversed,hard,2,,,,,
,,,,,58c8497430c4cf0001ce9caf,001,43,male,United Kingdo,Bachelor Degree,2024-03-06_12h15.57.550,CRL1h,2023.2.3,MacIntel,59.98080614,65e67470ae2fbf2172c317b2,65e85e5d0cf162c5c3cdf0f5,,,,,,,,,,,535.9401,1.4,537.3366,537.3366,537.8931,left,1,0.5559,,537.8932,538.8862,1,2,18,12,1,total,2,images/Ex5.jpg,left,reversed,hard,2,,,,,
,,,,,58c8497430c4cf0001ce9caf,001,43,male,United Kingdo,Bachelor Degree,2024-03-06_12h15.57.550,CRL1h,2023.2.3,MacIntel,59.98080614,65e67470ae2fbf2172c317b2,65e85e5d0cf162c5c3cdf0f5,,,,,,,,,,,538.8865,0.5,539.3871,539.3871,540.8651,left,1,1.4774,,540.8651,541.8682,1,3,19,7,1,total,2,images/Ex8.jpg,left,reversed,hard,2,,,,,
,,,,,58c8497430c4cf0001ce9caf,001,43,male,United Kingdo,Bachelor Degree,2024-03-06_12h15.57.550,CRL1h,2023.2.3,MacIntel,59.98080614,65e67470ae2fbf2172c317b2,65e85e5d0cf162c5c3cdf0f5,,,,,,,,,,,541.8684,1,542.869,542.8691,543.999,right,1,1.1294,,543.999,545.0016,1,4,20,2,1,total,2,images/Ex3.jpg,right,reversed,hard,2,,,,,
,,,,,58c8497430c4cf0001ce9caf,001,43,male,United Kingdo,Bachelor Degree,2024-03-06_12h15.57.550,CRL1h,2023.2.3,MacIntel,59.98080614,65e67470ae2fbf2172c317b2,65e85e5d0cf162c5c3cdf0f5,,,,,,,,,,,545.002,0.8,545.7958,545.7958,547.3797,left,1,1.5832,,547.3797,548.3784,1,5,21,6,1,total,2,images/Ex7.jpg,left,reversed,hard,2,,,,,
,,,,,58c8497430c4cf0001ce9caf,001,43,male,United Kingdo,Bachelor Degree,2024-03-06_12h15.57.550,CRL1h,2023.2.3,MacIntel,59.98080614,65e67470ae2fbf2172c317b2,65e85e5d0cf162c5c3cdf0f5,,,,,,,,,,,548.3786,1,549.3772,549.3772,550.4766,right,1,1.0987,,550.4766,551.4757,1,6,22,8,1,total,2,images/Ex1.jpg,right,reversed,hard,2,,,,,
,,,,,58c8497430c4cf0001ce9caf,001,43,male,United Kingdo,Bachelor Degree,2024-03-06_12h15.57.550,CRL1h,2023.2.3,MacIntel,59.98080614,65e67470ae2fbf2172c317b2,65e85e5d0cf162c5c3cdf0f5,,,,,,,,,,,551.4759,1,552.4783,552.4783,553.4579,right,1,0.9789,,553.4579,554.4461,1,7,23,3,1,total,2,images/Ex4.jpg,right,reversed,hard,2,,,,,
,,,,,58c8497430c4cf0001ce9caf,001,43,male,United Kingdo,Bachelor Degree,2024-03-06_12h15.57.550,CRL1h,2023.2.3,MacIntel,59.98080614,65e67470ae2fbf2172c317b2,65e85e5d0cf162c5c3cdf0f5,,,,,,,,,,,554.4463,1.3,555.736,555.736,557.7635,left,1,2.0265,,557.7635,558.7643,1,8,24,5,1,total,2,images/Ex6.jpg,left,reversed,hard,2,,,,,
,,,,,58c8497430c4cf0001ce9caf,001,43,male,United Kingdo,Bachelor Degree,2024-03-06_12h15.57.550,CRL1h,2023.2.3,MacIntel,59.98080614,65e67470ae2fbf2172c317b2,65e85e5d0cf162c5c3cdf0f5,,,,,,,,,,,558.7645,0.6,559.3675,559.3676,561.1397,left,0,1.7714,,561.1398,562.1321,1,9,25,1,1,total,2,images/Ex2.jpg,right,reversed,hard,2,,,,,
,,,,,58c8497430c4cf0001ce9caf,001,43,male,United Kingdo,Bachelor Degree,2024-03-06_12h15.57.550,CRL1h,2023.2.3,MacIntel,59.98080614,65e67470ae2fbf2172c317b2,65e85e5d0cf162c5c3cdf0f5,,,,,,,,,,,562.1325,1.3,563.4351,563.4352,564.3679,left,1,0.9321,,564.3679,565.3596,1,10,26,4,1,total,2,images/Ex5.jpg,left,reversed,hard,2,,,,,
,,,,,58c8497430c4cf0001ce9caf,001,43,male,United Kingdo,Bachelor Degree,2024-03-06_12h15.57.550,CRL1h,2023.2.3,MacIntel,59.98080614,65e67470ae2fbf2172c317b2,65e85e5d0cf162c5c3cdf0f5,,,,,,,,,,,565.3598,1.2,566.5534,566.5534,567.389,right,1,0.8346,,567.389,568.3903,1,11,27,9,1,total,2,images/Ex2.jpg,right,reversed,hard,2,,,,,
,,,,,58c8497430c4cf0001ce9caf,001,43,male,United Kingdo,Bachelor Degree,2024-03-06_12h15.57.550,CRL1h,2023.2.3,MacIntel,59.98080614,65e67470ae2fbf2172c317b2,65e85e5d0cf162c5c3cdf0f5,,,,,,,,,,,568.3905,0.6,568.9884,568.9884,570.2889,right,0,1.2997,,570.2889,571.2852,1,12,28,13,1,total,2,images/Ex6.jpg,left,reversed,hard,2,,,,,
,,,,,58c8497430c4cf0001ce9caf,001,43,male,United Kingdo,Bachelor Degree,2024-03-06_12h15.57.550,CRL1h,2023.2.3,MacIntel,59.98080614,65e67470ae2fbf2172c317b2,65e85e5d0cf162c5c3cdf0f5,,,,,,,,,,,571.2854,0.9,572.1753,572.1754,573.1914,right,1,1.0155,,573.1914,574.1901,1,13,29,0,1,total,2,images/Ex1.jpg,right,reversed,hard,2,,,,,
,,,,,58c8497430c4cf0001ce9caf,001,43,male,United Kingdo,Bachelor Degree,2024-03-06_12h15.57.550,CRL1h,2023.2.3,MacIntel,59.98080614,65e67470ae2fbf2172c317b2,65e85e5d0cf162c5c3cdf0f5,,,,,,,,,,,574.1903,1,575.1828,575.1828,576.7837,left,1,1.6003,,576.7837,577.7778,1,14,30,15,1,total,2,images/Ex8.jpg,left,reversed,hard,2,,,,,
,,,,,58c8497430c4cf0001ce9caf,001,43,male,United Kingdo,Bachelor Degree,2024-03-06_12h15.57.550,CRL1h,2023.2.3,MacIntel,59.98080614,65e67470ae2fbf2172c317b2,65e85e5d0cf162c5c3cdf0f5,,,,,,,,,,,577.778,0.5,578.2738,578.2738,580.0796,left,0,1.8051,,580.0796,581.0758,1,15,31,10,1,total,2,images/Ex3.jpg,right,reversed,hard,2,,,,,
,,,,,58c8497430c4cf0001ce9caf,001,43,male,United Kingdo,Bachelor Degree,2024-03-06_12h15.57.550,CRL1h,2023.2.3,MacIntel,59.98080614,65e67470ae2fbf2172c317b2,65e85e5d0cf162c5c3cdf0f5,,,,,,,,,,,581.0762,0.7,581.7757,581.7757,584.1621,left,0,2.3857,,584.1621,585.1545,2,0,32,9,1,total,2,images/Ex2.jpg,right,reversed,hard,2,,,,,
,,,,,58c8497430c4cf0001ce9caf,001,43,male,United Kingdo,Bachelor Degree,2024-03-06_12h15.57.550,CRL1h,2023.2.3,MacIntel,59.98080614,65e67470ae2fbf2172c317b2,65e85e5d0cf162c5c3cdf0f5,,,,,,,,,,,585.1548,0.8,585.9539,585.9539,587.6407,left,1,1.6861,,587.6407,588.6417,2,1,33,4,1,total,2,images/Ex5.jpg,left,reversed,hard,2,,,,,
,,,,,58c8497430c4cf0001ce9caf,001,43,male,United Kingdo,Bachelor Degree,2024-03-06_12h15.57.550,CRL1h,2023.2.3,MacIntel,59.98080614,65e67470ae2fbf2172c317b2,65e85e5d0cf162c5c3cdf0f5,,,,,,,,,,,588.6421,0.9,589.5385,589.5385,590.6422,left,1,1.1031,,590.6422,591.6435,2,2,34,6,1,total,2,images/Ex7.jpg,left,reversed,hard,2,,,,,
,,,,,58c8497430c4cf0001ce9caf,001,43,male,United Kingdo,Bachelor Degree,2024-03-06_12h15.57.550,CRL1h,2023.2.3,MacIntel,59.98080614,65e67470ae2fbf2172c317b2,65e85e5d0cf162c5c3cdf0f5,,,,,,,,,,,591.6437,0.7,592.3435,592.3435,593.3823,left,0,1.0382,,593.3824,594.3785,2,3,35,1,1,total,2,images/Ex2.jpg,right,reversed,hard,2,,,,,
,,,,,58c8497430c4cf0001ce9caf,001,43,male,United Kingdo,Bachelor Degree,2024-03-06_12h15.57.550,CRL1h,2023.2.3,MacIntel,59.98080614,65e67470ae2fbf2172c317b2,65e85e5d0cf162c5c3cdf0f5,,,,,,,,,,,594.3787,1,595.3753,595.3754,596.3642,right,1,0.9881,,596.3642,597.365,2,4,36,0,1,total,2,images/Ex1.jpg,right,reversed,hard,2,,,,,
,,,,,58c8497430c4cf0001ce9caf,001,43,male,United Kingdo,Bachelor Degree,2024-03-06_12h15.57.550,CRL1h,2023.2.3,MacIntel,59.98080614,65e67470ae2fbf2172c317b2,65e85e5d0cf162c5c3cdf0f5,,,,,,,,,,,597.3652,1.4,598.7653,598.7653,599.9085,right,1,1.1424,,599.9085,600.9059,2,5,37,3,1,total,2,images/Ex4.jpg,right,reversed,hard,2,,,,,
,,,,,58c8497430c4cf0001ce9caf,001,43,male,United Kingdo,Bachelor Degree,2024-03-06_12h15.57.550,CRL1h,2023.2.3,MacIntel,59.98080614,65e67470ae2fbf2172c317b2,65e85e5d0cf162c5c3cdf0f5,,,,,,,,,,,600.9061,0.7,601.5981,601.5982,604.0129,left,0,2.4139,,604.0129,605.0036,2,6,38,10,1,total,2,images/Ex3.jpg,right,reversed,hard,2,,,,,
,,,,,58c8497430c4cf0001ce9caf,001,43,male,United Kingdo,Bachelor Degree,2024-03-06_12h15.57.550,CRL1h,2023.2.3,MacIntel,59.98080614,65e67470ae2fbf2172c317b2,65e85e5d0cf162c5c3cdf0f5,,,,,,,,,,,605.0038,0.8,605.8005,605.8005,606.8777,right,1,1.0764,,606.8778,607.8795,2,7,39,11,1,total,2,images/Ex4.jpg,right,reversed,hard,2,,,,,
,,,,,58c8497430c4cf0001ce9caf,001,43,male,United Kingdo,Bachelor Degree,2024-03-06_12h15.57.550,CRL1h,2023.2.3,MacIntel,59.98080614,65e67470ae2fbf2172c317b2,65e85e5d0cf162c5c3cdf0f5,,,,,,,,,,,607.8799,1.2,609.0768,609.0769,611.2099,left,1,2.1323,,611.2099,612.1986,2,8,40,12,1,total,2,images/Ex5.jpg,left,reversed,hard,2,,,,,
,,,,,58c8497430c4cf0001ce9caf,001,43,male,United Kingdo,Bachelor Degree,2024-03-06_12h15.57.550,CRL1h,2023.2.3,MacIntel,59.98080614,65e67470ae2fbf2172c317b2,65e85e5d0cf162c5c3cdf0f5,,,,,,,,,,,612.1989,0.6,612.799,612.7991,613.839,right,0,1.0392,,613.839,614.8363,2,9,41,15,1,total,2,images/Ex8.jpg,left,reversed,hard,2,,,,,
,,,,,58c8497430c4cf0001ce9caf,001,43,male,United Kingdo,Bachelor Degree,2024-03-06_12h15.57.550,CRL1h,2023.2.3,MacIntel,59.98080614,65e67470ae2fbf2172c317b2,65e85e5d0cf162c5c3cdf0f5,,,,,,,,,,,614.8366,1,615.8298,615.8299,617.0572,right,1,1.2231,,617.0573,618.05,2,10,42,2,1,total,2,images/Ex3.jpg,right,reversed,hard,2,,,,,
,,,,,58c8497430c4cf0001ce9caf,001,43,male,United Kingdo,Bachelor Degree,2024-03-06_12h15.57.550,CRL1h,2023.2.3,MacIntel,59.98080614,65e67470ae2fbf2172c317b2,65e85e5d0cf162c5c3cdf0f5,,,,,,,,,,,618.0503,0.6,618.6405,618.6406,620.8654,left,1,2.2242,,620.8654,621.8582,2,11,43,13,1,total,2,images/Ex6.jpg,left,reversed,hard,2,,,,,
,,,,,58c8497430c4cf0001ce9caf,001,43,male,United Kingdo,Bachelor Degree,2024-03-06_12h15.57.550,CRL1h,2023.2.3,MacIntel,59.98080614,65e67470ae2fbf2172c317b2,65e85e5d0cf162c5c3cdf0f5,,,,,,,,,,,621.8585,0.8,622.6472,622.6472,624.867,right,1,2.2191,,624.867,625.8664,2,12,44,8,1,total,2,images/Ex1.jpg,right,reversed,hard,2,,,,,
,,,,,58c8497430c4cf0001ce9caf,001,43,male,United Kingdo,Bachelor Degree,2024-03-06_12h15.57.550,CRL1h,2023.2.3,MacIntel,59.98080614,65e67470ae2fbf2172c317b2,65e85e5d0cf162c5c3cdf0f5,,,,,,,,,,,625.8666,0.7,626.5691,626.5691,628.324,left,1,1.7541,,628.324,629.3227,2,13,45,5,1,total,2,images/Ex6.jpg,left,reversed,hard,2,,,,,
,,,,,58c8497430c4cf0001ce9caf,001,43,male,United Kingdo,Bachelor Degree,2024-03-06_12h15.57.550,CRL1h,2023.2.3,MacIntel,59.98080614,65e67470ae2fbf2172c317b2,65e85e5d0cf162c5c3cdf0f5,,,,,,,,,,,629.3231,1.1,630.4249,630.425,632.5621,left,1,2.1355,,632.5621,633.5608,2,14,46,7,1,total,2,images/Ex8.jpg,left,reversed,hard,2,,,,,
,,,,,58c8497430c4cf0001ce9caf,001,43,male,United Kingdo,Bachelor Degree,2024-03-06_12h15.57.550,CRL1h,2023.2.3,MacIntel,59.98080614,65e67470ae2fbf2172c317b2,65e85e5d0cf162c5c3cdf0f5,,,,,,,,,,,633.5611,1.3,634.8548,634.8548,636.5418,left,1,1.6863,,636.5418,637.5296,2,15,47,14,1,total,2,images/Ex7.jpg,left,reversed,hard,2,,,,,
,,,,,58c8497430c4cf0001ce9caf,001,43,male,United Kingdo,Bachelor Degree,2024-03-06_12h15.57.550,CRL1h,2023.2.3,MacIntel,59.98080614,65e67470ae2fbf2172c317b2,65e85e5d0cf162c5c3cdf0f5,,,,,,,,,,,637.53,0.6,638.121,638.1211,639.2002,right,1,1.0784,,639.2002,640.1932,3,0,48,9,1,total,2,images/Ex2.jpg,right,reversed,hard,2,,,,,
,,,,,58c8497430c4cf0001ce9caf,001,43,male,United Kingdo,Bachelor Degree,2024-03-06_12h15.57.550,CRL1h,2023.2.3,MacIntel,59.98080614,65e67470ae2fbf2172c317b2,65e85e5d0cf162c5c3cdf0f5,,,,,,,,,,,640.1935,1,641.1965,641.1966,642.0022,left,0,0.8047,,642.0022,642.9957,3,1,49,1,1,total,2,images/Ex2.jpg,right,reversed,hard,2,,,,,
,,,,,58c8497430c4cf0001ce9caf,001,43,male,United Kingdo,Bachelor Degree,2024-03-06_12h15.57.550,CRL1h,2023.2.3,MacIntel,59.98080614,65e67470ae2fbf2172c317b2,65e85e5d0cf162c5c3cdf0f5,,,,,,,,,,,642.996,1.1,644.0912,644.0912,645.8342,right,1,1.7423,,645.8342,646.8242,3,2,50,2,1,total,2,images/Ex3.jpg,right,reversed,hard,2,,,,,
,,,,,58c8497430c4cf0001ce9caf,001,43,male,United Kingdo,Bachelor Degree,2024-03-06_12h15.57.550,CRL1h,2023.2.3,MacIntel,59.98080614,65e67470ae2fbf2172c317b2,65e85e5d0cf162c5c3cdf0f5,,,,,,,,,,,646.8246,1.3,648.1293,648.1293,649.4903,left,1,1.3603,,649.4903,650.4827,3,3,51,12,1,total,2,images/Ex5.jpg,left,reversed,hard,2,,,,,
,,,,,58c8497430c4cf0001ce9caf,001,43,male,United Kingdo,Bachelor Degree,2024-03-06_12h15.57.550,CRL1h,2023.2.3,MacIntel,59.98080614,65e67470ae2fbf2172c317b2,65e85e5d0cf162c5c3cdf0f5,,,,,,,,,,,650.483,0.9,651.3767,651.3768,652.5358,right,1,1.1583,,652.5359,653.5238,3,4,52,3,1,total,2,images/Ex4.jpg,right,reversed,hard,2,,,,,
,,,,,58c8497430c4cf0001ce9caf,001,43,male,United Kingdo,Bachelor Degree,2024-03-06_12h15.57.550,CRL1h,2023.2.3,MacIntel,59.98080614,65e67470ae2fbf2172c317b2,65e85e5d0cf162c5c3cdf0f5,,,,,,,,,,,653.524,0.5,654.0214,654.0215,655.5785,left,1,1.5563,,655.5785,656.5771,3,5,53,14,1,total,2,images/Ex7.jpg,left,reversed,hard,2,,,,,
,,,,,58c8497430c4cf0001ce9caf,001,43,male,United Kingdo,Bachelor Degree,2024-03-06_12h15.57.550,CRL1h,2023.2.3,MacIntel,59.98080614,65e67470ae2fbf2172c317b2,65e85e5d0cf162c5c3cdf0f5,,,,,,,,,,,656.5773,0.6,657.1802,657.1802,658.6314,left,1,1.4506,,658.6315,659.6319,3,6,54,15,1,total,2,images/Ex8.jpg,left,reversed,hard,2,,,,,
,,,,,58c8497430c4cf0001ce9caf,001,43,male,United Kingdo,Bachelor Degree,2024-03-06_12h15.57.550,CRL1h,2023.2.3,MacIntel,59.98080614,65e67470ae2fbf2172c317b2,65e85e5d0cf162c5c3cdf0f5,,,,,,,,,,,659.6322,0.5,660.1243,660.1243,661.7118,left,1,1.5869,,661.7118,662.7013,3,7,55,6,1,total,2,images/Ex7.jpg,left,reversed,hard,2,,,,,
,,,,,58c8497430c4cf0001ce9caf,001,43,male,United Kingdo,Bachelor Degree,2024-03-06_12h15.57.550,CRL1h,2023.2.3,MacIntel,59.98080614,65e67470ae2fbf2172c317b2,65e85e5d0cf162c5c3cdf0f5,,,,,,,,,,,662.7016,0.7,663.3913,663.3914,664.2519,right,0,0.8598,,664.2519,665.2497,3,8,56,4,1,total,2,images/Ex5.jpg,left,reversed,hard,2,,,,,
,,,,,58c8497430c4cf0001ce9caf,001,43,male,United Kingdo,Bachelor Degree,2024-03-06_12h15.57.550,CRL1h,2023.2.3,MacIntel,59.98080614,65e67470ae2fbf2172c317b2,65e85e5d0cf162c5c3cdf0f5,,,,,,,,,,,665.2499,1.3,666.5496,666.5497,668.1349,left,1,1.5845,,668.1349,669.1357,3,9,57,7,1,total,2,images/Ex8.jpg,left,reversed,hard,2,,,,,
,,,,,58c8497430c4cf0001ce9caf,001,43,male,United Kingdo,Bachelor Degree,2024-03-06_12h15.57.550,CRL1h,2023.2.3,MacIntel,59.98080614,65e67470ae2fbf2172c317b2,65e85e5d0cf162c5c3cdf0f5,,,,,,,,,,,669.1361,0.6,669.7331,669.7331,672.7828,left,1,3.049,,672.7828,673.7824,3,10,58,13,1,total,2,images/Ex6.jpg,left,reversed,hard,2,,,,,
,,,,,58c8497430c4cf0001ce9caf,001,43,male,United Kingdo,Bachelor Degree,2024-03-06_12h15.57.550,CRL1h,2023.2.3,MacIntel,59.98080614,65e67470ae2fbf2172c317b2,65e85e5d0cf162c5c3cdf0f5,,,,,,,,,,,673.7828,0.8,674.5873,674.5873,675.9705,left,0,1.3823,,675.9705,676.9676,3,11,59,0,1,total,2,images/Ex1.jpg,right,reversed,hard,2,,,,,
,,,,,58c8497430c4cf0001ce9caf,001,43,male,United Kingdo,Bachelor Degree,2024-03-06_12h15.57.550,CRL1h,2023.2.3,MacIntel,59.98080614,65e67470ae2fbf2172c317b2,65e85e5d0cf162c5c3cdf0f5,,,,,,,,,,,676.9679,1.5,678.4655,678.4655,679.8093,right,0,1.3428,,679.8094,680.8117,3,12,60,5,1,total,2,images/Ex6.jpg,left,reversed,hard,2,,,,,
,,,,,58c8497430c4cf0001ce9caf,001,43,male,United Kingdo,Bachelor Degree,2024-03-06_12h15.57.550,CRL1h,2023.2.3,MacIntel,59.98080614,65e67470ae2fbf2172c317b2,65e85e5d0cf162c5c3cdf0f5,,,,,,,,,,,680.812,0.8,681.606,681.606,682.7698,right,1,1.1632,,682.7698,683.7719,3,13,61,10,1,total,2,images/Ex3.jpg,right,reversed,hard,2,,,,,
,,,,,58c8497430c4cf0001ce9caf,001,43,male,United Kingdo,Bachelor Degree,2024-03-06_12h15.57.550,CRL1h,2023.2.3,MacIntel,59.98080614,65e67470ae2fbf2172c317b2,65e85e5d0cf162c5c3cdf0f5,,,,,,,,,,,683.7721,0.5,684.2763,684.2763,685.8885,right,1,1.6116,,685.8886,686.8892,3,14,62,8,1,total,2,images/Ex1.jpg,right,reversed,hard,2,,,,,
,,,,,58c8497430c4cf0001ce9caf,001,43,male,United Kingdo,Bachelor Degree,2024-03-06_12h15.57.550,CRL1h,2023.2.3,MacIntel,59.98080614,65e67470ae2fbf2172c317b2,65e85e5d0cf162c5c3cdf0f5,,,,,,,,,,,686.8894,0.9,687.7825,687.7825,689.0355,right,1,1.2523,,689.0355,690.04,3,15,63,11,1,total,2,images/Ex4.jpg,right,reversed,hard,2,,,,,
,,,,,58c8497430c4cf0001ce9caf,001,43,male,United Kingdo,Bachelor Degree,2024-03-06_12h15.57.550,CRL1h,2023.2.3,MacIntel,59.98080614,65e67470ae2fbf2172c317b2,65e85e5d0cf162c5c3cdf0f5,,,,,,690.0407,694.1953,space,4.138,,694.1993,1.2,695.4007,695.4007,697.8258,left,1,2.4244,,697.8258,698.8223,0,0,0,8,1,partial,1,images/Ex9.jpg,left,training,hard,2,,,,,
,,,,,58c8497430c4cf0001ce9caf,001,43,male,United Kingdo,Bachelor Degree,2024-03-06_12h15.57.550,CRL1h,2023.2.3,MacIntel,59.98080614,65e67470ae2fbf2172c317b2,65e85e5d0cf162c5c3cdf0f5,,,,,,,,,,,698.8225,1.4,700.2219,700.2219,701.6852,right,0,1.4627,,701.6852,702.674,0,1,1,9,1,partial,1,images/Ex10.jpg,left,training,hard,2,,,,,
,,,,,58c8497430c4cf0001ce9caf,001,43,male,United Kingdo,Bachelor Degree,2024-03-06_12h15.57.550,CRL1h,2023.2.3,MacIntel,59.98080614,65e67470ae2fbf2172c317b2,65e85e5d0cf162c5c3cdf0f5,,,,,,,,,,,702.6742,0.9,703.5722,703.5722,704.996,right,1,1.4231,,704.996,705.9927,0,2,2,14,1,partial,1,images/Ex15.jpg,right,training,hard,2,,,,,
,,,,,58c8497430c4cf0001ce9caf,001,43,male,United Kingdo,Bachelor Degree,2024-03-06_12h15.57.550,CRL1h,2023.2.3,MacIntel,59.98080614,65e67470ae2fbf2172c317b2,65e85e5d0cf162c5c3cdf0f5,,,,,,,,,,,705.993,0.7,706.6948,706.6948,708.4814,left,0,1.7858,,708.4814,709.4723,0,3,3,7,1,partial,1,images/Ex16.jpg,right,training,hard,2,,,,,
,,,,,58c8497430c4cf0001ce9caf,001,43,male,United Kingdo,Bachelor Degree,2024-03-06_12h15.57.550,CRL1h,2023.2.3,MacIntel,59.98080614,65e67470ae2fbf2172c317b2,65e85e5d0cf162c5c3cdf0f5,,,,,,,,,,,709.4726,0.5,709.9694,709.9695,711.0984,right,0,1.128,,711.0984,712.0958,0,4,4,10,1,partial,1,images/Ex11.jpg,left,training,hard,2,,,,,
,,,,,58c8497430c4cf0001ce9caf,001,43,male,United Kingdo,Bachelor Degree,2024-03-06_12h15.57.550,CRL1h,2023.2.3,MacIntel,59.98080614,65e67470ae2fbf2172c317b2,65e85e5d0cf162c5c3cdf0f5,,,,,,,,,,,712.096,1.3,713.384,713.384,715.019,left,1,1.6343,,715.019,716.0171,0,5,5,0,1,partial,1,images/Ex9.jpg,left,training,hard,2,,,,,
,,,,,58c8497430c4cf0001ce9caf,001,43,male,United Kingdo,Bachelor Degree,2024-03-06_12h15.57.550,CRL1h,2023.2.3,MacIntel,59.98080614,65e67470ae2fbf2172c317b2,65e85e5d0cf162c5c3cdf0f5,,,,,,,,,,,716.0174,0.6,716.6134,716.6134,718.2736,left,0,1.6596,,718.2736,719.2714,0,6,6,4,1,partial,1,images/Ex13.jpg,right,training,hard,2,,,,,
,,,,,58c8497430c4cf0001ce9caf,001,43,male,United Kingdo,Bachelor Degree,2024-03-06_12h15.57.550,CRL1h,2023.2.3,MacIntel,59.98080614,65e67470ae2fbf2172c317b2,65e85e5d0cf162c5c3cdf0f5,,,,,,,,,,,719.2718,1,720.266,720.2661,721.4477,left,1,1.1809,,721.4477,722.4415,0,7,7,1,1,partial,1,images/Ex10.jpg,left,training,hard,2,,,,,
,,,,,58c8497430c4cf0001ce9caf,001,43,male,United Kingdo,Bachelor Degree,2024-03-06_12h15.57.550,CRL1h,2023.2.3,MacIntel,59.98080614,65e67470ae2fbf2172c317b2,65e85e5d0cf162c5c3cdf0f5,,,,,,,,,,,722.4418,1.3,723.735,723.735,725.8292,left,0,2.0936,,725.8293,726.8176,0,8,8,15,1,partial,1,images/Ex16.jpg,right,training,hard,2,,,,,
,,,,,58c8497430c4cf0001ce9caf,001,43,male,United Kingdo,Bachelor Degree,2024-03-06_12h15.57.550,CRL1h,2023.2.3,MacIntel,59.98080614,65e67470ae2fbf2172c317b2,65e85e5d0cf162c5c3cdf0f5,,,,,,,,,,,726.8179,1.3,728.108,728.1081,729.4114,left,1,1.3026,,729.4114,730.4029,0,9,9,2,1,partial,1,images/Ex11.jpg,left,training,hard,2,,,,,
,,,,,58c8497430c4cf0001ce9caf,001,43,male,United Kingdo,Bachelor Degree,2024-03-06_12h15.57.550,CRL1h,2023.2.3,MacIntel,59.98080614,65e67470ae2fbf2172c317b2,65e85e5d0cf162c5c3cdf0f5,,,,,,,,,,,730.4031,0.9,731.3027,731.3029,732.3903,left,0,1.0869,,732.3903,733.3836,0,10,10,13,1,partial,1,images/Ex14.jpg,right,training,hard,2,,,,,
,,,,,58c8497430c4cf0001ce9caf,001,43,male,United Kingdo,Bachelor Degree,2024-03-06_12h15.57.550,CRL1h,2023.2.3,MacIntel,59.98080614,65e67470ae2fbf2172c317b2,65e85e5d0cf162c5c3cdf0f5,,,,,,,,,,,733.3838,0.5,733.8763,733.8764,734.8169,left,1,0.9398,,734.8169,735.8141,0,11,11,3,1,partial,1,images/Ex12.jpg,left,training,hard,2,,,,,
,,,,,58c8497430c4cf0001ce9caf,001,43,male,United Kingdo,Bachelor Degree,2024-03-06_12h15.57.550,CRL1h,2023.2.3,MacIntel,59.98080614,65e67470ae2fbf2172c317b2,65e85e5d0cf162c5c3cdf0f5,,,,,,,,,,,735.8143,0.7,736.5118,736.5119,737.3869,left,1,0.8744,,737.387,738.3777,0,12,12,11,1,partial,1,images/Ex12.jpg,left,training,hard,2,,,,,
,,,,,58c8497430c4cf0001ce9caf,001,43,male,United Kingdo,Bachelor Degree,2024-03-06_12h15.57.550,CRL1h,2023.2.3,MacIntel,59.98080614,65e67470ae2fbf2172c317b2,65e85e5d0cf162c5c3cdf0f5,,,,,,,,,,,738.3784,1.5,739.8749,739.8749,740.9071,right,1,1.0314,,740.9071,741.8951,0,13,13,5,1,partial,1,images/Ex14.jpg,right,training,hard,2,,,,,
,,,,,58c8497430c4cf0001ce9caf,001,43,male,United Kingdo,Bachelor Degree,2024-03-06_12h15.57.550,CRL1h,2023.2.3,MacIntel,59.98080614,65e67470ae2fbf2172c317b2,65e85e5d0cf162c5c3cdf0f5,,,,,,,,,,,741.8954,1.3,743.189,743.189,744.2038,left,0,1.0142,,744.2039,745.2028,0,14,14,12,1,partial,1,images/Ex13.jpg,right,training,hard,2,,,,,
,,,,,58c8497430c4cf0001ce9caf,001,43,male,United Kingdo,Bachelor Degree,2024-03-06_12h15.57.550,CRL1h,2023.2.3,MacIntel,59.98080614,65e67470ae2fbf2172c317b2,65e85e5d0cf162c5c3cdf0f5,,,,,,,,,,,745.203,0.7,745.9036,745.9036,746.3471,left,0,0.4427,,746.3471,747.3425,0,15,15,6,1,partial,1,images/Ex15.jpg,right,training,hard,2,,,,,
,,,,,58c8497430c4cf0001ce9caf,001,43,male,United Kingdo,Bachelor Degree,2024-03-06_12h15.57.550,CRL1h,2023.2.3,MacIntel,59.98080614,65e67470ae2fbf2172c317b2,65e85e5d0cf162c5c3cdf0f5,,,,,,,,,,,747.3429,0.7,748.0344,748.0345,749.094,left,1,1.059,,749.094,750.0954,1,0,16,3,1,partial,1,images/Ex12.jpg,left,training,hard,2,,,,,
,,,,,58c8497430c4cf0001ce9caf,001,43,male,United Kingdo,Bachelor Degree,2024-03-06_12h15.57.550,CRL1h,2023.2.3,MacIntel,59.98080614,65e67470ae2fbf2172c317b2,65e85e5d0cf162c5c3cdf0f5,,,,,,,,,,,750.0957,0.9,750.9941,750.9942,753.0781,left,1,2.0833,,753.0782,754.0726,1,1,17,8,1,partial,1,images/Ex9.jpg,left,training,hard,2,,,,,
,,,,,58c8497430c4cf0001ce9caf,001,43,male,United Kingdo,Bachelor Degree,2024-03-06_12h15.57.550,CRL1h,2023.2.3,MacIntel,59.98080614,65e67470ae2fbf2172c317b2,65e85e5d0cf162c5c3cdf0f5,,,,,,,,,,,754.0729,1.1,755.1647,755.1647,756.6179,right,1,1.4523,,756.6179,757.6189,1,2,18,6,1,partial,1,images/Ex15.jpg,right,training,hard,2,,,,,
,,,,,58c8497430c4cf0001ce9caf,001,43,male,United Kingdo,Bachelor Degree,2024-03-06_12h15.57.550,CRL1h,2023.2.3,MacIntel,59.98080614,65e67470ae2fbf2172c317b2,65e85e5d0cf162c5c3cdf0f5,,,,,,,,,,,757.6191,0.7,758.3074,758.3075,760.1514,right,0,1.8432,,760.1515,761.1499,1,3,19,1,1,partial,1,images/Ex10.jpg,left,training,hard,2,,,,,
,,,,,58c8497430c4cf0001ce9caf,001,43,male,United Kingdo,Bachelor Degree,2024-03-06_12h15.57.550,CRL1h,2023.2.3,MacIntel,59.98080614,65e67470ae2fbf2172c317b2,65e85e5d0cf162c5c3cdf0f5,,,,,,,,,,,761.1502,1.2,762.3386,762.3386,763.3574,left,1,1.0183,,763.3574,764.3503,1,4,20,9,1,partial,1,images/Ex10.jpg,left,training,hard,2,,,,,
,,,,,58c8497430c4cf0001ce9caf,001,43,male,United Kingdo,Bachelor Degree,2024-03-06_12h15.57.550,CRL1h,2023.2.3,MacIntel,59.98080614,65e67470ae2fbf2172c317b2,65e85e5d0cf162c5c3cdf0f5,,,,,,,,,,,764.3505,0.7,765.0544,765.0544,766.1064,right,1,1.0513,,766.1064,767.1076,1,5,21,14,1,partial,1,images/Ex15.jpg,right,training,hard,2,,,,,
,,,,,58c8497430c4cf0001ce9caf,001,43,male,United Kingdo,Bachelor Degree,2024-03-06_12h15.57.550,CRL1h,2023.2.3,MacIntel,59.98080614,65e67470ae2fbf2172c317b2,65e85e5d0cf162c5c3cdf0f5,,,,,,,,,,,767.1079,0.8,767.9057,767.9057,769.8057,right,0,1.8994,,769.8058,770.8024,1,6,22,0,1,partial,1,images/Ex9.jpg,left,training,hard,2,,,,,
,,,,,58c8497430c4cf0001ce9caf,001,43,male,United Kingdo,Bachelor Degree,2024-03-06_12h15.57.550,CRL1h,2023.2.3,MacIntel,59.98080614,65e67470ae2fbf2172c317b2,65e85e5d0cf162c5c3cdf0f5,,,,,,,,,,,770.8027,1.3,772.1008,772.1008,774.8586,left,1,2.7571,,774.8586,775.8593,1,7,23,10,1,partial,1,images/Ex11.jpg,left,training,hard,2,,,,,
,,,,,58c8497430c4cf0001ce9caf,001,43,male,United Kingdo,Bachelor Degree,2024-03-06_12h15.57.550,CRL1h,2023.2.3,MacIntel,59.98080614,65e67470ae2fbf2172c317b2,65e85e5d0cf162c5c3cdf0f5,,,,,,,,,,,775.8596,1,776.857,776.857,779.043,right,1,2.1853,,779.043,780.0449,1,8,24,4,1,partial,1,images/Ex13.jpg,right,training,hard,2,,,,,
,,,,,58c8497430c4cf0001ce9caf,001,43,male,United Kingdo,Bachelor Degree,2024-03-06_12h15.57.550,CRL1h,2023.2.3,MacIntel,59.98080614,65e67470ae2fbf2172c317b2,65e85e5d0cf162c5c3cdf0f5,,,,,,,,,,,780.0451,0.9,780.9377,780.9378,783.0397,right,1,2.0971,,783.0397,784.0314,1,9,25,15,1,partial,1,images/Ex16.jpg,right,training,hard,2,,,,,
,,,,,58c8497430c4cf0001ce9caf,001,43,male,United Kingdo,Bachelor Degree,2024-03-06_12h15.57.550,CRL1h,2023.2.3,MacIntel,59.98080614,65e67470ae2fbf2172c317b2,65e85e5d0cf162c5c3cdf0f5,,,,,,,,,,,784.0318,1,785.0219,785.0219,787.8091,right,1,2.7865,,787.8091,788.8051,1,10,26,13,1,partial,1,images/Ex14.jpg,right,training,hard,2,,,,,
,,,,,58c8497430c4cf0001ce9caf,001,43,male,United Kingdo,Bachelor Degree,2024-03-06_12h15.57.550,CRL1h,2023.2.3,MacIntel,59.98080614,65e67470ae2fbf2172c317b2,65e85e5d0cf162c5c3cdf0f5,,,,,,,,,,,788.8052,1.3,790.0934,790.0935,793.7015,left,1,3.6073,,793.7015,794.6935,1,11,27,11,1,partial,1,images/Ex12.jpg,left,training,hard,2,,,,,
,,,,,58c8497430c4cf0001ce9caf,001,43,male,United Kingdo,Bachelor Degree,2024-03-06_12h15.57.550,CRL1h,2023.2.3,MacIntel,59.98080614,65e67470ae2fbf2172c317b2,65e85e5d0cf162c5c3cdf0f5,,,,,,,,,,,794.6938,1.3,795.9916,795.9917,797.0847,right,1,1.092,,797.0847,798.0736,1,12,28,12,1,partial,1,images/Ex13.jpg,right,training,hard,2,,,,,
,,,,,58c8497430c4cf0001ce9caf,001,43,male,United Kingdo,Bachelor Degree,2024-03-06_12h15.57.550,CRL1h,2023.2.3,MacIntel,59.98080614,65e67470ae2fbf2172c317b2,65e85e5d0cf162c5c3cdf0f5,,,,,,,,,,,798.074,1.3,799.368,799.368,800.4335,right,1,1.0647,,800.4335,801.4213,1,13,29,7,1,partial,1,images/Ex16.jpg,right,training,hard,2,,,,,
,,,,,58c8497430c4cf0001ce9caf,001,43,male,United Kingdo,Bachelor Degree,2024-03-06_12h15.57.550,CRL1h,2023.2.3,MacIntel,59.98080614,65e67470ae2fbf2172c317b2,65e85e5d0cf162c5c3cdf0f5,,,,,,,,,,,801.4216,1,802.4198,802.4198,803.4874,right,1,1.067,,803.4875,804.4916,1,14,30,5,1,partial,1,images/Ex14.jpg,right,training,hard,2,,,,,
,,,,,58c8497430c4cf0001ce9caf,001,43,male,United Kingdo,Bachelor Degree,2024-03-06_12h15.57.550,CRL1h,2023.2.3,MacIntel,59.98080614,65e67470ae2fbf2172c317b2,65e85e5d0cf162c5c3cdf0f5,,,,,,,,,,,804.4918,1,805.4833,805.4833,807.0667,right,0,1.5827,,807.0668,808.0643,1,15,31,2,1,partial,1,images/Ex11.jpg,left,training,hard,2,,,,,
,,,,,58c8497430c4cf0001ce9caf,001,43,male,United Kingdo,Bachelor Degree,2024-03-06_12h15.57.550,CRL1h,2023.2.3,MacIntel,59.98080614,65e67470ae2fbf2172c317b2,65e85e5d0cf162c5c3cdf0f5,,,,,,,,,,,808.0646,1.4,809.4533,809.4534,810.3776,left,1,0.9236,,810.3777,811.3759,2,0,32,10,1,partial,1,images/Ex11.jpg,left,training,hard,2,,,,,
,,,,,58c8497430c4cf0001ce9caf,001,43,male,United Kingdo,Bachelor Degree,2024-03-06_12h15.57.550,CRL1h,2023.2.3,MacIntel,59.98080614,65e67470ae2fbf2172c317b2,65e85e5d0cf162c5c3cdf0f5,,,,,,,,,,,811.3763,0.8,812.1762,812.1763,813.2864,right,1,1.1095,,813.2865,814.2804,2,1,33,5,1,partial,1,images/Ex14.jpg,right,training,hard,2,,,,,
,,,,,58c8497430c4cf0001ce9caf,001,43,male,United Kingdo,Bachelor Degree,2024-03-06_12h15.57.550,CRL1h,2023.2.3,MacIntel,59.98080614,65e67470ae2fbf2172c317b2,65e85e5d0cf162c5c3cdf0f5,,,,,,,,,,,814.2806,1.1,815.3747,815.3747,816.9591,right,0,1.5837,,816.9591,817.9488,2,2,34,9,1,partial,1,images/Ex10.jpg,left,training,hard,2,,,,,
,,,,,58c8497430c4cf0001ce9caf,001,43,male,United Kingdo,Bachelor Degree,2024-03-06_12h15.57.550,CRL1h,2023.2.3,MacIntel,59.98080614,65e67470ae2fbf2172c317b2,65e85e5d0cf162c5c3cdf0f5,,,,,,,,,,,817.9492,0.6,818.5536,818.5536,819.711,right,1,1.1568,,819.7111,820.7112,2,3,35,13,1,partial,1,images/Ex14.jpg,right,training,hard,2,,,,,
,,,,,58c8497430c4cf0001ce9caf,001,43,male,United Kingdo,Bachelor Degree,2024-03-06_12h15.57.550,CRL1h,2023.2.3,MacIntel,59.98080614,65e67470ae2fbf2172c317b2,65e85e5d0cf162c5c3cdf0f5,,,,,,,,,,,820.7114,0.9,821.6118,821.6119,822.5673,left,0,0.9539,,822.5673,823.5732,2,4,36,7,1,partial,1,images/Ex16.jpg,right,training,hard,2,,,,,
,,,,,58c8497430c4cf0001ce9caf,001,43,male,United Kingdo,Bachelor Degree,2024-03-06_12h15.57.550,CRL1h,2023.2.3,MacIntel,59.98080614,65e67470ae2fbf2172c317b2,65e85e5d0cf162c5c3cdf0f5,,,,,,,,,,,823.5735,1.4,824.9621,824.9621,826.145,right,0,1.1821,,826.1451,827.1341,2,5,37,0,1,partial,1,images/Ex9.jpg,left,training,hard,2,,,,,
,,,,,58c8497430c4cf0001ce9caf,001,43,male,United Kingdo,Bachelor Degree,2024-03-06_12h15.57.550,CRL1h,2023.2.3,MacIntel,59.98080614,65e67470ae2fbf2172c317b2,65e85e5d0cf162c5c3cdf0f5,,,,,,,,,,,827.1344,1,828.1305,828.1306,829.1038,right,1,0.9726,,829.1039,830.0959,2,6,38,6,1,partial,1,images/Ex15.jpg,right,training,hard,2,,,,,
,,,,,58c8497430c4cf0001ce9caf,001,43,male,United Kingdo,Bachelor Degree,2024-03-06_12h15.57.550,CRL1h,2023.2.3,MacIntel,59.98080614,65e67470ae2fbf2172c317b2,65e85e5d0cf162c5c3cdf0f5,,,,,,,,,,,830.0962,0.5,830.5838,830.5838,831.6695,left,0,1.0849,,831.6695,832.6587,2,7,39,15,1,partial,1,images/Ex16.jpg,right,training,hard,2,,,,,
,,,,,58c8497430c4cf0001ce9caf,001,43,male,United Kingdo,Bachelor Degree,2024-03-06_12h15.57.550,CRL1h,2023.2.3,MacIntel,59.98080614,65e67470ae2fbf2172c317b2,65e85e5d0cf162c5c3cdf0f5,,,,,,,,,,,832.6589,0.8,833.4617,833.4619,834.8633,left,1,1.4004,,834.8633,835.8573,2,8,40,2,1,partial,1,images/Ex11.jpg,left,training,hard,2,,,,,
,,,,,58c8497430c4cf0001ce9caf,001,43,male,United Kingdo,Bachelor Degree,2024-03-06_12h15.57.550,CRL1h,2023.2.3,MacIntel,59.98080614,65e67470ae2fbf2172c317b2,65e85e5d0cf162c5c3cdf0f5,,,,,,,,,,,835.8575,0.9,836.75,836.75,838.4267,left,1,1.6758,,838.4267,839.4287,2,9,41,3,1,partial,1,images/Ex12.jpg,left,training,hard,2,,,,,
,,,,,58c8497430c4cf0001ce9caf,001,43,male,United Kingdo,Bachelor Degree,2024-03-06_12h15.57.550,CRL1h,2023.2.3,MacIntel,59.98080614,65e67470ae2fbf2172c317b2,65e85e5d0cf162c5c3cdf0f5,,,,,,,,,,,839.4289,1.3,840.7336,840.7336,841.7073,left,1,0.9732,,841.7073,842.7009,2,10,42,11,1,partial,1,images/Ex12.jpg,left,training,hard,2,,,,,
,,,,,58c8497430c4cf0001ce9caf,001,43,male,United Kingdo,Bachelor Degree,2024-03-06_12h15.57.550,CRL1h,2023.2.3,MacIntel,59.98080614,65e67470ae2fbf2172c317b2,65e85e5d0cf162c5c3cdf0f5,,,,,,,,,,,842.7012,1.3,844.003,844.003,845.1938,left,1,1.1901,,845.1938,846.1952,2,11,43,8,1,partial,1,images/Ex9.jpg,left,training,hard,2,,,,,
,,,,,58c8497430c4cf0001ce9caf,001,43,male,United Kingdo,Bachelor Degree,2024-03-06_12h15.57.550,CRL1h,2023.2.3,MacIntel,59.98080614,65e67470ae2fbf2172c317b2,65e85e5d0cf162c5c3cdf0f5,,,,,,,,,,,846.1954,0.9,847.0905,847.0905,847.9357,right,1,0.8445,,847.9357,848.9281,2,12,44,14,1,partial,1,images/Ex15.jpg,right,training,hard,2,,,,,
,,,,,58c8497430c4cf0001ce9caf,001,43,male,United Kingdo,Bachelor Degree,2024-03-06_12h15.57.550,CRL1h,2023.2.3,MacIntel,59.98080614,65e67470ae2fbf2172c317b2,65e85e5d0cf162c5c3cdf0f5,,,,,,,,,,,848.9284,1.5,850.4319,850.4319,851.8071,right,1,1.3746,,851.8071,852.8061,2,13,45,4,1,partial,1,images/Ex13.jpg,right,training,hard,2,,,,,
,,,,,58c8497430c4cf0001ce9caf,001,43,male,United Kingdo,Bachelor Degree,2024-03-06_12h15.57.550,CRL1h,2023.2.3,MacIntel,59.98080614,65e67470ae2fbf2172c317b2,65e85e5d0cf162c5c3cdf0f5,,,,,,,,,,,852.8064,0.6,853.407,853.407,854.4634,left,1,1.0498,,854.4634,855.4658,2,14,46,1,1,partial,1,images/Ex10.jpg,left,training,hard,2,,,,,
,,,,,58c8497430c4cf0001ce9caf,001,43,male,United Kingdo,Bachelor Degree,2024-03-06_12h15.57.550,CRL1h,2023.2.3,MacIntel,59.98080614,65e67470ae2fbf2172c317b2,65e85e5d0cf162c5c3cdf0f5,,,,,,,,,,,855.4661,0.7,856.1608,856.1608,857.3343,right,1,1.173,,857.3343,858.3353,2,15,47,12,1,partial,1,images/Ex13.jpg,right,training,hard,2,,,,,
,,,,,58c8497430c4cf0001ce9caf,001,43,male,United Kingdo,Bachelor Degree,2024-03-06_12h15.57.550,CRL1h,2023.2.3,MacIntel,59.98080614,65e67470ae2fbf2172c317b2,65e85e5d0cf162c5c3cdf0f5,,,,,,,,,,,858.3356,0.6,858.9254,858.9254,860.5754,left,1,1.6492,,860.5754,861.5725,3,0,48,3,1,partial,1,images/Ex12.jpg,left,training,hard,2,,,,,
,,,,,58c8497430c4cf0001ce9caf,001,43,male,United Kingdo,Bachelor Degree,2024-03-06_12h15.57.550,CRL1h,2023.2.3,MacIntel,59.98080614,65e67470ae2fbf2172c317b2,65e85e5d0cf162c5c3cdf0f5,,,,,,,,,,,861.5727,0.9,862.4685,862.4685,863.2078,right,1,0.7387,,863.2079,864.21,3,1,49,14,1,partial,1,images/Ex15.jpg,right,training,hard,2,,,,,
,,,,,58c8497430c4cf0001ce9caf,001,43,male,United Kingdo,Bachelor Degree,2024-03-06_12h15.57.550,CRL1h,2023.2.3,MacIntel,59.98080614,65e67470ae2fbf2172c317b2,65e85e5d0cf162c5c3cdf0f5,,,,,,,,,,,864.2103,0.5,864.7093,864.7093,865.5619,right,1,0.8518,,865.5619,866.5612,3,2,50,12,1,partial,1,images/Ex13.jpg,right,training,hard,2,,,,,
,,,,,58c8497430c4cf0001ce9caf,001,43,male,United Kingdo,Bachelor Degree,2024-03-06_12h15.57.550,CRL1h,2023.2.3,MacIntel,59.98080614,65e67470ae2fbf2172c317b2,65e85e5d0cf162c5c3cdf0f5,,,,,,,,,,,866.5615,1.3,867.8502,867.8503,869.1806,right,1,1.3297,,869.1806,870.1727,3,3,51,13,1,partial,1,images/Ex14.jpg,right,training,hard,2,,,,,
,,,,,58c8497430c4cf0001ce9caf,001,43,male,United Kingdo,Bachelor Degree,2024-03-06_12h15.57.550,CRL1h,2023.2.3,MacIntel,59.98080614,65e67470ae2fbf2172c317b2,65e85e5d0cf162c5c3cdf0f5,,,,,,,,,,,870.1729,1.5,871.6657,871.6657,872.8071,left,0,1.1372,,872.8071,873.7966,3,4,52,7,1,partial,1,images/Ex16.jpg,right,training,hard,2,,,,,
,,,,,58c8497430c4cf0001ce9caf,001,43,male,United Kingdo,Bachelor Degree,2024-03-06_12h15.57.550,CRL1h,2023.2.3,MacIntel,59.98080614,65e67470ae2fbf2172c317b2,65e85e5d0cf162c5c3cdf0f5,,,,,,,,,,,873.797,0.6,874.3979,874.3979,875.7265,left,1,1.3277,,875.7265,876.7196,3,5,53,8,1,partial,1,images/Ex9.jpg,left,training,hard,2,,,,,
,,,,,58c8497430c4cf0001ce9caf,001,43,male,United Kingdo,Bachelor Degree,2024-03-06_12h15.57.550,CRL1h,2023.2.3,MacIntel,59.98080614,65e67470ae2fbf2172c317b2,65e85e5d0cf162c5c3cdf0f5,,,,,,,,,,,876.7198,1.5,878.2175,878.2176,879.8717,right,1,1.6532,,879.8718,880.8706,3,6,54,4,1,partial,1,images/Ex13.jpg,right,training,hard,2,,,,,
,,,,,58c8497430c4cf0001ce9caf,001,43,male,United Kingdo,Bachelor Degree,2024-03-06_12h15.57.550,CRL1h,2023.2.3,MacIntel,59.98080614,65e67470ae2fbf2172c317b2,65e85e5d0cf162c5c3cdf0f5,,,,,,,,,,,880.8708,0.9,881.7722,881.7723,882.5737,left,1,0.8005,,882.5737,883.5679,3,7,55,9,1,partial,1,images/Ex10.jpg,left,training,hard,2,,,,,
,,,,,58c8497430c4cf0001ce9caf,001,43,male,United Kingdo,Bachelor Degree,2024-03-06_12h15.57.550,CRL1h,2023.2.3,MacIntel,59.98080614,65e67470ae2fbf2172c317b2,65e85e5d0cf162c5c3cdf0f5,,,,,,,,,,,883.5682,1.3,884.8571,884.8571,886.1598,right,1,1.302,,886.1598,887.1577,3,8,56,5,1,partial,1,images/Ex14.jpg,right,training,hard,2,,,,,
,,,,,58c8497430c4cf0001ce9caf,001,43,male,United Kingdo,Bachelor Degree,2024-03-06_12h15.57.550,CRL1h,2023.2.3,MacIntel,59.98080614,65e67470ae2fbf2172c317b2,65e85e5d0cf162c5c3cdf0f5,,,,,,,,,,,887.1579,0.6,887.7593,887.7593,888.6287,left,1,0.8687,,888.6287,889.6223,3,9,57,1,1,partial,1,images/Ex10.jpg,left,training,hard,2,,,,,
,,,,,58c8497430c4cf0001ce9caf,001,43,male,United Kingdo,Bachelor Degree,2024-03-06_12h15.57.550,CRL1h,2023.2.3,MacIntel,59.98080614,65e67470ae2fbf2172c317b2,65e85e5d0cf162c5c3cdf0f5,,,,,,,,,,,889.6225,1.2,890.8106,890.8107,891.639,right,1,0.8274,,891.639,892.6298,3,10,58,6,1,partial,1,images/Ex15.jpg,right,training,hard,2,,,,,
,,,,,58c8497430c4cf0001ce9caf,001,43,male,United Kingdo,Bachelor Degree,2024-03-06_12h15.57.550,CRL1h,2023.2.3,MacIntel,59.98080614,65e67470ae2fbf2172c317b2,65e85e5d0cf162c5c3cdf0f5,,,,,,,,,,,892.6301,1,893.6216,893.6216,895.7279,right,0,2.1055,,895.7279,896.7194,3,11,59,11,1,partial,1,images/Ex12.jpg,left,training,hard,2,,,,,
,,,,,58c8497430c4cf0001ce9caf,001,43,male,United Kingdo,Bachelor Degree,2024-03-06_12h15.57.550,CRL1h,2023.2.3,MacIntel,59.98080614,65e67470ae2fbf2172c317b2,65e85e5d0cf162c5c3cdf0f5,,,,,,,,,,,896.7197,1,897.7168,897.7168,899.1218,right,1,1.4044,,899.1219,900.1159,3,12,60,15,1,partial,1,images/Ex16.jpg,right,training,hard,2,,,,,
,,,,,58c8497430c4cf0001ce9caf,001,43,male,United Kingdo,Bachelor Degree,2024-03-06_12h15.57.550,CRL1h,2023.2.3,MacIntel,59.98080614,65e67470ae2fbf2172c317b2,65e85e5d0cf162c5c3cdf0f5,,,,,,,,,,,900.1162,0.9,900.9929,900.9929,902.5805,right,0,1.5869,,902.5805,903.583,3,13,61,2,1,partial,1,images/Ex11.jpg,left,training,hard,2,,,,,
,,,,,58c8497430c4cf0001ce9caf,001,43,male,United Kingdo,Bachelor Degree,2024-03-06_12h15.57.550,CRL1h,2023.2.3,MacIntel,59.98080614,65e67470ae2fbf2172c317b2,65e85e5d0cf162c5c3cdf0f5,,,,,,,,,,,903.5832,1.3,904.8711,904.8713,905.7567,left,1,0.8847,,905.7567,906.7527,3,14,62,0,1,partial,1,images/Ex9.jpg,left,training,hard,2,,,,,
,,,,,58c8497430c4cf0001ce9caf,001,43,male,United Kingdo,Bachelor Degree,2024-03-06_12h15.57.550,CRL1h,2023.2.3,MacIntel,59.98080614,65e67470ae2fbf2172c317b2,65e85e5d0cf162c5c3cdf0f5,,,,,,,,,,,906.7529,0.9,907.6442,907.6442,908.7208,left,1,1.076,,908.7208,909.7086,3,15,63,10,1,partial,1,images/Ex11.jpg,left,training,hard,2,,,,,
,,,,,58c8497430c4cf0001ce9caf,001,43,male,United Kingdo,Bachelor Degree,2024-03-06_12h15.57.550,CRL1h,2023.2.3,MacIntel,59.98080614,65e67470ae2fbf2172c317b2,65e85e5d0cf162c5c3cdf0f5,,,,,,,,,,,909.7089,0.7,910.4108,910.4108,911.2277,right,1,0.8163,,911.2277,912.2173,4,0,64,4,1,partial,1,images/Ex13.jpg,right,training,hard,2,,,,,
,,,,,58c8497430c4cf0001ce9caf,001,43,male,United Kingdo,Bachelor Degree,2024-03-06_12h15.57.550,CRL1h,2023.2.3,MacIntel,59.98080614,65e67470ae2fbf2172c317b2,65e85e5d0cf162c5c3cdf0f5,,,,,,,,,,,912.2177,0.8,913.0141,913.0142,914.2344,left,1,1.2195,,914.2345,915.2312,4,1,65,11,1,partial,1,images/Ex12.jpg,left,training,hard,2,,,,,
,,,,,58c8497430c4cf0001ce9caf,001,43,male,United Kingdo,Bachelor Degree,2024-03-06_12h15.57.550,CRL1h,2023.2.3,MacIntel,59.98080614,65e67470ae2fbf2172c317b2,65e85e5d0cf162c5c3cdf0f5,,,,,,,,,,,915.2315,0.6,915.8221,915.8221,916.7661,left,1,0.9431,,916.7661,917.7615,4,2,66,9,1,partial,1,images/Ex10.jpg,left,training,hard,2,,,,,
,,,,,58c8497430c4cf0001ce9caf,001,43,male,United Kingdo,Bachelor Degree,2024-03-06_12h15.57.550,CRL1h,2023.2.3,MacIntel,59.98080614,65e67470ae2fbf2172c317b2,65e85e5d0cf162c5c3cdf0f5,,,,,,,,,,,917.7618,1.2,918.953,918.9531,919.5762,right,1,0.6224,,919.5762,920.5715,4,3,67,15,1,partial,1,images/Ex16.jpg,right,training,hard,2,,,,,
,,,,,58c8497430c4cf0001ce9caf,001,43,male,United Kingdo,Bachelor Degree,2024-03-06_12h15.57.550,CRL1h,2023.2.3,MacIntel,59.98080614,65e67470ae2fbf2172c317b2,65e85e5d0cf162c5c3cdf0f5,,,,,,,,,,,920.572,1,921.5683,921.5683,922.3763,right,1,0.8065,,922.3763,923.3706,4,4,68,7,1,partial,1,images/Ex16.jpg,right,training,hard,2,,,,,
,,,,,58c8497430c4cf0001ce9caf,001,43,male,United Kingdo,Bachelor Degree,2024-03-06_12h15.57.550,CRL1h,2023.2.3,MacIntel,59.98080614,65e67470ae2fbf2172c317b2,65e85e5d0cf162c5c3cdf0f5,,,,,,,,,,,923.3709,1.5,924.8609,924.8609,925.7349,left,1,0.8733,,925.7349,926.7336,4,5,69,3,1,partial,1,images/Ex12.jpg,left,training,hard,2,,,,,
,,,,,58c8497430c4cf0001ce9caf,001,43,male,United Kingdo,Bachelor Degree,2024-03-06_12h15.57.550,CRL1h,2023.2.3,MacIntel,59.98080614,65e67470ae2fbf2172c317b2,65e85e5d0cf162c5c3cdf0f5,,,,,,,,,,,926.7339,0.7,927.4229,927.4229,928.2567,left,1,0.8331,,928.2567,929.2458,4,6,70,8,1,partial,1,images/Ex9.jpg,left,training,hard,2,,,,,
,,,,,58c8497430c4cf0001ce9caf,001,43,male,United Kingdo,Bachelor Degree,2024-03-06_12h15.57.550,CRL1h,2023.2.3,MacIntel,59.98080614,65e67470ae2fbf2172c317b2,65e85e5d0cf162c5c3cdf0f5,,,,,,,,,,,929.2461,0.9,930.1391,930.1391,931.1172,left,1,0.9774,,931.1172,932.0992,4,7,71,10,1,partial,1,images/Ex11.jpg,left,training,hard,2,,,,,
,,,,,58c8497430c4cf0001ce9caf,001,43,male,United Kingdo,Bachelor Degree,2024-03-06_12h15.57.550,CRL1h,2023.2.3,MacIntel,59.98080614,65e67470ae2fbf2172c317b2,65e85e5d0cf162c5c3cdf0f5,,,,,,,,,,,932.0996,1.3,933.3953,933.3953,934.8125,right,1,1.4167,,934.8125,935.8115,4,8,72,13,1,partial,1,images/Ex14.jpg,right,training,hard,2,,,,,
,,,,,58c8497430c4cf0001ce9caf,001,43,male,United Kingdo,Bachelor Degree,2024-03-06_12h15.57.550,CRL1h,2023.2.3,MacIntel,59.98080614,65e67470ae2fbf2172c317b2,65e85e5d0cf162c5c3cdf0f5,,,,,,,,,,,935.8117,0.9,936.7022,936.7022,937.5099,left,1,0.8069,,937.5099,938.5139,4,9,73,0,1,partial,1,images/Ex9.jpg,left,training,hard,2,,,,,
,,,,,58c8497430c4cf0001ce9caf,001,43,male,United Kingdo,Bachelor Degree,2024-03-06_12h15.57.550,CRL1h,2023.2.3,MacIntel,59.98080614,65e67470ae2fbf2172c317b2,65e85e5d0cf162c5c3cdf0f5,,,,,,,,,,,938.5142,0.6,939.1167,939.1167,940.0002,left,1,0.8827,,940.0002,940.9892,4,10,74,1,1,partial,1,images/Ex10.jpg,left,training,hard,2,,,,,
,,,,,58c8497430c4cf0001ce9caf,001,43,male,United Kingdo,Bachelor Degree,2024-03-06_12h15.57.550,CRL1h,2023.2.3,MacIntel,59.98080614,65e67470ae2fbf2172c317b2,65e85e5d0cf162c5c3cdf0f5,,,,,,,,,,,940.9895,1.4,942.3886,942.3886,943.2651,right,1,0.8758,,943.2651,944.2613,4,11,75,14,1,partial,1,images/Ex15.jpg,right,training,hard,2,,,,,
,,,,,58c8497430c4cf0001ce9caf,001,43,male,United Kingdo,Bachelor Degree,2024-03-06_12h15.57.550,CRL1h,2023.2.3,MacIntel,59.98080614,65e67470ae2fbf2172c317b2,65e85e5d0cf162c5c3cdf0f5,,,,,,,,,,,944.2616,0.9,945.1497,945.1498,946.0731,left,1,0.9228,,946.0732,947.0707,4,12,76,2,1,partial,1,images/Ex11.jpg,left,training,hard,2,,,,,
,,,,,58c8497430c4cf0001ce9caf,001,43,male,United Kingdo,Bachelor Degree,2024-03-06_12h15.57.550,CRL1h,2023.2.3,MacIntel,59.98080614,65e67470ae2fbf2172c317b2,65e85e5d0cf162c5c3cdf0f5,,,,,,,,,,,947.071,0.6,947.6668,947.6668,949.2571,right,1,1.5898,,949.2571,950.254,4,13,77,12,1,partial,1,images/Ex13.jpg,right,training,hard,2,,,,,
,,,,,58c8497430c4cf0001ce9caf,001,43,male,United Kingdo,Bachelor Degree,2024-03-06_12h15.57.550,CRL1h,2023.2.3,MacIntel,59.98080614,65e67470ae2fbf2172c317b2,65e85e5d0cf162c5c3cdf0f5,,,,,,,,,,,950.2543,1.2,951.4439,951.4439,952.6713,right,1,1.2266,,952.6714,953.6641,4,14,78,5,1,partial,1,images/Ex14.jpg,right,training,hard,2,,,,,
,,,,,58c8497430c4cf0001ce9caf,001,43,male,United Kingdo,Bachelor Degree,2024-03-06_12h15.57.550,CRL1h,2023.2.3,MacIntel,59.98080614,65e67470ae2fbf2172c317b2,65e85e5d0cf162c5c3cdf0f5,,,,,,,,,,,953.6645,0.8,954.4681,954.4681,955.2216,right,1,0.7528,,955.2217,956.2167,4,15,79,6,1,partial,1,images/Ex15.jpg,right,training,hard,2,,,,,
,,,,,58c8497430c4cf0001ce9caf,001,43,male,United Kingdo,Bachelor Degree,2024-03-06_12h15.57.550,CRL1h,2023.2.3,MacIntel,59.98080614,65e67470ae2fbf2172c317b2,65e85e5d0cf162c5c3cdf0f5,,,,,,,,,,,956.2172,0.8,957.0146,957.0146,957.813,left,1,0.7978,,957.813,958.8076,5,0,80,9,1,partial,1,images/Ex10.jpg,left,training,hard,2,,,,,
,,,,,58c8497430c4cf0001ce9caf,001,43,male,United Kingdo,Bachelor Degree,2024-03-06_12h15.57.550,CRL1h,2023.2.3,MacIntel,59.98080614,65e67470ae2fbf2172c317b2,65e85e5d0cf162c5c3cdf0f5,,,,,,,,,,,958.8079,1.3,960.096,960.096,961.8361,left,0,1.7394,,961.8361,962.8353,5,1,81,15,1,partial,1,images/Ex16.jpg,right,training,hard,2,,,,,
,,,,,58c8497430c4cf0001ce9caf,001,43,male,United Kingdo,Bachelor Degree,2024-03-06_12h15.57.550,CRL1h,2023.2.3,MacIntel,59.98080614,65e67470ae2fbf2172c317b2,65e85e5d0cf162c5c3cdf0f5,,,,,,,,,,,962.8355,1,963.8356,963.8356,964.7064,left,1,0.87,,964.7064,965.7109,5,2,82,8,1,partial,1,images/Ex9.jpg,left,training,hard,2,,,,,
,,,,,58c8497430c4cf0001ce9caf,001,43,male,United Kingdo,Bachelor Degree,2024-03-06_12h15.57.550,CRL1h,2023.2.3,MacIntel,59.98080614,65e67470ae2fbf2172c317b2,65e85e5d0cf162c5c3cdf0f5,,,,,,,,,,,965.7112,1.2,966.9022,966.9023,968.0858,right,1,1.1828,,968.0859,969.0854,5,3,83,12,1,partial,1,images/Ex13.jpg,right,training,hard,2,,,,,
,,,,,58c8497430c4cf0001ce9caf,001,43,male,United Kingdo,Bachelor Degree,2024-03-06_12h15.57.550,CRL1h,2023.2.3,MacIntel,59.98080614,65e67470ae2fbf2172c317b2,65e85e5d0cf162c5c3cdf0f5,,,,,,,,,,,969.0857,1.2,970.287,970.287,971.1097,right,1,0.8209,,971.1097,972.1091,5,4,84,4,1,partial,1,images/Ex13.jpg,right,training,hard,2,,,,,
,,,,,58c8497430c4cf0001ce9caf,001,43,male,United Kingdo,Bachelor Degree,2024-03-06_12h15.57.550,CRL1h,2023.2.3,MacIntel,59.98080614,65e67470ae2fbf2172c317b2,65e85e5d0cf162c5c3cdf0f5,,,,,,,,,,,972.1094,1,973.1097,973.1097,974.3063,right,1,1.196,,974.3064,975.2954,5,5,85,13,1,partial,1,images/Ex14.jpg,right,training,hard,2,,,,,
,,,,,58c8497430c4cf0001ce9caf,001,43,male,United Kingdo,Bachelor Degree,2024-03-06_12h15.57.550,CRL1h,2023.2.3,MacIntel,59.98080614,65e67470ae2fbf2172c317b2,65e85e5d0cf162c5c3cdf0f5,,,,,,,,,,,975.2957,1.1,976.3925,976.3926,977.8025,right,1,1.4058,,977.8025,978.8068,5,6,86,7,1,partial,1,images/Ex16.jpg,right,training,hard,2,,,,,
,,,,,58c8497430c4cf0001ce9caf,001,43,male,United Kingdo,Bachelor Degree,2024-03-06_12h15.57.550,CRL1h,2023.2.3,MacIntel,59.98080614,65e67470ae2fbf2172c317b2,65e85e5d0cf162c5c3cdf0f5,,,,,,,,,,,978.807,0.7,979.499,979.4991,980.2905,left,1,0.7908,,980.2905,981.286,5,7,87,1,1,partial,1,images/Ex10.jpg,left,training,hard,2,,,,,
,,,,,58c8497430c4cf0001ce9caf,001,43,male,United Kingdo,Bachelor Degree,2024-03-06_12h15.57.550,CRL1h,2023.2.3,MacIntel,59.98080614,65e67470ae2fbf2172c317b2,65e85e5d0cf162c5c3cdf0f5,,,,,,,,,,,981.2862,0.9,982.1805,982.1805,982.8859,left,1,0.7047,,982.886,983.8806,5,8,88,11,1,partial,1,images/Ex12.jpg,left,training,hard,2,,,,,
,,,,,58c8497430c4cf0001ce9caf,001,43,male,United Kingdo,Bachelor Degree,2024-03-06_12h15.57.550,CRL1h,2023.2.3,MacIntel,59.98080614,65e67470ae2fbf2172c317b2,65e85e5d0cf162c5c3cdf0f5,,,,,,,,,,,983.8809,0.9,984.7743,984.7743,985.6285,right,1,0.8535,,985.6285,986.6318,5,9,89,6,1,partial,1,images/Ex15.jpg,right,training,hard,2,,,,,
,,,,,58c8497430c4cf0001ce9caf,001,43,male,United Kingdo,Bachelor Degree,2024-03-06_12h15.57.550,CRL1h,2023.2.3,MacIntel,59.98080614,65e67470ae2fbf2172c317b2,65e85e5d0cf162c5c3cdf0f5,,,,,,,,,,,986.632,1.3,987.9324,987.9324,988.7757,left,1,0.8424,,988.7757,989.7674,5,10,90,2,1,partial,1,images/Ex11.jpg,left,training,hard,2,,,,,
,,,,,58c8497430c4cf0001ce9caf,001,43,male,United Kingdo,Bachelor Degree,2024-03-06_12h15.57.550,CRL1h,2023.2.3,MacIntel,59.98080614,65e67470ae2fbf2172c317b2,65e85e5d0cf162c5c3cdf0f5,,,,,,,,,,,989.7676,1.1,990.8673,990.8673,991.6125,right,1,0.7446,,991.6126,992.6013,5,11,91,14,1,partial,1,images/Ex15.jpg,right,training,hard,2,,,,,
,,,,,58c8497430c4cf0001ce9caf,001,43,male,United Kingdo,Bachelor Degree,2024-03-06_12h15.57.550,CRL1h,2023.2.3,MacIntel,59.98080614,65e67470ae2fbf2172c317b2,65e85e5d0cf162c5c3cdf0f5,,,,,,,,,,,992.6015,0.7,993.2956,993.2956,995.4361,right,0,2.1398,,995.4361,996.4387,5,12,92,0,1,partial,1,images/Ex9.jpg,left,training,hard,2,,,,,
,,,,,58c8497430c4cf0001ce9caf,001,43,male,United Kingdo,Bachelor Degree,2024-03-06_12h15.57.550,CRL1h,2023.2.3,MacIntel,59.98080614,65e67470ae2fbf2172c317b2,65e85e5d0cf162c5c3cdf0f5,,,,,,,,,,,996.439,1.4,997.8436,997.8436,998.7464,left,1,0.9011,,998.7466,999.7466,5,13,93,10,1,partial,1,images/Ex11.jpg,left,training,hard,2,,,,,
,,,,,58c8497430c4cf0001ce9caf,001,43,male,United Kingdo,Bachelor Degree,2024-03-06_12h15.57.550,CRL1h,2023.2.3,MacIntel,59.98080614,65e67470ae2fbf2172c317b2,65e85e5d0cf162c5c3cdf0f5,,,,,,,,,,,999.7469,0.6,1000.3442,1000.3442,1001.2914,left,1,0.9465,,1001.2915,1002.2896,5,14,94,3,1,partial,1,images/Ex12.jpg,left,training,hard,2,,,,,
,,,,,58c8497430c4cf0001ce9caf,001,43,male,United Kingdo,Bachelor Degree,2024-03-06_12h15.57.550,CRL1h,2023.2.3,MacIntel,59.98080614,65e67470ae2fbf2172c317b2,65e85e5d0cf162c5c3cdf0f5,,,,,,,,,,,1002.2897,1.4,1003.6824,1003.6824,1004.7966,right,1,1.1134,,1004.7966,1005.793,5,15,95,5,1,partial,1,images/Ex14.jpg,right,training,hard,2,,,,,
,,,,,58c8497430c4cf0001ce9caf,001,43,male,United Kingdo,Bachelor Degree,2024-03-06_12h15.57.550,CRL1h,2023.2.3,MacIntel,59.98080614,65e67470ae2fbf2172c317b2,65e85e5d0cf162c5c3cdf0f5,,,,,,,,,,,1005.7936,1.5,1007.2899,1007.2899,1008.7329,left,1,1.4424,,1008.7329,1009.727,6,0,96,8,1,partial,1,images/Ex9.jpg,left,training,hard,2,,,,,
,,,,,58c8497430c4cf0001ce9caf,001,43,male,United Kingdo,Bachelor Degree,2024-03-06_12h15.57.550,CRL1h,2023.2.3,MacIntel,59.98080614,65e67470ae2fbf2172c317b2,65e85e5d0cf162c5c3cdf0f5,,,,,,,,,,,1009.7272,1.1,1010.8189,1010.819,1011.9489,right,1,1.1293,,1011.9489,1012.9425,6,1,97,15,1,partial,1,images/Ex16.jpg,right,training,hard,2,,,,,
,,,,,58c8497430c4cf0001ce9caf,001,43,male,United Kingdo,Bachelor Degree,2024-03-06_12h15.57.550,CRL1h,2023.2.3,MacIntel,59.98080614,65e67470ae2fbf2172c317b2,65e85e5d0cf162c5c3cdf0f5,,,,,,,,,,,1012.9427,1.1,1014.0353,1014.0353,1014.9525,left,1,0.9165,,1014.9525,1015.9545,6,2,98,0,1,partial,1,images/Ex9.jpg,left,training,hard,2,,,,,
,,,,,58c8497430c4cf0001ce9caf,001,43,male,United Kingdo,Bachelor Degree,2024-03-06_12h15.57.550,CRL1h,2023.2.3,MacIntel,59.98080614,65e67470ae2fbf2172c317b2,65e85e5d0cf162c5c3cdf0f5,,,,,,,,,,,1015.9548,0.7,1016.6489,1016.6489,1017.5166,right,1,0.8671,,1017.5167,1018.5201,6,3,99,6,1,partial,1,images/Ex15.jpg,right,training,hard,2,,,,,
,,,,,58c8497430c4cf0001ce9caf,001,43,male,United Kingdo,Bachelor Degree,2024-03-06_12h15.57.550,CRL1h,2023.2.3,MacIntel,59.98080614,65e67470ae2fbf2172c317b2,65e85e5d0cf162c5c3cdf0f5,,,,,,,,,,,1018.5203,1.2,1019.7186,1019.7187,1021.3891,left,1,1.6697,,1021.3891,1022.3857,6,4,100,2,1,partial,1,images/Ex11.jpg,left,training,hard,2,,,,,
,,,,,58c8497430c4cf0001ce9caf,001,43,male,United Kingdo,Bachelor Degree,2024-03-06_12h15.57.550,CRL1h,2023.2.3,MacIntel,59.98080614,65e67470ae2fbf2172c317b2,65e85e5d0cf162c5c3cdf0f5,,,,,,,,,,,1022.3859,1.4,1023.7906,1023.7906,1024.5196,left,1,0.7279,,1024.5196,1025.5079,6,5,101,9,1,partial,1,images/Ex10.jpg,left,training,hard,2,,,,,
,,,,,58c8497430c4cf0001ce9caf,001,43,male,United Kingdo,Bachelor Degree,2024-03-06_12h15.57.550,CRL1h,2023.2.3,MacIntel,59.98080614,65e67470ae2fbf2172c317b2,65e85e5d0cf162c5c3cdf0f5,,,,,,,,,,,1025.5081,0.7,1026.2112,1026.2112,1027.4161,right,1,1.2041,,1027.4161,1028.4166,6,6,102,4,1,partial,1,images/Ex13.jpg,right,training,hard,2,,,,,
,,,,,58c8497430c4cf0001ce9caf,001,43,male,United Kingdo,Bachelor Degree,2024-03-06_12h15.57.550,CRL1h,2023.2.3,MacIntel,59.98080614,65e67470ae2fbf2172c317b2,65e85e5d0cf162c5c3cdf0f5,,,,,,,,,,,1028.4169,1.3,1029.7138,1029.7138,1030.5762,right,1,0.8616,,1030.5762,1031.5683,6,7,103,7,1,partial,1,images/Ex16.jpg,right,training,hard,2,,,,,
,,,,,58c8497430c4cf0001ce9caf,001,43,male,United Kingdo,Bachelor Degree,2024-03-06_12h15.57.550,CRL1h,2023.2.3,MacIntel,59.98080614,65e67470ae2fbf2172c317b2,65e85e5d0cf162c5c3cdf0f5,,,,,,,,,,,1031.5686,1.2,1032.7642,1032.7643,1033.5953,right,1,0.8301,,1033.5953,1034.5913,6,8,104,12,1,partial,1,images/Ex13.jpg,right,training,hard,2,,,,,
,,,,,58c8497430c4cf0001ce9caf,001,43,male,United Kingdo,Bachelor Degree,2024-03-06_12h15.57.550,CRL1h,2023.2.3,MacIntel,59.98080614,65e67470ae2fbf2172c317b2,65e85e5d0cf162c5c3cdf0f5,,,,,,,,,,,1034.5916,0.8,1035.3879,1035.388,1036.2166,left,1,0.8281,,1036.2166,1037.2093,6,9,105,1,1,partial,1,images/Ex10.jpg,left,training,hard,2,,,,,
,,,,,58c8497430c4cf0001ce9caf,001,43,male,United Kingdo,Bachelor Degree,2024-03-06_12h15.57.550,CRL1h,2023.2.3,MacIntel,59.98080614,65e67470ae2fbf2172c317b2,65e85e5d0cf162c5c3cdf0f5,,,,,,,,,,,1037.2096,1.2,1038.4061,1038.4061,1039.4488,right,1,1.0419,,1039.4488,1040.4516,6,10,106,13,1,partial,1,images/Ex14.jpg,right,training,hard,2,,,,,
,,,,,58c8497430c4cf0001ce9caf,001,43,male,United Kingdo,Bachelor Degree,2024-03-06_12h15.57.550,CRL1h,2023.2.3,MacIntel,59.98080614,65e67470ae2fbf2172c317b2,65e85e5d0cf162c5c3cdf0f5,,,,,,,,,,,1040.4519,1,1041.4558,1041.4558,1042.3251,left,1,0.8688,,1042.3252,1043.3203,6,11,107,11,1,partial,1,images/Ex12.jpg,left,training,hard,2,,,,,
,,,,,58c8497430c4cf0001ce9caf,001,43,male,United Kingdo,Bachelor Degree,2024-03-06_12h15.57.550,CRL1h,2023.2.3,MacIntel,59.98080614,65e67470ae2fbf2172c317b2,65e85e5d0cf162c5c3cdf0f5,,,,,,,,,,,1043.3205,0.7,1044.0226,1044.0226,1044.8423,left,1,0.8192,,1044.8424,1045.8327,6,12,108,10,1,partial,1,images/Ex11.jpg,left,training,hard,2,,,,,
