infCons.started,infCons.stopped,resp_consent.keys,resp_consent.rt,resp_consent.duration,participant,session,Age?,Gender?,Nationality?,Highest Educational Degree?,date,expName,psychopyVersion,OS,frameRate,STUDY_ID,SESSION_ID,instructions.started,instructions.stopped,resp_instructions.keys,resp_instructions.rt,resp_instructions.duration,nextTask.started,nextTask.stopped,ready_task.keys,ready_task.rt,ready_task.duration,fixation.started,ITI,fixation.stopped,stim.started,stim.stopped,response.keys,response.corr,response.rt,response.duration,feedback.started,feedback.stopped,trials.thisRepN,trials.thisTrialN,trials.thisN,trials.thisIndex,trials.ran,task,phase,Exemplars,r_correct,condition,difficulty,set,end.started,end.stopped,resp_end.keys,resp_end.rt,resp_end.duration
0.001,2.839,space,2.792,,5980fff19bf4fe0001070984,001,,,,,2024-03-06_15h03.27.004,CRL1h,2023.2.3,Win32,60.0240096,65e67470ae2fbf2172c317b2,65e885b58610140d04ce3df8,,,,,,,,,,,,,,,,,,,,,,,,,,,,,,,,,,,,,,
,,,,,5980fff19bf4fe0001070984,001,,,,,2024-03-06_15h03.27.004,CRL1h,2023.2.3,Win32,60.0240096,65e67470ae2fbf2172c317b2,65e885b58610140d04ce3df8,2.839,21.071,space,18.207,,,,,,,,,,,,,,,,,,,,,,,,,,,,,,,,,,
,,,,,5980fff19bf4fe0001070984,001,,,,,2024-03-06_15h03.27.004,CRL1h,2023.2.3,Win32,60.0240096,65e67470ae2fbf2172c317b2,65e885b58610140d04ce3df8,,,,,,21.073,23.187,space,2.098,,23.193,1.4,24.587,24.587,25.57,left,1,0.976,,25.57,26.571,0,0,0,0,1,partial,1,images/Ex1.jpg,left,training,hard,4,,,,,
,,,,,5980fff19bf4fe0001070984,001,,,,,2024-03-06_15h03.27.004,CRL1h,2023.2.3,Win32,60.0240096,65e67470ae2fbf2172c317b2,65e885b58610140d04ce3df8,,,,,,,,,,,26.572,0.8,27.37,27.37,27.838,right,0,0.466,,27.838,28.837,0,1,1,3,1,partial,1,images/Ex4.jpg,left,training,hard,4,,,,,
,,,,,5980fff19bf4fe0001070984,001,,,,,2024-03-06_15h03.27.004,CRL1h,2023.2.3,Win32,60.0240096,65e67470ae2fbf2172c317b2,65e885b58610140d04ce3df8,,,,,,,,,,,28.837,1.4,30.236,30.236,30.87,right,0,0.63,,30.87,31.869,0,2,2,10,1,partial,1,images/Ex3.jpg,left,training,hard,4,,,,,
,,,,,5980fff19bf4fe0001070984,001,,,,,2024-03-06_15h03.27.004,CRL1h,2023.2.3,Win32,60.0240096,65e67470ae2fbf2172c317b2,65e885b58610140d04ce3df8,,,,,,,,,,,31.87,0.6,32.47,32.47,32.804,left,0,0.329,,32.804,33.803,0,3,3,7,1,partial,1,images/Ex8.jpg,right,training,hard,4,,,,,
,,,,,5980fff19bf4fe0001070984,001,,,,,2024-03-06_15h03.27.004,CRL1h,2023.2.3,Win32,60.0240096,65e67470ae2fbf2172c317b2,65e885b58610140d04ce3df8,,,,,,,,,,,33.805,1,34.803,34.803,35.736,left,1,0.929,,35.737,36.736,0,4,4,9,1,partial,1,images/Ex2.jpg,left,training,hard,4,,,,,
,,,,,5980fff19bf4fe0001070984,001,,,,,2024-03-06_15h03.27.004,CRL1h,2023.2.3,Win32,60.0240096,65e67470ae2fbf2172c317b2,65e885b58610140d04ce3df8,,,,,,,,,,,36.738,0.7,37.437,37.437,38.203,left,0,0.762,,38.203,39.203,0,5,5,6,1,partial,1,images/Ex7.jpg,right,training,hard,4,,,,,
,,,,,5980fff19bf4fe0001070984,001,,,,,2024-03-06_15h03.27.004,CRL1h,2023.2.3,Win32,60.0240096,65e67470ae2fbf2172c317b2,65e885b58610140d04ce3df8,,,,,,,,,,,39.204,1.3,40.502,40.502,41.536,right,1,1.03,,41.537,42.536,0,6,6,14,1,partial,1,images/Ex7.jpg,right,training,hard,4,,,,,
,,,,,5980fff19bf4fe0001070984,001,,,,,2024-03-06_15h03.27.004,CRL1h,2023.2.3,Win32,60.0240096,65e67470ae2fbf2172c317b2,65e885b58610140d04ce3df8,,,,,,,,,,,42.537,0.6,43.136,43.136,44.053,right,1,0.912,,44.053,45.052,0,7,7,12,1,partial,1,images/Ex5.jpg,right,training,hard,4,,,,,
,,,,,5980fff19bf4fe0001070984,001,,,,,2024-03-06_15h03.27.004,CRL1h,2023.2.3,Win32,60.0240096,65e67470ae2fbf2172c317b2,65e885b58610140d04ce3df8,,,,,,,,,,,45.053,0.5,45.552,45.552,46.452,left,1,0.894,,46.452,47.452,0,8,8,8,1,partial,1,images/Ex1.jpg,left,training,hard,4,,,,,
,,,,,5980fff19bf4fe0001070984,001,,,,,2024-03-06_15h03.27.004,CRL1h,2023.2.3,Win32,60.0240096,65e67470ae2fbf2172c317b2,65e885b58610140d04ce3df8,,,,,,,,,,,47.453,1.3,48.753,48.753,49.786,left,1,1.028,,49.786,50.786,0,9,9,1,1,partial,1,images/Ex2.jpg,left,training,hard,4,,,,,
,,,,,5980fff19bf4fe0001070984,001,,,,,2024-03-06_15h03.27.004,CRL1h,2023.2.3,Win32,60.0240096,65e67470ae2fbf2172c317b2,65e885b58610140d04ce3df8,,,,,,,,,,,50.786,1.4,52.186,52.186,52.569,right,1,0.38,,52.569,53.569,0,10,10,15,1,partial,1,images/Ex8.jpg,right,training,hard,4,,,,,
,,,,,5980fff19bf4fe0001070984,001,,,,,2024-03-06_15h03.27.004,CRL1h,2023.2.3,Win32,60.0240096,65e67470ae2fbf2172c317b2,65e885b58610140d04ce3df8,,,,,,,,,,,53.569,0.6,54.169,54.17,54.519,left,0,0.346,,54.519,55.519,0,11,11,5,1,partial,1,images/Ex6.jpg,right,training,hard,4,,,,,
,,,,,5980fff19bf4fe0001070984,001,,,,,2024-03-06_15h03.27.004,CRL1h,2023.2.3,Win32,60.0240096,65e67470ae2fbf2172c317b2,65e885b58610140d04ce3df8,,,,,,,,,,,55.52,1.3,56.819,56.819,57.185,right,1,0.362,,57.185,58.185,0,12,12,13,1,partial,1,images/Ex6.jpg,right,training,hard,4,,,,,
,,,,,5980fff19bf4fe0001070984,001,,,,,2024-03-06_15h03.27.004,CRL1h,2023.2.3,Win32,60.0240096,65e67470ae2fbf2172c317b2,65e885b58610140d04ce3df8,,,,,,,,,,,58.185,0.9,59.085,59.085,60.102,left,1,1.016,,60.102,61.102,0,13,13,2,1,partial,1,images/Ex3.jpg,left,training,hard,4,,,,,
,,,,,5980fff19bf4fe0001070984,001,,,,,2024-03-06_15h03.27.004,CRL1h,2023.2.3,Win32,60.0240096,65e67470ae2fbf2172c317b2,65e885b58610140d04ce3df8,,,,,,,,,,,61.102,0.6,61.702,61.702,62.368,left,0,0.663,,62.368,63.368,0,14,14,4,1,partial,1,images/Ex5.jpg,right,training,hard,4,,,,,
,,,,,5980fff19bf4fe0001070984,001,,,,,2024-03-06_15h03.27.004,CRL1h,2023.2.3,Win32,60.0240096,65e67470ae2fbf2172c317b2,65e885b58610140d04ce3df8,,,,,,,,,,,63.368,1.3,64.668,64.668,65.002,right,0,0.33,,65.002,66.002,0,15,15,11,1,partial,1,images/Ex4.jpg,left,training,hard,4,,,,,
,,,,,5980fff19bf4fe0001070984,001,,,,,2024-03-06_15h03.27.004,CRL1h,2023.2.3,Win32,60.0240096,65e67470ae2fbf2172c317b2,65e885b58610140d04ce3df8,,,,,,,,,,,66.002,1.4,67.401,67.401,68.074,left,0,0.665,,68.074,69.069,1,0,16,7,1,partial,1,images/Ex8.jpg,right,training,hard,4,,,,,
,,,,,5980fff19bf4fe0001070984,001,,,,,2024-03-06_15h03.27.004,CRL1h,2023.2.3,Win32,60.0240096,65e67470ae2fbf2172c317b2,65e885b58610140d04ce3df8,,,,,,,,,,,69.069,1.4,70.468,70.468,71.234,right,0,0.762,,71.234,72.235,1,1,17,11,1,partial,1,images/Ex4.jpg,left,training,hard,4,,,,,
,,,,,5980fff19bf4fe0001070984,001,,,,,2024-03-06_15h03.27.004,CRL1h,2023.2.3,Win32,60.0240096,65e67470ae2fbf2172c317b2,65e885b58610140d04ce3df8,,,,,,,,,,,72.235,0.5,72.736,72.736,73.369,left,0,0.627,,73.369,74.368,1,2,18,14,1,partial,1,images/Ex7.jpg,right,training,hard,4,,,,,
,,,,,5980fff19bf4fe0001070984,001,,,,,2024-03-06_15h03.27.004,CRL1h,2023.2.3,Win32,60.0240096,65e67470ae2fbf2172c317b2,65e885b58610140d04ce3df8,,,,,,,,,,,74.369,1.5,75.868,75.868,76.017,right,1,0.144,,76.017,77.018,1,3,19,13,1,partial,1,images/Ex6.jpg,right,training,hard,4,,,,,
,,,,,5980fff19bf4fe0001070984,001,,,,,2024-03-06_15h03.27.004,CRL1h,2023.2.3,Win32,60.0240096,65e67470ae2fbf2172c317b2,65e885b58610140d04ce3df8,,,,,,,,,,,77.019,1.5,78.517,78.518,80.001,right,0,1.478,,80.001,81.001,1,4,20,10,1,partial,1,images/Ex3.jpg,left,training,hard,4,,,,,
,,,,,5980fff19bf4fe0001070984,001,,,,,2024-03-06_15h03.27.004,CRL1h,2023.2.3,Win32,60.0240096,65e67470ae2fbf2172c317b2,65e885b58610140d04ce3df8,,,,,,,,,,,81.002,0.7,81.701,81.701,82.184,left,1,0.479,,82.184,83.184,1,5,21,1,1,partial,1,images/Ex2.jpg,left,training,hard,4,,,,,
,,,,,5980fff19bf4fe0001070984,001,,,,,2024-03-06_15h03.27.004,CRL1h,2023.2.3,Win32,60.0240096,65e67470ae2fbf2172c317b2,65e885b58610140d04ce3df8,,,,,,,,,,,83.185,0.8,83.984,83.984,84.601,left,1,0.611,,84.601,85.601,1,6,22,2,1,partial,1,images/Ex3.jpg,left,training,hard,4,,,,,
,,,,,5980fff19bf4fe0001070984,001,,,,,2024-03-06_15h03.27.004,CRL1h,2023.2.3,Win32,60.0240096,65e67470ae2fbf2172c317b2,65e885b58610140d04ce3df8,,,,,,,,,,,85.601,1,86.601,86.601,86.934,left,0,0.328,,86.934,87.934,1,7,23,4,1,partial,1,images/Ex5.jpg,right,training,hard,4,,,,,
,,,,,5980fff19bf4fe0001070984,001,,,,,2024-03-06_15h03.27.004,CRL1h,2023.2.3,Win32,60.0240096,65e67470ae2fbf2172c317b2,65e885b58610140d04ce3df8,,,,,,,,,,,87.935,1,88.934,88.934,89.217,right,0,0.28,,89.217,90.217,1,8,24,3,1,partial,1,images/Ex4.jpg,left,training,hard,4,,,,,
,,,,,5980fff19bf4fe0001070984,001,,,,,2024-03-06_15h03.27.004,CRL1h,2023.2.3,Win32,60.0240096,65e67470ae2fbf2172c317b2,65e885b58610140d04ce3df8,,,,,,,,,,,90.217,1,91.217,91.217,91.534,left,1,0.312,,91.534,92.533,1,9,25,8,1,partial,1,images/Ex1.jpg,left,training,hard,4,,,,,
,,,,,5980fff19bf4fe0001070984,001,,,,,2024-03-06_15h03.27.004,CRL1h,2023.2.3,Win32,60.0240096,65e67470ae2fbf2172c317b2,65e885b58610140d04ce3df8,,,,,,,,,,,92.534,0.6,93.134,93.134,93.75,left,0,0.614,,93.75,94.751,1,10,26,15,1,partial,1,images/Ex8.jpg,right,training,hard,4,,,,,
,,,,,5980fff19bf4fe0001070984,001,,,,,2024-03-06_15h03.27.004,CRL1h,2023.2.3,Win32,60.0240096,65e67470ae2fbf2172c317b2,65e885b58610140d04ce3df8,,,,,,,,,,,94.751,0.9,95.65,95.65,96.3,right,1,0.645,,96.3,97.301,1,11,27,5,1,partial,1,images/Ex6.jpg,right,training,hard,4,,,,,
,,,,,5980fff19bf4fe0001070984,001,,,,,2024-03-06_15h03.27.004,CRL1h,2023.2.3,Win32,60.0240096,65e67470ae2fbf2172c317b2,65e885b58610140d04ce3df8,,,,,,,,,,,97.301,1.1,98.402,98.402,98.934,right,0,0.526,,98.934,99.934,1,12,28,9,1,partial,1,images/Ex2.jpg,left,training,hard,4,,,,,
,,,,,5980fff19bf4fe0001070984,001,,,,,2024-03-06_15h03.27.004,CRL1h,2023.2.3,Win32,60.0240096,65e67470ae2fbf2172c317b2,65e885b58610140d04ce3df8,,,,,,,,,,,99.935,0.9,100.834,100.834,101.134,left,1,0.299,,101.134,102.133,1,13,29,0,1,partial,1,images/Ex1.jpg,left,training,hard,4,,,,,
,,,,,5980fff19bf4fe0001070984,001,,,,,2024-03-06_15h03.27.004,CRL1h,2023.2.3,Win32,60.0240096,65e67470ae2fbf2172c317b2,65e885b58610140d04ce3df8,,,,,,,,,,,102.134,0.5,102.633,102.633,102.984,left,0,0.347,,102.984,103.984,1,14,30,12,1,partial,1,images/Ex5.jpg,right,training,hard,4,,,,,
,,,,,5980fff19bf4fe0001070984,001,,,,,2024-03-06_15h03.27.004,CRL1h,2023.2.3,Win32,60.0240096,65e67470ae2fbf2172c317b2,65e885b58610140d04ce3df8,,,,,,,,,,,103.986,1.5,105.485,105.485,106.366,left,0,0.878,,106.366,107.367,1,15,31,6,1,partial,1,images/Ex7.jpg,right,training,hard,4,,,,,
,,,,,5980fff19bf4fe0001070984,001,,,,,2024-03-06_15h03.27.004,CRL1h,2023.2.3,Win32,60.0240096,65e67470ae2fbf2172c317b2,65e885b58610140d04ce3df8,,,,,,,,,,,107.368,1,108.366,108.366,108.65,right,1,0.279,,108.65,109.65,2,0,32,13,1,partial,1,images/Ex6.jpg,right,training,hard,4,,,,,
,,,,,5980fff19bf4fe0001070984,001,,,,,2024-03-06_15h03.27.004,CRL1h,2023.2.3,Win32,60.0240096,65e67470ae2fbf2172c317b2,65e885b58610140d04ce3df8,,,,,,,,,,,109.65,1.4,111.05,111.05,111.566,right,1,0.513,,111.566,112.566,2,1,33,12,1,partial,1,images/Ex5.jpg,right,training,hard,4,,,,,
,,,,,5980fff19bf4fe0001070984,001,,,,,2024-03-06_15h03.27.004,CRL1h,2023.2.3,Win32,60.0240096,65e67470ae2fbf2172c317b2,65e885b58610140d04ce3df8,,,,,,,,,,,112.567,0.9,113.467,113.467,113.867,right,1,0.396,,113.867,114.867,2,2,34,4,1,partial,1,images/Ex5.jpg,right,training,hard,4,,,,,
,,,,,5980fff19bf4fe0001070984,001,,,,,2024-03-06_15h03.27.004,CRL1h,2023.2.3,Win32,60.0240096,65e67470ae2fbf2172c317b2,65e885b58610140d04ce3df8,,,,,,,,,,,114.867,1.4,116.267,116.267,116.6,right,0,0.328,,116.6,117.6,2,3,35,11,1,partial,1,images/Ex4.jpg,left,training,hard,4,,,,,
,,,,,5980fff19bf4fe0001070984,001,,,,,2024-03-06_15h03.27.004,CRL1h,2023.2.3,Win32,60.0240096,65e67470ae2fbf2172c317b2,65e885b58610140d04ce3df8,,,,,,,,,,,117.601,0.8,118.4,118.4,118.917,left,1,0.512,,118.917,119.917,2,4,36,1,1,partial,1,images/Ex2.jpg,left,training,hard,4,,,,,
,,,,,5980fff19bf4fe0001070984,001,,,,,2024-03-06_15h03.27.004,CRL1h,2023.2.3,Win32,60.0240096,65e67470ae2fbf2172c317b2,65e885b58610140d04ce3df8,,,,,,,,,,,119.918,1.5,121.416,121.416,121.749,left,1,0.329,,121.749,122.749,2,5,37,8,1,partial,1,images/Ex1.jpg,left,training,hard,4,,,,,
,,,,,5980fff19bf4fe0001070984,001,,,,,2024-03-06_15h03.27.004,CRL1h,2023.2.3,Win32,60.0240096,65e67470ae2fbf2172c317b2,65e885b58610140d04ce3df8,,,,,,,,,,,122.75,0.9,123.649,123.649,123.999,left,0,0.345,,124,124.999,2,6,38,6,1,partial,1,images/Ex7.jpg,right,training,hard,4,,,,,
,,,,,5980fff19bf4fe0001070984,001,,,,,2024-03-06_15h03.27.004,CRL1h,2023.2.3,Win32,60.0240096,65e67470ae2fbf2172c317b2,65e885b58610140d04ce3df8,,,,,,,,,,,125,1.1,126.099,126.099,126.349,right,1,0.245,,126.349,127.349,2,7,39,5,1,partial,1,images/Ex6.jpg,right,training,hard,4,,,,,
,,,,,5980fff19bf4fe0001070984,001,,,,,2024-03-06_15h03.27.004,CRL1h,2023.2.3,Win32,60.0240096,65e67470ae2fbf2172c317b2,65e885b58610140d04ce3df8,,,,,,,,,,,127.35,0.6,127.949,127.949,128.416,right,0,0.463,,128.416,129.416,2,8,40,0,1,partial,1,images/Ex1.jpg,left,training,hard,4,,,,,
,,,,,5980fff19bf4fe0001070984,001,,,,,2024-03-06_15h03.27.004,CRL1h,2023.2.3,Win32,60.0240096,65e67470ae2fbf2172c317b2,65e885b58610140d04ce3df8,,,,,,,,,,,129.417,0.6,130.015,130.015,130.349,left,0,0.329,,130.349,131.349,2,9,41,14,1,partial,1,images/Ex7.jpg,right,training,hard,4,,,,,
,,,,,5980fff19bf4fe0001070984,001,,,,,2024-03-06_15h03.27.004,CRL1h,2023.2.3,Win32,60.0240096,65e67470ae2fbf2172c317b2,65e885b58610140d04ce3df8,,,,,,,,,,,131.349,0.6,131.949,131.949,132.931,right,0,0.979,,132.932,133.932,2,10,42,9,1,partial,1,images/Ex2.jpg,left,training,hard,4,,,,,
,,,,,5980fff19bf4fe0001070984,001,,,,,2024-03-06_15h03.27.004,CRL1h,2023.2.3,Win32,60.0240096,65e67470ae2fbf2172c317b2,65e885b58610140d04ce3df8,,,,,,,,,,,133.933,1.4,135.333,135.333,136.017,left,1,0.681,,136.017,137.016,2,11,43,10,1,partial,1,images/Ex3.jpg,left,training,hard,4,,,,,
,,,,,5980fff19bf4fe0001070984,001,,,,,2024-03-06_15h03.27.004,CRL1h,2023.2.3,Win32,60.0240096,65e67470ae2fbf2172c317b2,65e885b58610140d04ce3df8,,,,,,,,,,,137.017,0.9,137.916,137.916,138.566,left,1,0.646,,138.566,139.565,2,12,44,2,1,partial,1,images/Ex3.jpg,left,training,hard,4,,,,,
,,,,,5980fff19bf4fe0001070984,001,,,,,2024-03-06_15h03.27.004,CRL1h,2023.2.3,Win32,60.0240096,65e67470ae2fbf2172c317b2,65e885b58610140d04ce3df8,,,,,,,,,,,139.566,0.7,140.265,140.265,140.949,right,1,0.679,,140.95,141.948,2,13,45,7,1,partial,1,images/Ex8.jpg,right,training,hard,4,,,,,
,,,,,5980fff19bf4fe0001070984,001,,,,,2024-03-06_15h03.27.004,CRL1h,2023.2.3,Win32,60.0240096,65e67470ae2fbf2172c317b2,65e885b58610140d04ce3df8,,,,,,,,,,,141.949,0.9,142.848,142.849,143.766,right,1,0.913,,143.766,144.765,2,14,46,15,1,partial,1,images/Ex8.jpg,right,training,hard,4,,,,,
,,,,,5980fff19bf4fe0001070984,001,,,,,2024-03-06_15h03.27.004,CRL1h,2023.2.3,Win32,60.0240096,65e67470ae2fbf2172c317b2,65e885b58610140d04ce3df8,,,,,,,,,,,144.766,0.5,145.265,145.265,145.865,left,1,0.596,,145.865,146.865,2,15,47,3,1,partial,1,images/Ex4.jpg,left,training,hard,4,,,,,
,,,,,5980fff19bf4fe0001070984,001,,,,,2024-03-06_15h03.27.004,CRL1h,2023.2.3,Win32,60.0240096,65e67470ae2fbf2172c317b2,65e885b58610140d04ce3df8,,,,,,,,,,,146.866,1.2,148.065,148.065,148.398,right,0,0.331,,148.398,149.398,3,0,48,8,1,partial,1,images/Ex1.jpg,left,training,hard,4,,,,,
,,,,,5980fff19bf4fe0001070984,001,,,,,2024-03-06_15h03.27.004,CRL1h,2023.2.3,Win32,60.0240096,65e67470ae2fbf2172c317b2,65e885b58610140d04ce3df8,,,,,,,,,,,149.4,0.8,150.198,150.198,150.498,left,0,0.293,,150.498,151.498,3,1,49,14,1,partial,1,images/Ex7.jpg,right,training,hard,4,,,,,
,,,,,5980fff19bf4fe0001070984,001,,,,,2024-03-06_15h03.27.004,CRL1h,2023.2.3,Win32,60.0240096,65e67470ae2fbf2172c317b2,65e885b58610140d04ce3df8,,,,,,,,,,,151.499,0.8,152.298,152.298,153.048,right,1,0.747,,153.048,154.048,3,2,50,12,1,partial,1,images/Ex5.jpg,right,training,hard,4,,,,,
,,,,,5980fff19bf4fe0001070984,001,,,,,2024-03-06_15h03.27.004,CRL1h,2023.2.3,Win32,60.0240096,65e67470ae2fbf2172c317b2,65e885b58610140d04ce3df8,,,,,,,,,,,154.049,1.2,155.248,155.248,155.965,right,1,0.712,,155.965,156.964,3,3,51,15,1,partial,1,images/Ex8.jpg,right,training,hard,4,,,,,
,,,,,5980fff19bf4fe0001070984,001,,,,,2024-03-06_15h03.27.004,CRL1h,2023.2.3,Win32,60.0240096,65e67470ae2fbf2172c317b2,65e885b58610140d04ce3df8,,,,,,,,,,,156.965,1.4,158.364,158.364,159.014,right,0,0.647,,159.014,160.015,3,4,52,10,1,partial,1,images/Ex3.jpg,left,training,hard,4,,,,,
,,,,,5980fff19bf4fe0001070984,001,,,,,2024-03-06_15h03.27.004,CRL1h,2023.2.3,Win32,60.0240096,65e67470ae2fbf2172c317b2,65e885b58610140d04ce3df8,,,,,,,,,,,160.015,1.3,161.314,161.314,161.614,left,0,0.296,,161.614,162.615,3,5,53,4,1,partial,1,images/Ex5.jpg,right,training,hard,4,,,,,
,,,,,5980fff19bf4fe0001070984,001,,,,,2024-03-06_15h03.27.004,CRL1h,2023.2.3,Win32,60.0240096,65e67470ae2fbf2172c317b2,65e885b58610140d04ce3df8,,,,,,,,,,,162.616,1.1,163.714,163.714,164.031,right,1,0.313,,164.031,165.031,3,6,54,13,1,partial,1,images/Ex6.jpg,right,training,hard,4,,,,,
,,,,,5980fff19bf4fe0001070984,001,,,,,2024-03-06_15h03.27.004,CRL1h,2023.2.3,Win32,60.0240096,65e67470ae2fbf2172c317b2,65e885b58610140d04ce3df8,,,,,,,,,,,165.031,0.9,165.93,165.93,166.781,right,0,0.846,,166.781,167.78,3,7,55,11,1,partial,1,images/Ex4.jpg,left,training,hard,4,,,,,
,,,,,5980fff19bf4fe0001070984,001,,,,,2024-03-06_15h03.27.004,CRL1h,2023.2.3,Win32,60.0240096,65e67470ae2fbf2172c317b2,65e885b58610140d04ce3df8,,,,,,,,,,,167.781,1.1,168.88,168.88,169.164,left,0,0.279,,169.164,170.164,3,8,56,5,1,partial,1,images/Ex6.jpg,right,training,hard,4,,,,,
,,,,,5980fff19bf4fe0001070984,001,,,,,2024-03-06_15h03.27.004,CRL1h,2023.2.3,Win32,60.0240096,65e67470ae2fbf2172c317b2,65e885b58610140d04ce3df8,,,,,,,,,,,170.164,1,171.163,171.163,171.532,left,1,0.368,,171.532,172.532,3,9,57,9,1,partial,1,images/Ex2.jpg,left,training,hard,4,,,,,
,,,,,5980fff19bf4fe0001070984,001,,,,,2024-03-06_15h03.27.004,CRL1h,2023.2.3,Win32,60.0240096,65e67470ae2fbf2172c317b2,65e885b58610140d04ce3df8,,,,,,,,,,,172.533,1.2,173.731,173.731,174.931,right,1,1.194,,174.931,175.932,3,10,58,6,1,partial,1,images/Ex7.jpg,right,training,hard,4,,,,,
,,,,,5980fff19bf4fe0001070984,001,,,,,2024-03-06_15h03.27.004,CRL1h,2023.2.3,Win32,60.0240096,65e67470ae2fbf2172c317b2,65e885b58610140d04ce3df8,,,,,,,,,,,175.932,0.5,176.431,176.431,176.964,right,0,0.528,,176.964,177.963,3,11,59,1,1,partial,1,images/Ex2.jpg,left,training,hard,4,,,,,
,,,,,5980fff19bf4fe0001070984,001,,,,,2024-03-06_15h03.27.004,CRL1h,2023.2.3,Win32,60.0240096,65e67470ae2fbf2172c317b2,65e885b58610140d04ce3df8,,,,,,,,,,,177.964,0.6,178.563,178.563,178.864,left,1,0.295,,178.864,179.864,3,12,60,2,1,partial,1,images/Ex3.jpg,left,training,hard,4,,,,,
,,,,,5980fff19bf4fe0001070984,001,,,,,2024-03-06_15h03.27.004,CRL1h,2023.2.3,Win32,60.0240096,65e67470ae2fbf2172c317b2,65e885b58610140d04ce3df8,,,,,,,,,,,179.865,1.2,181.063,181.063,181.763,right,0,0.696,,181.764,182.763,3,13,61,3,1,partial,1,images/Ex4.jpg,left,training,hard,4,,,,,
,,,,,5980fff19bf4fe0001070984,001,,,,,2024-03-06_15h03.27.004,CRL1h,2023.2.3,Win32,60.0240096,65e67470ae2fbf2172c317b2,65e885b58610140d04ce3df8,,,,,,,,,,,182.764,1.3,184.064,184.064,184.847,left,1,0.781,,184.847,185.847,3,14,62,0,1,partial,1,images/Ex1.jpg,left,training,hard,4,,,,,
,,,,,5980fff19bf4fe0001070984,001,,,,,2024-03-06_15h03.27.004,CRL1h,2023.2.3,Win32,60.0240096,65e67470ae2fbf2172c317b2,65e885b58610140d04ce3df8,,,,,,,,,,,185.847,1.1,186.946,186.946,187.28,left,0,0.328,,187.28,188.28,3,15,63,7,1,partial,1,images/Ex8.jpg,right,training,hard,4,,,,,
,,,,,5980fff19bf4fe0001070984,001,,,,,2024-03-06_15h03.27.004,CRL1h,2023.2.3,Win32,60.0240096,65e67470ae2fbf2172c317b2,65e885b58610140d04ce3df8,,,,,,,,,,,188.281,0.9,189.18,189.18,189.546,right,0,0.361,,189.546,190.546,4,0,64,3,1,partial,1,images/Ex4.jpg,left,training,hard,4,,,,,
,,,,,5980fff19bf4fe0001070984,001,,,,,2024-03-06_15h03.27.004,CRL1h,2023.2.3,Win32,60.0240096,65e67470ae2fbf2172c317b2,65e885b58610140d04ce3df8,,,,,,,,,,,190.547,1.5,192.046,192.046,192.18,left,0,0.129,,192.18,193.18,4,1,65,5,1,partial,1,images/Ex6.jpg,right,training,hard,4,,,,,
,,,,,5980fff19bf4fe0001070984,001,,,,,2024-03-06_15h03.27.004,CRL1h,2023.2.3,Win32,60.0240096,65e67470ae2fbf2172c317b2,65e885b58610140d04ce3df8,,,,,,,,,,,193.181,0.6,193.78,193.78,194.281,left,1,0.495,,194.281,195.28,4,2,66,10,1,partial,1,images/Ex3.jpg,left,training,hard,4,,,,,
,,,,,5980fff19bf4fe0001070984,001,,,,,2024-03-06_15h03.27.004,CRL1h,2023.2.3,Win32,60.0240096,65e67470ae2fbf2172c317b2,65e885b58610140d04ce3df8,,,,,,,,,,,195.28,1.3,196.58,196.58,197.762,right,0,1.178,,197.762,198.763,4,3,67,9,1,partial,1,images/Ex2.jpg,left,training,hard,4,,,,,
,,,,,5980fff19bf4fe0001070984,001,,,,,2024-03-06_15h03.27.004,CRL1h,2023.2.3,Win32,60.0240096,65e67470ae2fbf2172c317b2,65e885b58610140d04ce3df8,,,,,,,,,,,198.764,1.5,200.262,200.262,200.447,left,0,0.179,,200.447,201.446,4,4,68,4,1,partial,1,images/Ex5.jpg,right,training,hard,4,,,,,
,,,,,5980fff19bf4fe0001070984,001,,,,,2024-03-06_15h03.27.004,CRL1h,2023.2.3,Win32,60.0240096,65e67470ae2fbf2172c317b2,65e885b58610140d04ce3df8,,,,,,,,,,,201.447,0.9,202.346,202.346,202.696,left,1,0.347,,202.696,203.696,4,5,69,0,1,partial,1,images/Ex1.jpg,left,training,hard,4,,,,,
,,,,,5980fff19bf4fe0001070984,001,,,,,2024-03-06_15h03.27.004,CRL1h,2023.2.3,Win32,60.0240096,65e67470ae2fbf2172c317b2,65e885b58610140d04ce3df8,,,,,,,,,,,203.696,0.7,204.396,204.396,205.562,right,0,1.162,,205.562,206.562,4,6,70,1,1,partial,1,images/Ex2.jpg,left,training,hard,4,,,,,
,,,,,5980fff19bf4fe0001070984,001,,,,,2024-03-06_15h03.27.004,CRL1h,2023.2.3,Win32,60.0240096,65e67470ae2fbf2172c317b2,65e885b58610140d04ce3df8,,,,,,,,,,,206.562,0.9,207.462,207.462,207.78,left,0,0.312,,207.78,208.781,4,7,71,14,1,partial,1,images/Ex7.jpg,right,training,hard,4,,,,,
,,,,,5980fff19bf4fe0001070984,001,,,,,2024-03-06_15h03.27.004,CRL1h,2023.2.3,Win32,60.0240096,65e67470ae2fbf2172c317b2,65e885b58610140d04ce3df8,,,,,,,,,,,208.781,0.7,209.479,209.479,209.829,left,0,0.345,,209.829,210.829,4,8,72,6,1,partial,1,images/Ex7.jpg,right,training,hard,4,,,,,
,,,,,5980fff19bf4fe0001070984,001,,,,,2024-03-06_15h03.27.004,CRL1h,2023.2.3,Win32,60.0240096,65e67470ae2fbf2172c317b2,65e885b58610140d04ce3df8,,,,,,,,,,,210.83,0.8,211.628,211.629,211.962,left,0,0.328,,211.962,212.962,4,9,73,7,1,partial,1,images/Ex8.jpg,right,training,hard,4,,,,,
,,,,,5980fff19bf4fe0001070984,001,,,,,2024-03-06_15h03.27.004,CRL1h,2023.2.3,Win32,60.0240096,65e67470ae2fbf2172c317b2,65e885b58610140d04ce3df8,,,,,,,,,,,212.963,1,213.962,213.962,214.029,right,1,0.063,,214.029,215.029,4,10,74,15,1,partial,1,images/Ex8.jpg,right,training,hard,4,,,,,
,,,,,5980fff19bf4fe0001070984,001,,,,,2024-03-06_15h03.27.004,CRL1h,2023.2.3,Win32,60.0240096,65e67470ae2fbf2172c317b2,65e885b58610140d04ce3df8,,,,,,,,,,,215.029,0.9,215.929,215.929,216.262,right,0,0.331,,216.262,217.263,4,11,75,8,1,partial,1,images/Ex1.jpg,left,training,hard,4,,,,,
,,,,,5980fff19bf4fe0001070984,001,,,,,2024-03-06_15h03.27.004,CRL1h,2023.2.3,Win32,60.0240096,65e67470ae2fbf2172c317b2,65e885b58610140d04ce3df8,,,,,,,,,,,217.263,1.3,218.562,218.562,218.745,left,0,0.178,,218.745,219.745,4,12,76,13,1,partial,1,images/Ex6.jpg,right,training,hard,4,,,,,
,,,,,5980fff19bf4fe0001070984,001,,,,,2024-03-06_15h03.27.004,CRL1h,2023.2.3,Win32,60.0240096,65e67470ae2fbf2172c317b2,65e885b58610140d04ce3df8,,,,,,,,,,,219.745,1.5,221.246,221.246,222.761,left,1,1.51,,222.762,223.762,4,13,77,2,1,partial,1,images/Ex3.jpg,left,training,hard,4,,,,,
,,,,,5980fff19bf4fe0001070984,001,,,,,2024-03-06_15h03.27.004,CRL1h,2023.2.3,Win32,60.0240096,65e67470ae2fbf2172c317b2,65e885b58610140d04ce3df8,,,,,,,,,,,223.763,1.4,225.163,225.163,225.861,right,0,0.695,,225.861,226.862,4,14,78,11,1,partial,1,images/Ex4.jpg,left,training,hard,4,,,,,
,,,,,5980fff19bf4fe0001070984,001,,,,,2024-03-06_15h03.27.004,CRL1h,2023.2.3,Win32,60.0240096,65e67470ae2fbf2172c317b2,65e885b58610140d04ce3df8,,,,,,,,,,,226.862,0.8,227.662,227.662,228.012,left,0,0.345,,228.012,229.012,4,15,79,12,1,partial,1,images/Ex5.jpg,right,training,hard,4,,,,,
,,,,,5980fff19bf4fe0001070984,001,,,,,2024-03-06_15h03.27.004,CRL1h,2023.2.3,Win32,60.0240096,65e67470ae2fbf2172c317b2,65e885b58610140d04ce3df8,,,,,,,,,,,229.012,0.6,229.611,229.611,230.194,right,1,0.579,,230.194,231.195,5,0,80,15,1,partial,1,images/Ex8.jpg,right,training,hard,4,,,,,
,,,,,5980fff19bf4fe0001070984,001,,,,,2024-03-06_15h03.27.004,CRL1h,2023.2.3,Win32,60.0240096,65e67470ae2fbf2172c317b2,65e885b58610140d04ce3df8,,,,,,,,,,,231.196,1,232.195,232.195,232.661,right,0,0.463,,232.661,233.661,5,1,81,10,1,partial,1,images/Ex3.jpg,left,training,hard,4,,,,,
,,,,,5980fff19bf4fe0001070984,001,,,,,2024-03-06_15h03.27.004,CRL1h,2023.2.3,Win32,60.0240096,65e67470ae2fbf2172c317b2,65e885b58610140d04ce3df8,,,,,,,,,,,233.662,1.4,235.061,235.061,235.961,right,0,0.896,,235.961,236.961,5,2,82,0,1,partial,1,images/Ex1.jpg,left,training,hard,4,,,,,
,,,,,5980fff19bf4fe0001070984,001,,,,,2024-03-06_15h03.27.004,CRL1h,2023.2.3,Win32,60.0240096,65e67470ae2fbf2172c317b2,65e885b58610140d04ce3df8,,,,,,,,,,,236.962,0.8,237.761,237.761,238.245,left,1,0.479,,238.245,239.245,5,3,83,9,1,partial,1,images/Ex2.jpg,left,training,hard,4,,,,,
,,,,,5980fff19bf4fe0001070984,001,,,,,2024-03-06_15h03.27.004,CRL1h,2023.2.3,Win32,60.0240096,65e67470ae2fbf2172c317b2,65e885b58610140d04ce3df8,,,,,,,,,,,239.245,1,240.245,240.245,241.595,left,1,1.346,,241.595,242.595,5,4,84,8,1,partial,1,images/Ex1.jpg,left,training,hard,4,,,,,
,,,,,5980fff19bf4fe0001070984,001,,,,,2024-03-06_15h03.27.004,CRL1h,2023.2.3,Win32,60.0240096,65e67470ae2fbf2172c317b2,65e885b58610140d04ce3df8,,,,,,,,,,,242.595,0.6,243.194,243.194,243.645,left,0,0.446,,243.646,244.645,5,5,85,13,1,partial,1,images/Ex6.jpg,right,training,hard,4,,,,,
,,,,,5980fff19bf4fe0001070984,001,,,,,2024-03-06_15h03.27.004,CRL1h,2023.2.3,Win32,60.0240096,65e67470ae2fbf2172c317b2,65e885b58610140d04ce3df8,,,,,,,,,,,244.646,0.6,245.244,245.244,245.644,right,1,0.396,,245.644,246.644,5,6,86,4,1,partial,1,images/Ex5.jpg,right,training,hard,4,,,,,
,,,,,5980fff19bf4fe0001070984,001,,,,,2024-03-06_15h03.27.004,CRL1h,2023.2.3,Win32,60.0240096,65e67470ae2fbf2172c317b2,65e885b58610140d04ce3df8,,,,,,,,,,,246.645,0.8,247.445,247.445,247.878,right,1,0.428,,247.878,248.878,5,7,87,14,1,partial,1,images/Ex7.jpg,right,training,hard,4,,,,,
,,,,,5980fff19bf4fe0001070984,001,,,,,2024-03-06_15h03.27.004,CRL1h,2023.2.3,Win32,60.0240096,65e67470ae2fbf2172c317b2,65e885b58610140d04ce3df8,,,,,,,,,,,248.878,1.4,250.278,250.278,250.594,right,1,0.313,,250.594,251.595,5,8,88,5,1,partial,1,images/Ex6.jpg,right,training,hard,4,,,,,
,,,,,5980fff19bf4fe0001070984,001,,,,,2024-03-06_15h03.27.004,CRL1h,2023.2.3,Win32,60.0240096,65e67470ae2fbf2172c317b2,65e885b58610140d04ce3df8,,,,,,,,,,,251.596,1.3,252.894,252.894,253.111,right,0,0.211,,253.111,254.11,5,9,89,3,1,partial,1,images/Ex4.jpg,left,training,hard,4,,,,,
,,,,,5980fff19bf4fe0001070984,001,,,,,2024-03-06_15h03.27.004,CRL1h,2023.2.3,Win32,60.0240096,65e67470ae2fbf2172c317b2,65e885b58610140d04ce3df8,,,,,,,,,,,254.11,0.9,255.011,255.011,255.294,left,0,0.278,,255.294,256.294,5,10,90,7,1,partial,1,images/Ex8.jpg,right,training,hard,4,,,,,
,,,,,5980fff19bf4fe0001070984,001,,,,,2024-03-06_15h03.27.004,CRL1h,2023.2.3,Win32,60.0240096,65e67470ae2fbf2172c317b2,65e885b58610140d04ce3df8,,,,,,,,,,,256.294,0.9,257.194,257.194,257.528,right,1,0.329,,257.528,258.527,5,11,91,6,1,partial,1,images/Ex7.jpg,right,training,hard,4,,,,,
,,,,,5980fff19bf4fe0001070984,001,,,,,2024-03-06_15h03.27.004,CRL1h,2023.2.3,Win32,60.0240096,65e67470ae2fbf2172c317b2,65e885b58610140d04ce3df8,,,,,,,,,,,258.527,0.7,259.227,259.227,259.643,right,1,0.412,,259.643,260.644,5,12,92,12,1,partial,1,images/Ex5.jpg,right,training,hard,4,,,,,
,,,,,5980fff19bf4fe0001070984,001,,,,,2024-03-06_15h03.27.004,CRL1h,2023.2.3,Win32,60.0240096,65e67470ae2fbf2172c317b2,65e885b58610140d04ce3df8,,,,,,,,,,,260.645,1,261.644,261.644,261.977,right,0,0.328,,261.977,262.976,5,13,93,11,1,partial,1,images/Ex4.jpg,left,training,hard,4,,,,,
,,,,,5980fff19bf4fe0001070984,001,,,,,2024-03-06_15h03.27.004,CRL1h,2023.2.3,Win32,60.0240096,65e67470ae2fbf2172c317b2,65e885b58610140d04ce3df8,,,,,,,,,,,262.976,0.8,263.776,263.776,264.077,left,1,0.296,,264.077,265.077,5,14,94,2,1,partial,1,images/Ex3.jpg,left,training,hard,4,,,,,
,,,,,5980fff19bf4fe0001070984,001,,,,,2024-03-06_15h03.27.004,CRL1h,2023.2.3,Win32,60.0240096,65e67470ae2fbf2172c317b2,65e885b58610140d04ce3df8,,,,,,,,,,,265.077,0.6,265.677,265.677,266.094,left,1,0.414,,266.094,267.093,5,15,95,1,1,partial,1,images/Ex2.jpg,left,training,hard,4,,,,,
,,,,,5980fff19bf4fe0001070984,001,,,,,2024-03-06_15h03.27.004,CRL1h,2023.2.3,Win32,60.0240096,65e67470ae2fbf2172c317b2,65e885b58610140d04ce3df8,,,,,,,,,,,267.094,0.9,267.993,267.993,268.327,left,1,0.331,,268.327,269.326,6,0,96,2,1,partial,1,images/Ex3.jpg,left,training,hard,4,,,,,
,,,,,5980fff19bf4fe0001070984,001,,,,,2024-03-06_15h03.27.004,CRL1h,2023.2.3,Win32,60.0240096,65e67470ae2fbf2172c317b2,65e885b58610140d04ce3df8,,,,,,,,,,,269.327,0.9,270.227,270.227,270.543,left,0,0.313,,270.543,271.543,6,1,97,12,1,partial,1,images/Ex5.jpg,right,training,hard,4,,,,,
,,,,,5980fff19bf4fe0001070984,001,,,,,2024-03-06_15h03.27.004,CRL1h,2023.2.3,Win32,60.0240096,65e67470ae2fbf2172c317b2,65e885b58610140d04ce3df8,,,,,,,,,,,271.544,0.6,272.144,272.144,272.593,right,0,0.446,,272.593,273.593,6,2,98,8,1,partial,1,images/Ex1.jpg,left,training,hard,4,,,,,
,,,,,5980fff19bf4fe0001070984,001,,,,,2024-03-06_15h03.27.004,CRL1h,2023.2.3,Win32,60.0240096,65e67470ae2fbf2172c317b2,65e885b58610140d04ce3df8,,,,,,,,,,,273.594,1.1,274.693,274.694,274.91,left,0,0.213,,274.91,275.91,6,3,99,4,1,partial,1,images/Ex5.jpg,right,training,hard,4,,,,,
,,,,,5980fff19bf4fe0001070984,001,,,,,2024-03-06_15h03.27.004,CRL1h,2023.2.3,Win32,60.0240096,65e67470ae2fbf2172c317b2,65e885b58610140d04ce3df8,,,,,,,,,,,275.911,1.2,277.109,277.109,277.444,left,1,0.329,,277.444,278.443,6,4,100,1,1,partial,1,images/Ex2.jpg,left,training,hard,4,,,,,
,,,,,5980fff19bf4fe0001070984,001,,,,,2024-03-06_15h03.27.004,CRL1h,2023.2.3,Win32,60.0240096,65e67470ae2fbf2172c317b2,65e885b58610140d04ce3df8,,,,,,,,,,,278.443,0.5,278.943,278.943,279.309,left,1,0.362,,279.309,280.309,6,5,101,9,1,partial,1,images/Ex2.jpg,left,training,hard,4,,,,,
,,,,,5980fff19bf4fe0001070984,001,,,,,2024-03-06_15h03.27.004,CRL1h,2023.2.3,Win32,60.0240096,65e67470ae2fbf2172c317b2,65e885b58610140d04ce3df8,,,,,,,,,,,280.31,0.7,281.009,281.009,281.343,left,0,0.329,,281.343,282.343,6,6,102,6,1,partial,1,images/Ex7.jpg,right,training,hard,4,,,,,
,,,,,5980fff19bf4fe0001070984,001,,,,,2024-03-06_15h03.27.004,CRL1h,2023.2.3,Win32,60.0240096,65e67470ae2fbf2172c317b2,65e885b58610140d04ce3df8,,,,,,,,,,,282.343,0.7,283.042,283.042,283.376,right,1,0.329,,283.376,284.376,6,7,103,14,1,partial,1,images/Ex7.jpg,right,training,hard,4,,,,,
,,,,,5980fff19bf4fe0001070984,001,,,,,2024-03-06_15h03.27.004,CRL1h,2023.2.3,Win32,60.0240096,65e67470ae2fbf2172c317b2,65e885b58610140d04ce3df8,,,,,,,,,,,284.376,0.8,285.175,285.175,286.059,left,1,0.877,,286.059,287.059,6,8,104,10,1,partial,1,images/Ex3.jpg,left,training,hard,4,,,,,
,,,,,5980fff19bf4fe0001070984,001,,,,,2024-03-06_15h03.27.004,CRL1h,2023.2.3,Win32,60.0240096,65e67470ae2fbf2172c317b2,65e885b58610140d04ce3df8,,,,,,,,,,,287.06,0.9,287.959,287.959,288.759,right,0,0.796,,288.759,289.76,6,9,105,0,1,partial,1,images/Ex1.jpg,left,training,hard,4,,,,,
,,,,,5980fff19bf4fe0001070984,001,,,,,2024-03-06_15h03.27.004,CRL1h,2023.2.3,Win32,60.0240096,65e67470ae2fbf2172c317b2,65e885b58610140d04ce3df8,,,,,,,,,,,289.76,1.3,291.06,291.06,291.859,right,0,0.793,,291.859,292.859,6,10,106,3,1,partial,1,images/Ex4.jpg,left,training,hard,4,,,,,
,,,,,5980fff19bf4fe0001070984,001,,,,,2024-03-06_15h03.27.004,CRL1h,2023.2.3,Win32,60.0240096,65e67470ae2fbf2172c317b2,65e885b58610140d04ce3df8,,,,,,,,,,,292.86,1.3,294.159,294.159,294.309,left,0,0.145,,294.309,295.309,6,11,107,13,1,partial,1,images/Ex6.jpg,right,training,hard,4,,,,,
,,,,,5980fff19bf4fe0001070984,001,,,,,2024-03-06_15h03.27.004,CRL1h,2023.2.3,Win32,60.0240096,65e67470ae2fbf2172c317b2,65e885b58610140d04ce3df8,,,,,,,,,,,295.31,0.6,295.91,295.91,296.341,right,1,0.428,,296.341,297.342,6,12,108,7,1,partial,1,images/Ex8.jpg,right,training,hard,4,,,,,
,,,,,5980fff19bf4fe0001070984,001,,,,,2024-03-06_15h03.27.004,CRL1h,2023.2.3,Win32,60.0240096,65e67470ae2fbf2172c317b2,65e885b58610140d04ce3df8,,,,,,,,,,,297.343,1.2,298.542,298.542,299.492,right,0,0.944,,299.492,300.491,6,13,109,11,1,partial,1,images/Ex4.jpg,left,training,hard,4,,,,,
,,,,,5980fff19bf4fe0001070984,001,,,,,2024-03-06_15h03.27.004,CRL1h,2023.2.3,Win32,60.0240096,65e67470ae2fbf2172c317b2,65e885b58610140d04ce3df8,,,,,,,,,,,300.492,1.1,301.592,301.592,301.892,left,0,0.296,,301.893,302.891,6,14,110,15,1,partial,1,images/Ex8.jpg,right,training,hard,4,,,,,
,,,,,5980fff19bf4fe0001070984,001,,,,,2024-03-06_15h03.27.004,CRL1h,2023.2.3,Win32,60.0240096,65e67470ae2fbf2172c317b2,65e885b58610140d04ce3df8,,,,,,,,,,,302.892,1.3,304.192,304.193,305.293,right,1,1.095,,305.293,306.291,6,15,111,5,1,partial,1,images/Ex6.jpg,right,training,hard,4,,,,,
,,,,,5980fff19bf4fe0001070984,001,,,,,2024-03-06_15h03.27.004,CRL1h,2023.2.3,Win32,60.0240096,65e67470ae2fbf2172c317b2,65e885b58610140d04ce3df8,,,,,,,,,,,306.292,1.2,307.492,307.492,309.125,right,1,1.633,,309.125,310.125,7,0,112,5,1,partial,1,images/Ex6.jpg,right,training,hard,4,,,,,
,,,,,5980fff19bf4fe0001070984,001,,,,,2024-03-06_15h03.27.004,CRL1h,2023.2.3,Win32,60.0240096,65e67470ae2fbf2172c317b2,65e885b58610140d04ce3df8,,,,,,,,,,,310.126,0.7,310.824,310.824,311.792,left,1,0.964,,311.792,312.791,7,1,113,2,1,partial,1,images/Ex3.jpg,left,training,hard,4,,,,,
,,,,,5980fff19bf4fe0001070984,001,,,,,2024-03-06_15h03.27.004,CRL1h,2023.2.3,Win32,60.0240096,65e67470ae2fbf2172c317b2,65e885b58610140d04ce3df8,,,,,,,,,,,312.792,0.6,313.392,313.392,314.143,right,0,0.745,,314.143,315.141,7,2,114,0,1,partial,1,images/Ex1.jpg,left,training,hard,4,,,,,
,,,,,5980fff19bf4fe0001070984,001,,,,,2024-03-06_15h03.27.004,CRL1h,2023.2.3,Win32,60.0240096,65e67470ae2fbf2172c317b2,65e885b58610140d04ce3df8,,,,,,,,,,,315.143,1,316.141,316.141,317.491,right,1,1.344,,317.491,318.491,7,3,115,7,1,partial,1,images/Ex8.jpg,right,training,hard,4,,,,,
,,,,,5980fff19bf4fe0001070984,001,,,,,2024-03-06_15h03.27.004,CRL1h,2023.2.3,Win32,60.0240096,65e67470ae2fbf2172c317b2,65e885b58610140d04ce3df8,,,,,,,,,,,318.491,0.5,318.991,318.991,319.558,right,1,0.565,,319.558,320.557,7,4,116,15,1,partial,1,images/Ex8.jpg,right,training,hard,4,,,,,
,,,,,5980fff19bf4fe0001070984,001,,,,,2024-03-06_15h03.27.004,CRL1h,2023.2.3,Win32,60.0240096,65e67470ae2fbf2172c317b2,65e885b58610140d04ce3df8,,,,,,,,,,,320.559,1.1,321.658,321.658,322.175,left,1,0.512,,322.175,323.175,7,5,117,3,1,partial,1,images/Ex4.jpg,left,training,hard,4,,,,,
,,,,,5980fff19bf4fe0001070984,001,,,,,2024-03-06_15h03.27.004,CRL1h,2023.2.3,Win32,60.0240096,65e67470ae2fbf2172c317b2,65e885b58610140d04ce3df8,,,,,,,,,,,323.175,0.5,323.675,323.675,324.607,left,0,0.928,,324.607,325.608,7,6,118,4,1,partial,1,images/Ex5.jpg,right,training,hard,4,,,,,
,,,,,5980fff19bf4fe0001070984,001,,,,,2024-03-06_15h03.27.004,CRL1h,2023.2.3,Win32,60.0240096,65e67470ae2fbf2172c317b2,65e885b58610140d04ce3df8,,,,,,,,,,,325.608,0.8,326.408,326.409,327.141,right,0,0.727,,327.141,328.14,7,7,119,10,1,partial,1,images/Ex3.jpg,left,training,hard,4,,,,,
,,,,,5980fff19bf4fe0001070984,001,,,,,2024-03-06_15h03.27.004,CRL1h,2023.2.3,Win32,60.0240096,65e67470ae2fbf2172c317b2,65e885b58610140d04ce3df8,,,,,,,,,,,328.141,0.7,328.84,328.84,329.757,right,1,0.912,,329.757,330.758,7,8,120,6,1,partial,1,images/Ex7.jpg,right,training,hard,4,,,,,
,,,,,5980fff19bf4fe0001070984,001,,,,,2024-03-06_15h03.27.004,CRL1h,2023.2.3,Win32,60.0240096,65e67470ae2fbf2172c317b2,65e885b58610140d04ce3df8,,,,,,,,,,,330.758,1.4,332.157,332.157,333.141,left,1,0.981,,333.141,334.14,7,9,121,1,1,partial,1,images/Ex2.jpg,left,training,hard,4,,,,,
,,,,,5980fff19bf4fe0001070984,001,,,,,2024-03-06_15h03.27.004,CRL1h,2023.2.3,Win32,60.0240096,65e67470ae2fbf2172c317b2,65e885b58610140d04ce3df8,,,,,,,,,,,334.141,1.3,335.442,335.442,336.357,right,0,0.911,,336.358,337.357,7,10,122,11,1,partial,1,images/Ex4.jpg,left,training,hard,4,,,,,
,,,,,5980fff19bf4fe0001070984,001,,,,,2024-03-06_15h03.27.004,CRL1h,2023.2.3,Win32,60.0240096,65e67470ae2fbf2172c317b2,65e885b58610140d04ce3df8,,,,,,,,,,,337.357,0.5,337.856,337.857,339.14,left,0,1.282,,339.14,340.14,7,11,123,14,1,partial,1,images/Ex7.jpg,right,training,hard,4,,,,,
,,,,,5980fff19bf4fe0001070984,001,,,,,2024-03-06_15h03.27.004,CRL1h,2023.2.3,Win32,60.0240096,65e67470ae2fbf2172c317b2,65e885b58610140d04ce3df8,,,,,,,,,,,340.14,0.7,340.84,340.84,342.124,left,1,1.279,,342.124,343.124,7,12,124,8,1,partial,1,images/Ex1.jpg,left,training,hard,4,,,,,
,,,,,5980fff19bf4fe0001070984,001,,,,,2024-03-06_15h03.27.004,CRL1h,2023.2.3,Win32,60.0240096,65e67470ae2fbf2172c317b2,65e885b58610140d04ce3df8,,,,,,,,,,,343.124,1.4,344.523,344.523,345.157,left,0,0.633,,345.157,346.157,7,13,125,12,1,partial,1,images/Ex5.jpg,right,training,hard,4,,,,,
,,,,,5980fff19bf4fe0001070984,001,,,,,2024-03-06_15h03.27.004,CRL1h,2023.2.3,Win32,60.0240096,65e67470ae2fbf2172c317b2,65e885b58610140d04ce3df8,,,,,,,,,,,346.157,1.2,347.356,347.356,347.673,right,0,0.312,,347.673,348.673,7,14,126,9,1,partial,1,images/Ex2.jpg,left,training,hard,4,,,,,
,,,,,5980fff19bf4fe0001070984,001,,,,,2024-03-06_15h03.27.004,CRL1h,2023.2.3,Win32,60.0240096,65e67470ae2fbf2172c317b2,65e885b58610140d04ce3df8,,,,,,,,,,,348.674,0.9,349.574,349.574,349.873,left,0,0.295,,349.873,350.874,7,15,127,13,1,partial,1,images/Ex6.jpg,right,training,hard,4,,,,,
,,,,,5980fff19bf4fe0001070984,001,,,,,2024-03-06_15h03.27.004,CRL1h,2023.2.3,Win32,60.0240096,65e67470ae2fbf2172c317b2,65e885b58610140d04ce3df8,,,,,,,,,,,350.88,1,351.874,351.874,352.807,right,0,0.928,,352.807,353.806,0,0,0,14,1,partial,2,images/Ex7.jpg,left,reversed,hard,4,,,,,
,,,,,5980fff19bf4fe0001070984,001,,,,,2024-03-06_15h03.27.004,CRL1h,2023.2.3,Win32,60.0240096,65e67470ae2fbf2172c317b2,65e885b58610140d04ce3df8,,,,,,,,,,,353.807,1.5,355.306,355.306,355.641,left,1,0.33,,355.641,356.64,0,1,1,10,1,partial,2,images/Ex3.jpg,left,nonreversed,hard,4,,,,,
,,,,,5980fff19bf4fe0001070984,001,,,,,2024-03-06_15h03.27.004,CRL1h,2023.2.3,Win32,60.0240096,65e67470ae2fbf2172c317b2,65e885b58610140d04ce3df8,,,,,,,,,,,356.64,0.5,357.14,357.14,358.072,right,1,0.929,,358.073,359.073,0,2,2,8,1,partial,2,images/Ex1.jpg,right,reversed,hard,4,,,,,
,,,,,5980fff19bf4fe0001070984,001,,,,,2024-03-06_15h03.27.004,CRL1h,2023.2.3,Win32,60.0240096,65e67470ae2fbf2172c317b2,65e885b58610140d04ce3df8,,,,,,,,,,,359.074,1,360.073,360.073,361.606,left,1,1.529,,361.606,362.606,0,3,3,11,1,partial,2,images/Ex4.jpg,left,nonreversed,hard,4,,,,,
,,,,,5980fff19bf4fe0001070984,001,,,,,2024-03-06_15h03.27.004,CRL1h,2023.2.3,Win32,60.0240096,65e67470ae2fbf2172c317b2,65e885b58610140d04ce3df8,,,,,,,,,,,362.606,0.6,363.206,363.206,364.023,left,1,0.811,,364.023,365.023,0,4,4,3,1,partial,2,images/Ex4.jpg,left,nonreversed,hard,4,,,,,
,,,,,5980fff19bf4fe0001070984,001,,,,,2024-03-06_15h03.27.004,CRL1h,2023.2.3,Win32,60.0240096,65e67470ae2fbf2172c317b2,65e885b58610140d04ce3df8,,,,,,,,,,,365.023,1.2,366.222,366.222,367.672,left,1,1.448,,367.672,368.672,0,5,5,7,1,partial,2,images/Ex8.jpg,left,reversed,hard,4,,,,,
,,,,,5980fff19bf4fe0001070984,001,,,,,2024-03-06_15h03.27.004,CRL1h,2023.2.3,Win32,60.0240096,65e67470ae2fbf2172c317b2,65e885b58610140d04ce3df8,,,,,,,,,,,368.672,1.4,370.072,370.072,370.972,left,1,0.896,,370.972,371.972,0,6,6,2,1,partial,2,images/Ex3.jpg,left,nonreversed,hard,4,,,,,
,,,,,5980fff19bf4fe0001070984,001,,,,,2024-03-06_15h03.27.004,CRL1h,2023.2.3,Win32,60.0240096,65e67470ae2fbf2172c317b2,65e885b58610140d04ce3df8,,,,,,,,,,,371.973,1,372.972,372.972,373.939,left,0,0.963,,373.939,374.939,0,7,7,5,1,partial,2,images/Ex6.jpg,right,nonreversed,hard,4,,,,,
,,,,,5980fff19bf4fe0001070984,001,,,,,2024-03-06_15h03.27.004,CRL1h,2023.2.3,Win32,60.0240096,65e67470ae2fbf2172c317b2,65e885b58610140d04ce3df8,,,,,,,,,,,374.94,0.7,375.64,375.64,376.672,right,1,1.029,,376.672,377.672,0,8,8,12,1,partial,2,images/Ex5.jpg,right,nonreversed,hard,4,,,,,
,,,,,5980fff19bf4fe0001070984,001,,,,,2024-03-06_15h03.27.004,CRL1h,2023.2.3,Win32,60.0240096,65e67470ae2fbf2172c317b2,65e885b58610140d04ce3df8,,,,,,,,,,,377.672,1.4,379.071,379.072,379.788,right,0,0.715,,379.788,380.789,0,9,9,15,1,partial,2,images/Ex8.jpg,left,reversed,hard,4,,,,,
,,,,,5980fff19bf4fe0001070984,001,,,,,2024-03-06_15h03.27.004,CRL1h,2023.2.3,Win32,60.0240096,65e67470ae2fbf2172c317b2,65e885b58610140d04ce3df8,,,,,,,,,,,380.79,0.7,381.488,381.488,382.389,right,1,0.895,,382.389,383.389,0,10,10,1,1,partial,2,images/Ex2.jpg,right,reversed,hard,4,,,,,
,,,,,5980fff19bf4fe0001070984,001,,,,,2024-03-06_15h03.27.004,CRL1h,2023.2.3,Win32,60.0240096,65e67470ae2fbf2172c317b2,65e885b58610140d04ce3df8,,,,,,,,,,,383.39,1.3,384.689,384.69,385.539,right,1,0.843,,385.539,386.538,0,11,11,4,1,partial,2,images/Ex5.jpg,right,nonreversed,hard,4,,,,,
,,,,,5980fff19bf4fe0001070984,001,,,,,2024-03-06_15h03.27.004,CRL1h,2023.2.3,Win32,60.0240096,65e67470ae2fbf2172c317b2,65e885b58610140d04ce3df8,,,,,,,,,,,386.539,0.6,387.138,387.138,387.756,right,1,0.612,,387.756,388.754,0,12,12,9,1,partial,2,images/Ex2.jpg,right,reversed,hard,4,,,,,
,,,,,5980fff19bf4fe0001070984,001,,,,,2024-03-06_15h03.27.004,CRL1h,2023.2.3,Win32,60.0240096,65e67470ae2fbf2172c317b2,65e885b58610140d04ce3df8,,,,,,,,,,,388.755,0.9,389.655,389.655,390.505,right,1,0.847,,390.505,391.505,0,13,13,0,1,partial,2,images/Ex1.jpg,right,reversed,hard,4,,,,,
,,,,,5980fff19bf4fe0001070984,001,,,,,2024-03-06_15h03.27.004,CRL1h,2023.2.3,Win32,60.0240096,65e67470ae2fbf2172c317b2,65e885b58610140d04ce3df8,,,,,,,,,,,391.505,0.5,392.005,392.006,392.672,right,0,0.661,,392.672,393.671,0,14,14,6,1,partial,2,images/Ex7.jpg,left,reversed,hard,4,,,,,
,,,,,5980fff19bf4fe0001070984,001,,,,,2024-03-06_15h03.27.004,CRL1h,2023.2.3,Win32,60.0240096,65e67470ae2fbf2172c317b2,65e885b58610140d04ce3df8,,,,,,,,,,,393.672,1.2,394.871,394.871,395.722,left,0,0.847,,395.722,396.721,0,15,15,13,1,partial,2,images/Ex6.jpg,right,nonreversed,hard,4,,,,,
,,,,,5980fff19bf4fe0001070984,001,,,,,2024-03-06_15h03.27.004,CRL1h,2023.2.3,Win32,60.0240096,65e67470ae2fbf2172c317b2,65e885b58610140d04ce3df8,,,,,,,,,,,396.722,0.9,397.622,397.622,398.221,right,0,0.595,,398.221,399.221,1,0,16,3,1,partial,2,images/Ex4.jpg,left,nonreversed,hard,4,,,,,
,,,,,5980fff19bf4fe0001070984,001,,,,,2024-03-06_15h03.27.004,CRL1h,2023.2.3,Win32,60.0240096,65e67470ae2fbf2172c317b2,65e885b58610140d04ce3df8,,,,,,,,,,,399.222,1.2,400.421,400.421,401.237,left,1,0.815,,401.237,402.237,1,1,17,11,1,partial,2,images/Ex4.jpg,left,nonreversed,hard,4,,,,,
,,,,,5980fff19bf4fe0001070984,001,,,,,2024-03-06_15h03.27.004,CRL1h,2023.2.3,Win32,60.0240096,65e67470ae2fbf2172c317b2,65e885b58610140d04ce3df8,,,,,,,,,,,402.239,1.2,403.438,403.438,404.338,left,1,0.894,,404.338,405.337,1,2,18,14,1,partial,2,images/Ex7.jpg,left,reversed,hard,4,,,,,
,,,,,5980fff19bf4fe0001070984,001,,,,,2024-03-06_15h03.27.004,CRL1h,2023.2.3,Win32,60.0240096,65e67470ae2fbf2172c317b2,65e885b58610140d04ce3df8,,,,,,,,,,,405.338,0.6,405.938,405.938,406.771,right,1,0.829,,406.771,407.77,1,3,19,4,1,partial,2,images/Ex5.jpg,right,nonreversed,hard,4,,,,,
,,,,,5980fff19bf4fe0001070984,001,,,,,2024-03-06_15h03.27.004,CRL1h,2023.2.3,Win32,60.0240096,65e67470ae2fbf2172c317b2,65e885b58610140d04ce3df8,,,,,,,,,,,407.771,0.8,408.571,408.571,409.354,right,1,0.78,,409.355,410.354,1,4,20,0,1,partial,2,images/Ex1.jpg,right,reversed,hard,4,,,,,
,,,,,5980fff19bf4fe0001070984,001,,,,,2024-03-06_15h03.27.004,CRL1h,2023.2.3,Win32,60.0240096,65e67470ae2fbf2172c317b2,65e885b58610140d04ce3df8,,,,,,,,,,,410.355,0.8,411.154,411.154,412.021,right,1,0.862,,412.021,413.02,1,5,21,12,1,partial,2,images/Ex5.jpg,right,nonreversed,hard,4,,,,,
,,,,,5980fff19bf4fe0001070984,001,,,,,2024-03-06_15h03.27.004,CRL1h,2023.2.3,Win32,60.0240096,65e67470ae2fbf2172c317b2,65e885b58610140d04ce3df8,,,,,,,,,,,413.02,1.3,414.32,414.32,415.005,right,1,0.679,,415.005,416.004,1,6,22,13,1,partial,2,images/Ex6.jpg,right,nonreversed,hard,4,,,,,
,,,,,5980fff19bf4fe0001070984,001,,,,,2024-03-06_15h03.27.004,CRL1h,2023.2.3,Win32,60.0240096,65e67470ae2fbf2172c317b2,65e885b58610140d04ce3df8,,,,,,,,,,,416.005,1.2,417.204,417.204,417.854,right,0,0.646,,417.854,418.855,1,7,23,6,1,partial,2,images/Ex7.jpg,left,reversed,hard,4,,,,,
,,,,,5980fff19bf4fe0001070984,001,,,,,2024-03-06_15h03.27.004,CRL1h,2023.2.3,Win32,60.0240096,65e67470ae2fbf2172c317b2,65e885b58610140d04ce3df8,,,,,,,,,,,418.856,0.5,419.354,419.354,420.137,left,1,0.777,,420.138,421.138,1,8,24,10,1,partial,2,images/Ex3.jpg,left,nonreversed,hard,4,,,,,
,,,,,5980fff19bf4fe0001070984,001,,,,,2024-03-06_15h03.27.004,CRL1h,2023.2.3,Win32,60.0240096,65e67470ae2fbf2172c317b2,65e885b58610140d04ce3df8,,,,,,,,,,,421.14,0.9,422.036,422.037,422.887,right,1,0.845,,422.887,423.887,1,9,25,1,1,partial,2,images/Ex2.jpg,right,reversed,hard,4,,,,,
,,,,,5980fff19bf4fe0001070984,001,,,,,2024-03-06_15h03.27.004,CRL1h,2023.2.3,Win32,60.0240096,65e67470ae2fbf2172c317b2,65e885b58610140d04ce3df8,,,,,,,,,,,423.887,0.5,424.387,424.387,425.421,left,1,1.033,,425.421,426.421,1,10,26,15,1,partial,2,images/Ex8.jpg,left,reversed,hard,4,,,,,
,,,,,5980fff19bf4fe0001070984,001,,,,,2024-03-06_15h03.27.004,CRL1h,2023.2.3,Win32,60.0240096,65e67470ae2fbf2172c317b2,65e885b58610140d04ce3df8,,,,,,,,,,,426.421,0.7,427.121,427.121,427.987,right,1,0.861,,427.987,428.986,1,11,27,9,1,partial,2,images/Ex2.jpg,right,reversed,hard,4,,,,,
,,,,,5980fff19bf4fe0001070984,001,,,,,2024-03-06_15h03.27.004,CRL1h,2023.2.3,Win32,60.0240096,65e67470ae2fbf2172c317b2,65e885b58610140d04ce3df8,,,,,,,,,,,428.987,1.1,430.087,430.087,430.903,left,0,0.812,,430.903,431.904,1,12,28,5,1,partial,2,images/Ex6.jpg,right,nonreversed,hard,4,,,,,
,,,,,5980fff19bf4fe0001070984,001,,,,,2024-03-06_15h03.27.004,CRL1h,2023.2.3,Win32,60.0240096,65e67470ae2fbf2172c317b2,65e885b58610140d04ce3df8,,,,,,,,,,,431.904,0.5,432.403,432.403,432.937,right,1,0.529,,432.937,433.937,1,13,29,8,1,partial,2,images/Ex1.jpg,right,reversed,hard,4,,,,,
,,,,,5980fff19bf4fe0001070984,001,,,,,2024-03-06_15h03.27.004,CRL1h,2023.2.3,Win32,60.0240096,65e67470ae2fbf2172c317b2,65e885b58610140d04ce3df8,,,,,,,,,,,433.937,0.7,434.636,434.636,435.453,left,1,0.813,,435.453,436.454,1,14,30,2,1,partial,2,images/Ex3.jpg,left,nonreversed,hard,4,,,,,
,,,,,5980fff19bf4fe0001070984,001,,,,,2024-03-06_15h03.27.004,CRL1h,2023.2.3,Win32,60.0240096,65e67470ae2fbf2172c317b2,65e885b58610140d04ce3df8,,,,,,,,,,,436.454,1.2,437.653,437.653,438.669,right,0,1.015,,438.669,439.67,1,15,31,7,1,partial,2,images/Ex8.jpg,left,reversed,hard,4,,,,,
,,,,,5980fff19bf4fe0001070984,001,,,,,2024-03-06_15h03.27.004,CRL1h,2023.2.3,Win32,60.0240096,65e67470ae2fbf2172c317b2,65e885b58610140d04ce3df8,,,,,,,,,,,439.67,1.2,440.87,440.87,441.203,right,0,0.329,,441.203,442.203,2,0,32,2,1,partial,2,images/Ex3.jpg,left,nonreversed,hard,4,,,,,
,,,,,5980fff19bf4fe0001070984,001,,,,,2024-03-06_15h03.27.004,CRL1h,2023.2.3,Win32,60.0240096,65e67470ae2fbf2172c317b2,65e885b58610140d04ce3df8,,,,,,,,,,,442.203,1.4,443.603,443.603,444.203,left,0,0.595,,444.203,445.203,2,1,33,12,1,partial,2,images/Ex5.jpg,right,nonreversed,hard,4,,,,,
,,,,,5980fff19bf4fe0001070984,001,,,,,2024-03-06_15h03.27.004,CRL1h,2023.2.3,Win32,60.0240096,65e67470ae2fbf2172c317b2,65e885b58610140d04ce3df8,,,,,,,,,,,445.204,1.1,446.303,446.303,446.752,right,1,0.444,,446.753,447.752,2,2,34,4,1,partial,2,images/Ex5.jpg,right,nonreversed,hard,4,,,,,
,,,,,5980fff19bf4fe0001070984,001,,,,,2024-03-06_15h03.27.004,CRL1h,2023.2.3,Win32,60.0240096,65e67470ae2fbf2172c317b2,65e885b58610140d04ce3df8,,,,,,,,,,,447.753,1.3,449.053,449.053,449.769,left,1,0.711,,449.769,450.769,2,3,35,10,1,partial,2,images/Ex3.jpg,left,nonreversed,hard,4,,,,,
,,,,,5980fff19bf4fe0001070984,001,,,,,2024-03-06_15h03.27.004,CRL1h,2023.2.3,Win32,60.0240096,65e67470ae2fbf2172c317b2,65e885b58610140d04ce3df8,,,,,,,,,,,450.769,1.5,452.269,452.269,452.902,left,1,0.629,,452.902,453.902,2,4,36,3,1,partial,2,images/Ex4.jpg,left,nonreversed,hard,4,,,,,
,,,,,5980fff19bf4fe0001070984,001,,,,,2024-03-06_15h03.27.004,CRL1h,2023.2.3,Win32,60.0240096,65e67470ae2fbf2172c317b2,65e885b58610140d04ce3df8,,,,,,,,,,,453.903,0.8,454.702,454.702,455.47,left,1,0.765,,455.47,456.469,2,5,37,14,1,partial,2,images/Ex7.jpg,left,reversed,hard,4,,,,,
,,,,,5980fff19bf4fe0001070984,001,,,,,2024-03-06_15h03.27.004,CRL1h,2023.2.3,Win32,60.0240096,65e67470ae2fbf2172c317b2,65e885b58610140d04ce3df8,,,,,,,,,,,456.471,0.6,457.069,457.069,457.903,left,0,0.828,,457.903,458.902,2,6,38,1,1,partial,2,images/Ex2.jpg,right,reversed,hard,4,,,,,
,,,,,5980fff19bf4fe0001070984,001,,,,,2024-03-06_15h03.27.004,CRL1h,2023.2.3,Win32,60.0240096,65e67470ae2fbf2172c317b2,65e885b58610140d04ce3df8,,,,,,,,,,,458.902,1.1,460.002,460.002,460.27,right,0,0.263,,460.27,461.269,2,7,39,6,1,partial,2,images/Ex7.jpg,left,reversed,hard,4,,,,,
,,,,,5980fff19bf4fe0001070984,001,,,,,2024-03-06_15h03.27.004,CRL1h,2023.2.3,Win32,60.0240096,65e67470ae2fbf2172c317b2,65e885b58610140d04ce3df8,,,,,,,,,,,461.269,1.3,462.569,462.569,462.785,left,1,0.212,,462.785,463.785,2,8,40,7,1,partial,2,images/Ex8.jpg,left,reversed,hard,4,,,,,
,,,,,5980fff19bf4fe0001070984,001,,,,,2024-03-06_15h03.27.004,CRL1h,2023.2.3,Win32,60.0240096,65e67470ae2fbf2172c317b2,65e885b58610140d04ce3df8,,,,,,,,,,,463.786,0.9,464.685,464.685,465.402,left,0,0.713,,465.402,466.404,2,9,41,8,1,partial,2,images/Ex1.jpg,right,reversed,hard,4,,,,,
,,,,,5980fff19bf4fe0001070984,001,,,,,2024-03-06_15h03.27.004,CRL1h,2023.2.3,Win32,60.0240096,65e67470ae2fbf2172c317b2,65e885b58610140d04ce3df8,,,,,,,,,,,466.406,0.6,467.002,467.002,467.318,right,1,0.314,,467.318,468.319,2,10,42,0,1,partial,2,images/Ex1.jpg,right,reversed,hard,4,,,,,
,,,,,5980fff19bf4fe0001070984,001,,,,,2024-03-06_15h03.27.004,CRL1h,2023.2.3,Win32,60.0240096,65e67470ae2fbf2172c317b2,65e885b58610140d04ce3df8,,,,,,,,,,,468.319,1.2,469.518,469.518,470.385,left,0,0.862,,470.385,471.385,2,11,43,9,1,partial,2,images/Ex2.jpg,right,reversed,hard,4,,,,,
,,,,,5980fff19bf4fe0001070984,001,,,,,2024-03-06_15h03.27.004,CRL1h,2023.2.3,Win32,60.0240096,65e67470ae2fbf2172c317b2,65e885b58610140d04ce3df8,,,,,,,,,,,471.386,1.5,472.885,472.885,473.018,right,1,0.129,,473.018,474.018,2,12,44,13,1,partial,2,images/Ex6.jpg,right,nonreversed,hard,4,,,,,
,,,,,5980fff19bf4fe0001070984,001,,,,,2024-03-06_15h03.27.004,CRL1h,2023.2.3,Win32,60.0240096,65e67470ae2fbf2172c317b2,65e885b58610140d04ce3df8,,,,,,,,,,,474.019,1.5,475.518,475.518,476.201,left,1,0.681,,476.201,477.202,2,13,45,11,1,partial,2,images/Ex4.jpg,left,nonreversed,hard,4,,,,,
,,,,,5980fff19bf4fe0001070984,001,,,,,2024-03-06_15h03.27.004,CRL1h,2023.2.3,Win32,60.0240096,65e67470ae2fbf2172c317b2,65e885b58610140d04ce3df8,,,,,,,,,,,477.202,1.2,478.401,478.401,479.751,right,1,1.346,,479.751,480.75,2,14,46,5,1,partial,2,images/Ex6.jpg,right,nonreversed,hard,4,,,,,
,,,,,5980fff19bf4fe0001070984,001,,,,,2024-03-06_15h03.27.004,CRL1h,2023.2.3,Win32,60.0240096,65e67470ae2fbf2172c317b2,65e885b58610140d04ce3df8,,,,,,,,,,,480.751,0.8,481.551,481.551,482.436,left,1,0.881,,482.436,483.434,2,15,47,15,1,partial,2,images/Ex8.jpg,left,reversed,hard,4,,,,,
,,,,,5980fff19bf4fe0001070984,001,,,,,2024-03-06_15h03.27.004,CRL1h,2023.2.3,Win32,60.0240096,65e67470ae2fbf2172c317b2,65e885b58610140d04ce3df8,,,,,,,,,,,483.435,1.1,484.535,484.535,485.501,left,1,0.964,,485.501,486.501,3,0,48,11,1,partial,2,images/Ex4.jpg,left,nonreversed,hard,4,,,,,
,,,,,5980fff19bf4fe0001070984,001,,,,,2024-03-06_15h03.27.004,CRL1h,2023.2.3,Win32,60.0240096,65e67470ae2fbf2172c317b2,65e885b58610140d04ce3df8,,,,,,,,,,,486.501,0.7,487.201,487.201,487.901,left,1,0.695,,487.901,488.9,3,1,49,10,1,partial,2,images/Ex3.jpg,left,nonreversed,hard,4,,,,,
,,,,,5980fff19bf4fe0001070984,001,,,,,2024-03-06_15h03.27.004,CRL1h,2023.2.3,Win32,60.0240096,65e67470ae2fbf2172c317b2,65e885b58610140d04ce3df8,,,,,,,,,,,488.901,0.5,489.4,489.4,490.751,right,0,1.346,,490.752,491.751,3,2,50,15,1,partial,2,images/Ex8.jpg,left,reversed,hard,4,,,,,
,,,,,5980fff19bf4fe0001070984,001,,,,,2024-03-06_15h03.27.004,CRL1h,2023.2.3,Win32,60.0240096,65e67470ae2fbf2172c317b2,65e885b58610140d04ce3df8,,,,,,,,,,,491.752,1.2,492.95,492.95,495.517,left,1,2.563,,495.517,496.517,3,3,51,6,1,partial,2,images/Ex7.jpg,left,reversed,hard,4,,,,,
,,,,,5980fff19bf4fe0001070984,001,,,,,2024-03-06_15h03.27.004,CRL1h,2023.2.3,Win32,60.0240096,65e67470ae2fbf2172c317b2,65e885b58610140d04ce3df8,,,,,,,,,,,496.518,0.8,497.317,497.317,499.75,left,0,2.428,,499.751,500.751,3,4,52,8,1,partial,2,images/Ex1.jpg,right,reversed,hard,4,,,,,
,,,,,5980fff19bf4fe0001070984,001,,,,,2024-03-06_15h03.27.004,CRL1h,2023.2.3,Win32,60.0240096,65e67470ae2fbf2172c317b2,65e885b58610140d04ce3df8,,,,,,,,,,,500.752,1.4,502.15,502.151,502.917,right,0,0.765,,502.917,503.917,3,5,53,2,1,partial,2,images/Ex3.jpg,left,nonreversed,hard,4,,,,,
,,,,,5980fff19bf4fe0001070984,001,,,,,2024-03-06_15h03.27.004,CRL1h,2023.2.3,Win32,60.0240096,65e67470ae2fbf2172c317b2,65e885b58610140d04ce3df8,,,,,,,,,,,503.918,1.5,505.417,505.418,507.016,right,1,1.595,,507.016,508.017,3,6,54,9,1,partial,2,images/Ex2.jpg,right,reversed,hard,4,,,,,
,,,,,5980fff19bf4fe0001070984,001,,,,,2024-03-06_15h03.27.004,CRL1h,2023.2.3,Win32,60.0240096,65e67470ae2fbf2172c317b2,65e885b58610140d04ce3df8,,,,,,,,,,,508.018,1.5,509.516,509.517,510.349,left,1,0.828,,510.349,511.35,3,7,55,14,1,partial,2,images/Ex7.jpg,left,reversed,hard,4,,,,,
,,,,,5980fff19bf4fe0001070984,001,,,,,2024-03-06_15h03.27.004,CRL1h,2023.2.3,Win32,60.0240096,65e67470ae2fbf2172c317b2,65e885b58610140d04ce3df8,,,,,,,,,,,511.351,1,512.35,512.35,513.516,left,0,1.161,,513.516,514.517,3,8,56,1,1,partial,2,images/Ex2.jpg,right,reversed,hard,4,,,,,
,,,,,5980fff19bf4fe0001070984,001,,,,,2024-03-06_15h03.27.004,CRL1h,2023.2.3,Win32,60.0240096,65e67470ae2fbf2172c317b2,65e885b58610140d04ce3df8,,,,,,,,,,,514.517,1.1,515.616,515.616,516.5,left,0,0.878,,516.5,517.499,3,9,57,13,1,partial,2,images/Ex6.jpg,right,nonreversed,hard,4,,,,,
,,,,,5980fff19bf4fe0001070984,001,,,,,2024-03-06_15h03.27.004,CRL1h,2023.2.3,Win32,60.0240096,65e67470ae2fbf2172c317b2,65e885b58610140d04ce3df8,,,,,,,,,,,517.499,1.1,518.599,518.599,519.284,right,1,0.679,,519.284,520.284,3,10,58,0,1,partial,2,images/Ex1.jpg,right,reversed,hard,4,,,,,
,,,,,5980fff19bf4fe0001070984,001,,,,,2024-03-06_15h03.27.004,CRL1h,2023.2.3,Win32,60.0240096,65e67470ae2fbf2172c317b2,65e885b58610140d04ce3df8,,,,,,,,,,,520.285,1.3,521.583,521.584,522.317,left,1,0.727,,522.317,523.316,3,11,59,7,1,partial,2,images/Ex8.jpg,left,reversed,hard,4,,,,,
,,,,,5980fff19bf4fe0001070984,001,,,,,2024-03-06_15h03.27.004,CRL1h,2023.2.3,Win32,60.0240096,65e67470ae2fbf2172c317b2,65e885b58610140d04ce3df8,,,,,,,,,,,523.317,1.1,524.416,524.416,525.784,right,0,1.361,0,525.784,526.783,3,12,60,3,1,partial,2,images/Ex4.jpg,left,nonreversed,hard,4,,,,,
,,,,,5980fff19bf4fe0001070984,001,,,,,2024-03-06_15h03.27.004,CRL1h,2023.2.3,Win32,60.0240096,65e67470ae2fbf2172c317b2,65e885b58610140d04ce3df8,,,,,,,,,,,526.783,1,527.783,527.783,528.566,left,0,0.778,,528.566,529.566,3,13,61,5,1,partial,2,images/Ex6.jpg,right,nonreversed,hard,4,,,,,
,,,,,5980fff19bf4fe0001070984,001,,,,,2024-03-06_15h03.27.004,CRL1h,2023.2.3,Win32,60.0240096,65e67470ae2fbf2172c317b2,65e885b58610140d04ce3df8,,,,,,,,,,,529.566,1.2,530.766,530.766,531.833,right,1,1.062,,531.833,532.833,3,14,62,12,1,partial,2,images/Ex5.jpg,right,nonreversed,hard,4,,,,,
,,,,,5980fff19bf4fe0001070984,001,,,,,2024-03-06_15h03.27.004,CRL1h,2023.2.3,Win32,60.0240096,65e67470ae2fbf2172c317b2,65e885b58610140d04ce3df8,,,,,,,,,,,532.834,1.2,534.032,534.032,534.55,right,1,0.514,,534.55,535.549,3,15,63,4,1,partial,2,images/Ex5.jpg,right,nonreversed,hard,4,,,,,
,,,,,5980fff19bf4fe0001070984,001,,,,,2024-03-06_15h03.27.004,CRL1h,2023.2.3,Win32,60.0240096,65e67470ae2fbf2172c317b2,65e885b58610140d04ce3df8,,,,,,535.55,2009.506,space,1473.943,,2009.513,0.8,2010.305,2010.305,2011.537,left,0,1.229,,2011.537,2012.537,0,0,0,6,1,total,1,images/Ex15.jpg,right,training,hard,4,,,,,
,,,,,5980fff19bf4fe0001070984,001,,,,,2024-03-06_15h03.27.004,CRL1h,2023.2.3,Win32,60.0240096,65e67470ae2fbf2172c317b2,65e885b58610140d04ce3df8,,,,,,,,,,,2012.538,0.6,2013.137,2013.137,2013.671,right,1,0.527,,2013.671,2014.67,0,1,1,12,1,total,1,images/Ex13.jpg,right,training,hard,4,,,,,
,,,,,5980fff19bf4fe0001070984,001,,,,,2024-03-06_15h03.27.004,CRL1h,2023.2.3,Win32,60.0240096,65e67470ae2fbf2172c317b2,65e885b58610140d04ce3df8,,,,,,,,,,,2014.671,0.9,2015.57,2015.57,2016.237,right,0,0.66,,2016.237,2017.236,0,2,2,9,1,total,1,images/Ex10.jpg,left,training,hard,4,,,,,
,,,,,5980fff19bf4fe0001070984,001,,,,,2024-03-06_15h03.27.004,CRL1h,2023.2.3,Win32,60.0240096,65e67470ae2fbf2172c317b2,65e885b58610140d04ce3df8,,,,,,,,,,,2017.237,1.2,2018.437,2018.437,2018.903,left,1,0.46,,2018.903,2019.903,0,3,3,0,1,total,1,images/Ex9.jpg,left,training,hard,4,,,,,
,,,,,5980fff19bf4fe0001070984,001,,,,,2024-03-06_15h03.27.004,CRL1h,2023.2.3,Win32,60.0240096,65e67470ae2fbf2172c317b2,65e885b58610140d04ce3df8,,,,,,,,,,,2019.904,0.7,2020.603,2020.603,2021.32,left,0,0.71,,2021.32,2022.32,0,4,4,5,1,total,1,images/Ex14.jpg,right,training,hard,4,,,,,
,,,,,5980fff19bf4fe0001070984,001,,,,,2024-03-06_15h03.27.004,CRL1h,2023.2.3,Win32,60.0240096,65e67470ae2fbf2172c317b2,65e885b58610140d04ce3df8,,,,,,,,,,,2022.321,1.5,2023.82,2023.82,2024.136,right,1,0.311,,2024.136,2025.136,0,5,5,13,1,total,1,images/Ex14.jpg,right,training,hard,4,,,,,
,,,,,5980fff19bf4fe0001070984,001,,,,,2024-03-06_15h03.27.004,CRL1h,2023.2.3,Win32,60.0240096,65e67470ae2fbf2172c317b2,65e885b58610140d04ce3df8,,,,,,,,,,,2025.136,0.7,2025.837,2025.837,2026.502,left,1,0.66,,2026.502,2027.504,0,6,6,11,1,total,1,images/Ex12.jpg,left,training,hard,4,,,,,
,,,,,5980fff19bf4fe0001070984,001,,,,,2024-03-06_15h03.27.004,CRL1h,2023.2.3,Win32,60.0240096,65e67470ae2fbf2172c317b2,65e885b58610140d04ce3df8,,,,,,,,,,,2027.506,1.1,2028.603,2028.603,2029.136,right,0,0.527,,2029.136,2030.137,0,7,7,3,1,total,1,images/Ex12.jpg,left,training,hard,4,,,,,
,,,,,5980fff19bf4fe0001070984,001,,,,,2024-03-06_15h03.27.004,CRL1h,2023.2.3,Win32,60.0240096,65e67470ae2fbf2172c317b2,65e885b58610140d04ce3df8,,,,,,,,,,,2030.137,1,2031.136,2031.136,2031.47,left,0,0.327,,2031.47,2032.47,0,8,8,15,1,total,1,images/Ex16.jpg,right,training,hard,4,,,,,
,,,,,5980fff19bf4fe0001070984,001,,,,,2024-03-06_15h03.27.004,CRL1h,2023.2.3,Win32,60.0240096,65e67470ae2fbf2172c317b2,65e885b58610140d04ce3df8,,,,,,,,,,,2032.47,1.5,2033.97,2033.97,2034.402,right,1,0.426,,2034.402,2035.403,0,9,9,14,1,total,1,images/Ex15.jpg,right,training,hard,4,,,,,
,,,,,5980fff19bf4fe0001070984,001,,,,,2024-03-06_15h03.27.004,CRL1h,2023.2.3,Win32,60.0240096,65e67470ae2fbf2172c317b2,65e885b58610140d04ce3df8,,,,,,,,,,,2035.403,0.8,2036.202,2036.202,2036.869,right,0,0.66,,2036.869,2037.869,0,10,10,10,1,total,1,images/Ex11.jpg,left,training,hard,4,,,,,
,,,,,5980fff19bf4fe0001070984,001,,,,,2024-03-06_15h03.27.004,CRL1h,2023.2.3,Win32,60.0240096,65e67470ae2fbf2172c317b2,65e885b58610140d04ce3df8,,,,,,,,,,,2037.87,0.7,2038.569,2038.569,2038.97,left,1,0.397,,2038.97,2039.97,0,11,11,8,1,total,1,images/Ex9.jpg,left,training,hard,4,,,,,
,,,,,5980fff19bf4fe0001070984,001,,,,,2024-03-06_15h03.27.004,CRL1h,2023.2.3,Win32,60.0240096,65e67470ae2fbf2172c317b2,65e885b58610140d04ce3df8,,,,,,,,,,,2039.971,0.5,2040.469,2040.469,2040.935,left,1,0.463,,2040.935,2041.936,0,12,12,2,1,total,1,images/Ex11.jpg,left,training,hard,4,,,,,
,,,,,5980fff19bf4fe0001070984,001,,,,,2024-03-06_15h03.27.004,CRL1h,2023.2.3,Win32,60.0240096,65e67470ae2fbf2172c317b2,65e885b58610140d04ce3df8,,,,,,,,,,,2041.936,1,2042.935,2042.935,2043.336,left,0,0.394,,2043.336,2044.336,0,13,13,4,1,total,1,images/Ex13.jpg,right,training,hard,4,,,,,
,,,,,5980fff19bf4fe0001070984,001,,,,,2024-03-06_15h03.27.004,CRL1h,2023.2.3,Win32,60.0240096,65e67470ae2fbf2172c317b2,65e885b58610140d04ce3df8,,,,,,,,,,,2044.336,1.1,2045.435,2045.435,2045.802,right,1,0.361,,2045.802,2046.802,0,14,14,7,1,total,1,images/Ex16.jpg,right,training,hard,4,,,,,
,,,,,5980fff19bf4fe0001070984,001,,,,,2024-03-06_15h03.27.004,CRL1h,2023.2.3,Win32,60.0240096,65e67470ae2fbf2172c317b2,65e885b58610140d04ce3df8,,,,,,,,,,,2046.803,1.4,2048.202,2048.202,2048.502,right,0,0.294,,2048.503,2049.502,0,15,15,1,1,total,1,images/Ex10.jpg,left,training,hard,4,,,,,
,,,,,5980fff19bf4fe0001070984,001,,,,,2024-03-06_15h03.27.004,CRL1h,2023.2.3,Win32,60.0240096,65e67470ae2fbf2172c317b2,65e885b58610140d04ce3df8,,,,,,,,,,,2049.502,0.5,2050.002,2050.002,2052.235,left,1,2.228,,2052.235,2053.235,1,0,16,3,1,total,1,images/Ex12.jpg,left,training,hard,4,,,,,
,,,,,5980fff19bf4fe0001070984,001,,,,,2024-03-06_15h03.27.004,CRL1h,2023.2.3,Win32,60.0240096,65e67470ae2fbf2172c317b2,65e885b58610140d04ce3df8,,,,,,,,,,,2053.236,0.9,2054.135,2054.135,2054.519,left,1,0.377,,2054.519,2055.518,1,1,17,9,1,total,1,images/Ex10.jpg,left,training,hard,4,,,,,
,,,,,5980fff19bf4fe0001070984,001,,,,,2024-03-06_15h03.27.004,CRL1h,2023.2.3,Win32,60.0240096,65e67470ae2fbf2172c317b2,65e885b58610140d04ce3df8,,,,,,,,,,,2055.519,1,2056.519,2056.519,2057.319,left,0,0.793,,2057.319,2058.318,1,2,18,7,1,total,1,images/Ex16.jpg,right,training,hard,4,,,,,
,,,,,5980fff19bf4fe0001070984,001,,,,,2024-03-06_15h03.27.004,CRL1h,2023.2.3,Win32,60.0240096,65e67470ae2fbf2172c317b2,65e885b58610140d04ce3df8,,,,,,,,,,,2058.318,1.1,2059.418,2059.418,2059.602,right,1,0.18,,2059.602,2060.602,1,3,19,14,1,total,1,images/Ex15.jpg,right,training,hard,4,,,,,
,,,,,5980fff19bf4fe0001070984,001,,,,,2024-03-06_15h03.27.004,CRL1h,2023.2.3,Win32,60.0240096,65e67470ae2fbf2172c317b2,65e885b58610140d04ce3df8,,,,,,,,,,,2060.603,1.1,2061.701,2061.701,2062.552,right,0,0.844,,2062.552,2063.552,1,4,20,0,1,total,1,images/Ex9.jpg,left,training,hard,4,,,,,
,,,,,5980fff19bf4fe0001070984,001,,,,,2024-03-06_15h03.27.004,CRL1h,2023.2.3,Win32,60.0240096,65e67470ae2fbf2172c317b2,65e885b58610140d04ce3df8,,,,,,,,,,,2063.552,1,2064.551,2064.551,2064.719,left,0,0.161,,2064.719,2065.718,1,5,21,12,1,total,1,images/Ex13.jpg,right,training,hard,4,,,,,
,,,,,5980fff19bf4fe0001070984,001,,,,,2024-03-06_15h03.27.004,CRL1h,2023.2.3,Win32,60.0240096,65e67470ae2fbf2172c317b2,65e885b58610140d04ce3df8,,,,,,,,,,,2065.719,0.9,2066.618,2066.618,2066.701,left,0,0.077,,2066.701,2067.702,1,6,22,15,1,total,1,images/Ex16.jpg,right,training,hard,4,,,,,
,,,,,5980fff19bf4fe0001070984,001,,,,,2024-03-06_15h03.27.004,CRL1h,2023.2.3,Win32,60.0240096,65e67470ae2fbf2172c317b2,65e885b58610140d04ce3df8,,,,,,,,,,,2067.702,0.9,2068.601,2068.601,2068.951,left,1,0.344,,2068.951,2069.951,1,7,23,10,1,total,1,images/Ex11.jpg,left,training,hard,4,,,,,
,,,,,5980fff19bf4fe0001070984,001,,,,,2024-03-06_15h03.27.004,CRL1h,2023.2.3,Win32,60.0240096,65e67470ae2fbf2172c317b2,65e885b58610140d04ce3df8,,,,,,,,,,,2069.952,1.4,2071.351,2071.351,2072.185,right,0,0.828,,2072.185,2073.185,1,8,24,1,1,total,1,images/Ex10.jpg,left,training,hard,4,,,,,
,,,,,5980fff19bf4fe0001070984,001,,,,,2024-03-06_15h03.27.004,CRL1h,2023.2.3,Win32,60.0240096,65e67470ae2fbf2172c317b2,65e885b58610140d04ce3df8,,,,,,,,,,,2073.187,0.7,2073.886,2073.886,2074.321,left,0,0.424,,2074.321,2075.318,1,9,25,6,1,total,1,images/Ex15.jpg,right,training,hard,4,,,,,
,,,,,5980fff19bf4fe0001070984,001,,,,,2024-03-06_15h03.27.004,CRL1h,2023.2.3,Win32,60.0240096,65e67470ae2fbf2172c317b2,65e885b58610140d04ce3df8,,,,,,,,,,,2075.318,0.7,2076.018,2076.018,2076.468,left,1,0.443,,2076.468,2077.468,1,10,26,2,1,total,1,images/Ex11.jpg,left,training,hard,4,,,,,
,,,,,5980fff19bf4fe0001070984,001,,,,,2024-03-06_15h03.27.004,CRL1h,2023.2.3,Win32,60.0240096,65e67470ae2fbf2172c317b2,65e885b58610140d04ce3df8,,,,,,,,,,,2077.468,0.9,2078.368,2078.368,2079.268,right,1,0.894,,2079.268,2080.268,1,11,27,4,1,total,1,images/Ex13.jpg,right,training,hard,4,,,,,
,,,,,5980fff19bf4fe0001070984,001,,,,,2024-03-06_15h03.27.004,CRL1h,2023.2.3,Win32,60.0240096,65e67470ae2fbf2172c317b2,65e885b58610140d04ce3df8,,,,,,,,,,,2080.268,1.1,2081.367,2081.367,2082.301,left,0,0.928,,2082.301,2083.3,1,12,28,13,1,total,1,images/Ex14.jpg,right,training,hard,4,,,,,
,,,,,5980fff19bf4fe0001070984,001,,,,,2024-03-06_15h03.27.004,CRL1h,2023.2.3,Win32,60.0240096,65e67470ae2fbf2172c317b2,65e885b58610140d04ce3df8,,,,,,,,,,,2083.3,1.2,2084.5,2084.5,2085.4,right,0,0.896,,2085.4,2086.4,1,13,29,11,1,total,1,images/Ex12.jpg,left,training,hard,4,,,,,
,,,,,5980fff19bf4fe0001070984,001,,,,,2024-03-06_15h03.27.004,CRL1h,2023.2.3,Win32,60.0240096,65e67470ae2fbf2172c317b2,65e885b58610140d04ce3df8,,,,,,,,,,,2086.401,0.6,2087,2087,2087.851,left,0,0.844,,2087.851,2088.85,1,14,30,5,1,total,1,images/Ex14.jpg,right,training,hard,4,,,,,
,,,,,5980fff19bf4fe0001070984,001,,,,,2024-03-06_15h03.27.004,CRL1h,2023.2.3,Win32,60.0240096,65e67470ae2fbf2172c317b2,65e885b58610140d04ce3df8,,,,,,,,,,,2088.851,1.3,2090.151,2090.151,2090.735,left,1,0.582,,2090.735,2091.734,1,15,31,8,1,total,1,images/Ex9.jpg,left,training,hard,4,,,,,
,,,,,5980fff19bf4fe0001070984,001,,,,,2024-03-06_15h03.27.004,CRL1h,2023.2.3,Win32,60.0240096,65e67470ae2fbf2172c317b2,65e885b58610140d04ce3df8,,,,,,,,,,,2091.734,1.3,2093.034,2093.034,2094.117,left,0,1.077,,2094.117,2095.117,2,0,32,13,1,total,1,images/Ex14.jpg,right,training,hard,4,,,,,
,,,,,5980fff19bf4fe0001070984,001,,,,,2024-03-06_15h03.27.004,CRL1h,2023.2.3,Win32,60.0240096,65e67470ae2fbf2172c317b2,65e885b58610140d04ce3df8,,,,,,,,,,,2095.118,0.6,2095.717,2095.717,2096.334,right,0,0.611,,2096.334,2097.334,2,1,33,2,1,total,1,images/Ex11.jpg,left,training,hard,4,,,,,
,,,,,5980fff19bf4fe0001070984,001,,,,,2024-03-06_15h03.27.004,CRL1h,2023.2.3,Win32,60.0240096,65e67470ae2fbf2172c317b2,65e885b58610140d04ce3df8,,,,,,,,,,,2097.334,1,2098.333,2098.333,2098.983,left,0,0.642,,2098.983,2099.983,2,2,34,4,1,total,1,images/Ex13.jpg,right,training,hard,4,,,,,
,,,,,5980fff19bf4fe0001070984,001,,,,,2024-03-06_15h03.27.004,CRL1h,2023.2.3,Win32,60.0240096,65e67470ae2fbf2172c317b2,65e885b58610140d04ce3df8,,,,,,,,,,,2099.984,0.8,2100.783,2100.783,2101.35,left,1,0.56,,2101.35,2102.35,2,3,35,10,1,total,1,images/Ex11.jpg,left,training,hard,4,,,,,
,,,,,5980fff19bf4fe0001070984,001,,,,,2024-03-06_15h03.27.004,CRL1h,2023.2.3,Win32,60.0240096,65e67470ae2fbf2172c317b2,65e885b58610140d04ce3df8,,,,,,,,,,,2102.35,1.4,2103.75,2103.75,2104.533,left,0,0.778,,2104.533,2105.533,2,4,36,6,1,total,1,images/Ex15.jpg,right,training,hard,4,,,,,
,,,,,5980fff19bf4fe0001070984,001,,,,,2024-03-06_15h03.27.004,CRL1h,2023.2.3,Win32,60.0240096,65e67470ae2fbf2172c317b2,65e885b58610140d04ce3df8,,,,,,,,,,,2105.534,0.6,2106.134,2106.134,2107.083,right,1,0.944,,2107.083,2108.084,2,5,37,15,1,total,1,images/Ex16.jpg,right,training,hard,4,,,,,
,,,,,5980fff19bf4fe0001070984,001,,,,,2024-03-06_15h03.27.004,CRL1h,2023.2.3,Win32,60.0240096,65e67470ae2fbf2172c317b2,65e885b58610140d04ce3df8,,,,,,,,,,,2108.085,1.2,2109.283,2109.283,2110.233,right,0,0.942,,2110.233,2111.233,2,6,38,0,1,total,1,images/Ex9.jpg,left,training,hard,4,,,,,
,,,,,5980fff19bf4fe0001070984,001,,,,,2024-03-06_15h03.27.004,CRL1h,2023.2.3,Win32,60.0240096,65e67470ae2fbf2172c317b2,65e885b58610140d04ce3df8,,,,,,,,,,,2111.233,1.2,2112.434,2112.434,2112.55,left,1,0.111,,2112.55,2113.55,2,7,39,9,1,total,1,images/Ex10.jpg,left,training,hard,4,,,,,
,,,,,5980fff19bf4fe0001070984,001,,,,,2024-03-06_15h03.27.004,CRL1h,2023.2.3,Win32,60.0240096,65e67470ae2fbf2172c317b2,65e885b58610140d04ce3df8,,,,,,,,,,,2113.55,1,2114.55,2114.55,2114.882,left,0,0.327,,2114.882,2115.883,2,8,40,7,1,total,1,images/Ex16.jpg,right,training,hard,4,,,,,
,,,,,5980fff19bf4fe0001070984,001,,,,,2024-03-06_15h03.27.004,CRL1h,2023.2.3,Win32,60.0240096,65e67470ae2fbf2172c317b2,65e885b58610140d04ce3df8,,,,,,,,,,,2115.883,1,2116.882,2116.883,2117.249,right,0,0.363,,2117.249,2118.248,2,9,41,8,1,total,1,images/Ex9.jpg,left,training,hard,4,,,,,
,,,,,5980fff19bf4fe0001070984,001,,,,,2024-03-06_15h03.27.004,CRL1h,2023.2.3,Win32,60.0240096,65e67470ae2fbf2172c317b2,65e885b58610140d04ce3df8,,,,,,,,,,,2118.25,0.9,2119.149,2119.149,2119.516,right,0,0.36,,2119.516,2120.516,2,10,42,1,1,total,1,images/Ex10.jpg,left,training,hard,4,,,,,
,,,,,5980fff19bf4fe0001070984,001,,,,,2024-03-06_15h03.27.004,CRL1h,2023.2.3,Win32,60.0240096,65e67470ae2fbf2172c317b2,65e885b58610140d04ce3df8,,,,,,,,,,,2120.517,0.7,2121.216,2121.216,2121.566,right,0,0.344,,2121.566,2122.566,2,11,43,3,1,total,1,images/Ex12.jpg,left,training,hard,4,,,,,
,,,,,5980fff19bf4fe0001070984,001,,,,,2024-03-06_15h03.27.004,CRL1h,2023.2.3,Win32,60.0240096,65e67470ae2fbf2172c317b2,65e885b58610140d04ce3df8,,,,,,,,,,,2122.566,1.3,2123.865,2123.865,2124.549,right,1,0.678,,2124.549,2125.549,2,12,44,14,1,total,1,images/Ex15.jpg,right,training,hard,4,,,,,
,,,,,5980fff19bf4fe0001070984,001,,,,,2024-03-06_15h03.27.004,CRL1h,2023.2.3,Win32,60.0240096,65e67470ae2fbf2172c317b2,65e885b58610140d04ce3df8,,,,,,,,,,,2125.549,1.1,2126.648,2126.648,2127.165,right,0,0.51,,2127.165,2128.166,2,13,45,11,1,total,1,images/Ex12.jpg,left,training,hard,4,,,,,
,,,,,5980fff19bf4fe0001070984,001,,,,,2024-03-06_15h03.27.004,CRL1h,2023.2.3,Win32,60.0240096,65e67470ae2fbf2172c317b2,65e885b58610140d04ce3df8,,,,,,,,,,,2128.168,1,2129.165,2129.165,2129.418,left,0,0.25,,2129.418,2130.415,2,14,46,5,1,total,1,images/Ex14.jpg,right,training,hard,4,,,,,
,,,,,5980fff19bf4fe0001070984,001,,,,,2024-03-06_15h03.27.004,CRL1h,2023.2.3,Win32,60.0240096,65e67470ae2fbf2172c317b2,65e885b58610140d04ce3df8,,,,,,,,,,,2130.416,0.9,2131.315,2131.316,2131.665,left,0,0.346,,2131.665,2132.665,2,15,47,12,1,total,1,images/Ex13.jpg,right,training,hard,4,,,,,
,,,,,5980fff19bf4fe0001070984,001,,,,,2024-03-06_15h03.27.004,CRL1h,2023.2.3,Win32,60.0240096,65e67470ae2fbf2172c317b2,65e885b58610140d04ce3df8,,,,,,,,,,,2132.666,1,2133.665,2133.665,2133.999,left,1,0.327,,2133.999,2134.998,3,0,48,2,1,total,1,images/Ex11.jpg,left,training,hard,4,,,,,
,,,,,5980fff19bf4fe0001070984,001,,,,,2024-03-06_15h03.27.004,CRL1h,2023.2.3,Win32,60.0240096,65e67470ae2fbf2172c317b2,65e885b58610140d04ce3df8,,,,,,,,,,,2134.998,0.5,2135.498,2135.498,2135.981,left,0,0.478,,2135.981,2136.981,3,1,49,15,1,total,1,images/Ex16.jpg,right,training,hard,4,,,,,
,,,,,5980fff19bf4fe0001070984,001,,,,,2024-03-06_15h03.27.004,CRL1h,2023.2.3,Win32,60.0240096,65e67470ae2fbf2172c317b2,65e885b58610140d04ce3df8,,,,,,,,,,,2136.982,1.3,2138.281,2138.281,2138.715,right,1,0.427,,2138.715,2139.715,3,2,50,7,1,total,1,images/Ex16.jpg,right,training,hard,4,,,,,
,,,,,5980fff19bf4fe0001070984,001,,,,,2024-03-06_15h03.27.004,CRL1h,2023.2.3,Win32,60.0240096,65e67470ae2fbf2172c317b2,65e885b58610140d04ce3df8,,,,,,,,,,,2139.715,1.3,2141.015,2141.015,2141.431,right,0,0.411,,2141.431,2142.432,3,3,51,9,1,total,1,images/Ex10.jpg,left,training,hard,4,,,,,
,,,,,5980fff19bf4fe0001070984,001,,,,,2024-03-06_15h03.27.004,CRL1h,2023.2.3,Win32,60.0240096,65e67470ae2fbf2172c317b2,65e885b58610140d04ce3df8,,,,,,,,,,,2142.434,1.1,2143.532,2143.532,2143.798,left,1,0.259,,2143.798,2144.798,3,4,52,10,1,total,1,images/Ex11.jpg,left,training,hard,4,,,,,
,,,,,5980fff19bf4fe0001070984,001,,,,,2024-03-06_15h03.27.004,CRL1h,2023.2.3,Win32,60.0240096,65e67470ae2fbf2172c317b2,65e885b58610140d04ce3df8,,,,,,,,,,,2144.799,1.3,2146.098,2146.098,2146.498,left,1,0.393,,2146.498,2147.498,3,5,53,11,1,total,1,images/Ex12.jpg,left,training,hard,4,,,,,
,,,,,5980fff19bf4fe0001070984,001,,,,,2024-03-06_15h03.27.004,CRL1h,2023.2.3,Win32,60.0240096,65e67470ae2fbf2172c317b2,65e885b58610140d04ce3df8,,,,,,,,,,,2147.499,0.6,2148.098,2148.098,2148.731,left,0,0.627,,2148.731,2149.731,3,6,54,4,1,total,1,images/Ex13.jpg,right,training,hard,4,,,,,
,,,,,5980fff19bf4fe0001070984,001,,,,,2024-03-06_15h03.27.004,CRL1h,2023.2.3,Win32,60.0240096,65e67470ae2fbf2172c317b2,65e885b58610140d04ce3df8,,,,,,,,,,,2149.732,1.3,2151.031,2151.031,2151.514,right,1,0.479,,2151.514,2152.514,3,7,55,5,1,total,1,images/Ex14.jpg,right,training,hard,4,,,,,
,,,,,5980fff19bf4fe0001070984,001,,,,,2024-03-06_15h03.27.004,CRL1h,2023.2.3,Win32,60.0240096,65e67470ae2fbf2172c317b2,65e885b58610140d04ce3df8,,,,,,,,,,,2152.515,1.1,2153.615,2153.615,2154.514,right,0,0.894,,2154.514,2155.515,3,8,56,1,1,total,1,images/Ex10.jpg,left,training,hard,4,,,,,
,,,,,5980fff19bf4fe0001070984,001,,,,,2024-03-06_15h03.27.004,CRL1h,2023.2.3,Win32,60.0240096,65e67470ae2fbf2172c317b2,65e885b58610140d04ce3df8,,,,,,,,,,,2155.515,1.5,2157.014,2157.014,2157.248,left,1,0.23,,2157.248,2158.247,3,9,57,0,1,total,1,images/Ex9.jpg,left,training,hard,4,,,,,
,,,,,5980fff19bf4fe0001070984,001,,,,,2024-03-06_15h03.27.004,CRL1h,2023.2.3,Win32,60.0240096,65e67470ae2fbf2172c317b2,65e885b58610140d04ce3df8,,,,,,,,,,,2158.248,1.5,2159.747,2159.747,2160.097,left,0,0.345,,2160.097,2161.098,3,10,58,6,1,total,1,images/Ex15.jpg,right,training,hard,4,,,,,
,,,,,5980fff19bf4fe0001070984,001,,,,,2024-03-06_15h03.27.004,CRL1h,2023.2.3,Win32,60.0240096,65e67470ae2fbf2172c317b2,65e885b58610140d04ce3df8,,,,,,,,,,,2161.099,1.1,2162.197,2162.197,2162.663,right,0,0.464,,2162.663,2163.664,3,11,59,3,1,total,1,images/Ex12.jpg,left,training,hard,4,,,,,
,,,,,5980fff19bf4fe0001070984,001,,,,,2024-03-06_15h03.27.004,CRL1h,2023.2.3,Win32,60.0240096,65e67470ae2fbf2172c317b2,65e885b58610140d04ce3df8,,,,,,,,,,,2163.664,1.2,2164.863,2164.863,2165.164,left,0,0.296,,2165.164,2166.164,3,12,60,13,1,total,1,images/Ex14.jpg,right,training,hard,4,,,,,
,,,,,5980fff19bf4fe0001070984,001,,,,,2024-03-06_15h03.27.004,CRL1h,2023.2.3,Win32,60.0240096,65e67470ae2fbf2172c317b2,65e885b58610140d04ce3df8,,,,,,,,,,,2166.165,1.1,2167.263,2167.263,2167.648,left,0,0.38,,2167.648,2168.647,3,13,61,12,1,total,1,images/Ex13.jpg,right,training,hard,4,,,,,
,,,,,5980fff19bf4fe0001070984,001,,,,,2024-03-06_15h03.27.004,CRL1h,2023.2.3,Win32,60.0240096,65e67470ae2fbf2172c317b2,65e885b58610140d04ce3df8,,,,,,,,,,,2168.647,1.5,2170.147,2170.147,2171.564,left,1,1.41,,2171.564,2172.564,3,14,62,8,1,total,1,images/Ex9.jpg,left,training,hard,4,,,,,
,,,,,5980fff19bf4fe0001070984,001,,,,,2024-03-06_15h03.27.004,CRL1h,2023.2.3,Win32,60.0240096,65e67470ae2fbf2172c317b2,65e885b58610140d04ce3df8,,,,,,,,,,,2172.564,1.2,2173.764,2173.764,2175.615,left,0,1.851,,2175.615,2176.614,3,15,63,14,1,total,1,images/Ex15.jpg,right,training,hard,4,,,,,
,,,,,5980fff19bf4fe0001070984,001,,,,,2024-03-06_15h03.27.004,CRL1h,2023.2.3,Win32,60.0240096,65e67470ae2fbf2172c317b2,65e885b58610140d04ce3df8,,,,,,,,,,,2176.614,0.7,2177.314,2177.314,2178.214,right,0,0.891,,2178.214,2179.214,4,0,64,0,1,total,1,images/Ex9.jpg,left,training,hard,4,,,,,
,,,,,5980fff19bf4fe0001070984,001,,,,,2024-03-06_15h03.27.004,CRL1h,2023.2.3,Win32,60.0240096,65e67470ae2fbf2172c317b2,65e885b58610140d04ce3df8,,,,,,,,,,,2179.215,0.9,2180.114,2180.114,2180.913,right,0,0.797,,2180.913,2181.913,4,1,65,8,1,total,1,images/Ex9.jpg,left,training,hard,4,,,,,
,,,,,5980fff19bf4fe0001070984,001,,,,,2024-03-06_15h03.27.004,CRL1h,2023.2.3,Win32,60.0240096,65e67470ae2fbf2172c317b2,65e885b58610140d04ce3df8,,,,,,,,,,,2181.914,1.2,2183.113,2183.113,2184.03,left,0,0.909,,2184.03,2185.03,4,2,66,5,1,total,1,images/Ex14.jpg,right,training,hard,4,,,,,
,,,,,5980fff19bf4fe0001070984,001,,,,,2024-03-06_15h03.27.004,CRL1h,2023.2.3,Win32,60.0240096,65e67470ae2fbf2172c317b2,65e885b58610140d04ce3df8,,,,,,,,,,,2185.031,1.2,2186.23,2186.23,2187.696,left,1,1.463,,2187.697,2188.696,4,3,67,10,1,total,1,images/Ex11.jpg,left,training,hard,4,,,,,
,,,,,5980fff19bf4fe0001070984,001,,,,,2024-03-06_15h03.27.004,CRL1h,2023.2.3,Win32,60.0240096,65e67470ae2fbf2172c317b2,65e885b58610140d04ce3df8,,,,,,,,,,,2188.696,0.5,2189.196,2189.196,2190.296,right,1,1.094,,2190.296,2191.296,4,4,68,15,1,total,1,images/Ex16.jpg,right,training,hard,4,,,,,
,,,,,5980fff19bf4fe0001070984,001,,,,,2024-03-06_15h03.27.004,CRL1h,2023.2.3,Win32,60.0240096,65e67470ae2fbf2172c317b2,65e885b58610140d04ce3df8,,,,,,,,,,,2191.297,1.3,2192.596,2192.596,2193.645,right,0,1.043,,2193.645,2194.646,4,5,69,3,1,total,1,images/Ex12.jpg,left,training,hard,4,,,,,
,,,,,5980fff19bf4fe0001070984,001,,,,,2024-03-06_15h03.27.004,CRL1h,2023.2.3,Win32,60.0240096,65e67470ae2fbf2172c317b2,65e885b58610140d04ce3df8,,,,,,,,,,,2194.646,1,2195.646,2195.646,2196.663,left,0,1.01,,2196.663,2197.663,4,6,70,7,1,total,1,images/Ex16.jpg,right,training,hard,4,,,,,
,,,,,5980fff19bf4fe0001070984,001,,,,,2024-03-06_15h03.27.004,CRL1h,2023.2.3,Win32,60.0240096,65e67470ae2fbf2172c317b2,65e885b58610140d04ce3df8,,,,,,,,,,,2197.663,0.9,2198.562,2198.562,2200.163,left,0,1.595,,2200.163,2201.162,4,7,71,6,1,total,1,images/Ex15.jpg,right,training,hard,4,,,,,
,,,,,5980fff19bf4fe0001070984,001,,,,,2024-03-06_15h03.27.004,CRL1h,2023.2.3,Win32,60.0240096,65e67470ae2fbf2172c317b2,65e885b58610140d04ce3df8,,,,,,,,,,,2201.163,1.4,2202.563,2202.563,2204.062,right,0,1.492,,2204.062,2205.062,4,8,72,1,1,total,1,images/Ex10.jpg,left,training,hard,4,,,,,
,,,,,5980fff19bf4fe0001070984,001,,,,,2024-03-06_15h03.27.004,CRL1h,2023.2.3,Win32,60.0240096,65e67470ae2fbf2172c317b2,65e885b58610140d04ce3df8,,,,,,,,,,,2205.063,0.7,2205.762,2205.762,2207.779,right,1,2.01,,2207.779,2208.779,4,9,73,13,1,total,1,images/Ex14.jpg,right,training,hard,4,,,,,
,,,,,5980fff19bf4fe0001070984,001,,,,,2024-03-06_15h03.27.004,CRL1h,2023.2.3,Win32,60.0240096,65e67470ae2fbf2172c317b2,65e885b58610140d04ce3df8,,,,,,,,,,,2208.779,0.7,2209.478,2209.478,2210.345,left,1,0.862,,2210.345,2211.346,4,10,74,2,1,total,1,images/Ex11.jpg,left,training,hard,4,,,,,
,,,,,5980fff19bf4fe0001070984,001,,,,,2024-03-06_15h03.27.004,CRL1h,2023.2.3,Win32,60.0240096,65e67470ae2fbf2172c317b2,65e885b58610140d04ce3df8,,,,,,,,,,,2211.348,0.9,2212.245,2212.245,2213.579,right,1,1.327,,2213.579,2214.579,4,11,75,12,1,total,1,images/Ex13.jpg,right,training,hard,4,,,,,
,,,,,5980fff19bf4fe0001070984,001,,,,,2024-03-06_15h03.27.004,CRL1h,2023.2.3,Win32,60.0240096,65e67470ae2fbf2172c317b2,65e885b58610140d04ce3df8,,,,,,,,,,,2214.579,0.5,2215.078,2215.079,2216.344,left,0,1.26,,2216.345,2217.345,4,12,76,14,1,total,1,images/Ex15.jpg,right,training,hard,4,,,,,
,,,,,5980fff19bf4fe0001070984,001,,,,,2024-03-06_15h03.27.004,CRL1h,2023.2.3,Win32,60.0240096,65e67470ae2fbf2172c317b2,65e885b58610140d04ce3df8,,,,,,,,,,,2217.345,1.5,2218.846,2218.846,2219.795,right,1,0.942,,2219.795,2220.795,4,13,77,4,1,total,1,images/Ex13.jpg,right,training,hard,4,,,,,
,,,,,5980fff19bf4fe0001070984,001,,,,,2024-03-06_15h03.27.004,CRL1h,2023.2.3,Win32,60.0240096,65e67470ae2fbf2172c317b2,65e885b58610140d04ce3df8,,,,,,,,,,,2220.795,1,2221.796,2221.796,2222.894,left,1,1.093,,2222.895,2223.895,4,14,78,11,1,total,1,images/Ex12.jpg,left,training,hard,4,,,,,
,,,,,5980fff19bf4fe0001070984,001,,,,,2024-03-06_15h03.27.004,CRL1h,2023.2.3,Win32,60.0240096,65e67470ae2fbf2172c317b2,65e885b58610140d04ce3df8,,,,,,,,,,,2223.895,1.1,2224.995,2224.995,2225.745,right,0,0.746,,2225.745,2226.745,4,15,79,9,1,total,1,images/Ex10.jpg,left,training,hard,4,,,,,
,,,,,5980fff19bf4fe0001070984,001,,,,,2024-03-06_15h03.27.004,CRL1h,2023.2.3,Win32,60.0240096,65e67470ae2fbf2172c317b2,65e885b58610140d04ce3df8,,,,,,,,,,,2226.745,1,2227.745,2227.745,2228.098,left,1,0.351,,2228.098,2229.095,5,0,80,2,1,total,1,images/Ex11.jpg,left,training,hard,4,,,,,
,,,,,5980fff19bf4fe0001070984,001,,,,,2024-03-06_15h03.27.004,CRL1h,2023.2.3,Win32,60.0240096,65e67470ae2fbf2172c317b2,65e885b58610140d04ce3df8,,,,,,,,,,,2229.095,1.2,2230.295,2230.295,2231.478,right,0,1.176,,2231.478,2232.478,5,1,81,1,1,total,1,images/Ex10.jpg,left,training,hard,4,,,,,
,,,,,5980fff19bf4fe0001070984,001,,,,,2024-03-06_15h03.27.004,CRL1h,2023.2.3,Win32,60.0240096,65e67470ae2fbf2172c317b2,65e885b58610140d04ce3df8,,,,,,,,,,,2232.478,1,2233.478,2233.478,2234.344,left,1,0.865,,2234.344,2235.344,5,2,82,0,1,total,1,images/Ex9.jpg,left,training,hard,4,,,,,
,,,,,5980fff19bf4fe0001070984,001,,,,,2024-03-06_15h03.27.004,CRL1h,2023.2.3,Win32,60.0240096,65e67470ae2fbf2172c317b2,65e885b58610140d04ce3df8,,,,,,,,,,,2235.345,1,2236.344,2236.344,2236.728,left,0,0.377,,2236.728,2237.727,5,3,83,7,1,total,1,images/Ex16.jpg,right,training,hard,4,,,,,
,,,,,5980fff19bf4fe0001070984,001,,,,,2024-03-06_15h03.27.004,CRL1h,2023.2.3,Win32,60.0240096,65e67470ae2fbf2172c317b2,65e885b58610140d04ce3df8,,,,,,,,,,,2237.728,1.1,2238.828,2238.828,2239.144,right,1,0.31,,2239.144,2240.144,5,4,84,13,1,total,1,images/Ex14.jpg,right,training,hard,4,,,,,
,,,,,5980fff19bf4fe0001070984,001,,,,,2024-03-06_15h03.27.004,CRL1h,2023.2.3,Win32,60.0240096,65e67470ae2fbf2172c317b2,65e885b58610140d04ce3df8,,,,,,,,,,,2240.144,0.6,2240.744,2240.744,2241.444,left,1,0.694,,2241.444,2242.444,5,5,85,8,1,total,1,images/Ex9.jpg,left,training,hard,4,,,,,
,,,,,5980fff19bf4fe0001070984,001,,,,,2024-03-06_15h03.27.004,CRL1h,2023.2.3,Win32,60.0240096,65e67470ae2fbf2172c317b2,65e885b58610140d04ce3df8,,,,,,,,,,,2242.444,1.3,2243.743,2243.743,2244.11,right,1,0.36,,2244.111,2245.111,5,6,86,6,1,total,1,images/Ex15.jpg,right,training,hard,4,,,,,
,,,,,5980fff19bf4fe0001070984,001,,,,,2024-03-06_15h03.27.004,CRL1h,2023.2.3,Win32,60.0240096,65e67470ae2fbf2172c317b2,65e885b58610140d04ce3df8,,,,,,,,,,,2245.113,1.5,2246.611,2246.611,2246.978,left,1,0.358,,2246.978,2247.977,5,7,87,11,1,total,1,images/Ex12.jpg,left,training,hard,4,,,,,
,,,,,5980fff19bf4fe0001070984,001,,,,,2024-03-06_15h03.27.004,CRL1h,2023.2.3,Win32,60.0240096,65e67470ae2fbf2172c317b2,65e885b58610140d04ce3df8,,,,,,,,,,,2247.977,0.9,2248.877,2248.877,2249.394,right,1,0.511,,2249.394,2250.394,5,8,88,5,1,total,1,images/Ex14.jpg,right,training,hard,4,,,,,
,,,,,5980fff19bf4fe0001070984,001,,,,,2024-03-06_15h03.27.004,CRL1h,2023.2.3,Win32,60.0240096,65e67470ae2fbf2172c317b2,65e885b58610140d04ce3df8,,,,,,,,,,,2250.394,0.6,2250.993,2250.993,2251.477,left,0,0.478,,2251.477,2252.477,5,9,89,4,1,total,1,images/Ex13.jpg,right,training,hard,4,,,,,
,,,,,5980fff19bf4fe0001070984,001,,,,,2024-03-06_15h03.27.004,CRL1h,2023.2.3,Win32,60.0240096,65e67470ae2fbf2172c317b2,65e885b58610140d04ce3df8,,,,,,,,,,,2252.478,1.4,2253.876,2253.877,2254.862,left,0,0.984,,2254.862,2255.86,5,10,90,14,1,total,1,images/Ex15.jpg,right,training,hard,4,,,,,
,,,,,5980fff19bf4fe0001070984,001,,,,,2024-03-06_15h03.27.004,CRL1h,2023.2.3,Win32,60.0240096,65e67470ae2fbf2172c317b2,65e885b58610140d04ce3df8,,,,,,,,,,,2255.861,0.7,2256.566,2256.566,2258.027,right,1,1.454,,2258.027,2259.026,5,11,91,12,1,total,1,images/Ex13.jpg,right,training,hard,4,,,,,
,,,,,5980fff19bf4fe0001070984,001,,,,,2024-03-06_15h03.27.004,CRL1h,2023.2.3,Win32,60.0240096,65e67470ae2fbf2172c317b2,65e885b58610140d04ce3df8,,,,,,,,,,,2259.027,0.9,2259.926,2259.926,2260.694,right,1,0.761,,2260.694,2261.694,5,12,92,15,1,total,1,images/Ex16.jpg,right,training,hard,4,,,,,
,,,,,5980fff19bf4fe0001070984,001,,,,,2024-03-06_15h03.27.004,CRL1h,2023.2.3,Win32,60.0240096,65e67470ae2fbf2172c317b2,65e885b58610140d04ce3df8,,,,,,,,,,,2261.694,0.8,2262.494,2262.494,2263.326,left,1,0.827,,2263.326,2264.326,5,13,93,10,1,total,1,images/Ex11.jpg,left,training,hard,4,,,,,
,,,,,5980fff19bf4fe0001070984,001,,,,,2024-03-06_15h03.27.004,CRL1h,2023.2.3,Win32,60.0240096,65e67470ae2fbf2172c317b2,65e885b58610140d04ce3df8,,,,,,,,,,,2264.326,1.1,2265.426,2265.426,2266.276,right,0,0.843,,2266.276,2267.276,5,14,94,3,1,total,1,images/Ex12.jpg,left,training,hard,4,,,,,
,,,,,5980fff19bf4fe0001070984,001,,,,,2024-03-06_15h03.27.004,CRL1h,2023.2.3,Win32,60.0240096,65e67470ae2fbf2172c317b2,65e885b58610140d04ce3df8,,,,,,,,,,,2267.277,0.8,2268.076,2268.076,2269.609,left,1,1.527,,2269.609,2270.609,5,15,95,9,1,total,1,images/Ex10.jpg,left,training,hard,4,,,,,
,,,,,5980fff19bf4fe0001070984,001,,,,,2024-03-06_15h03.27.004,CRL1h,2023.2.3,Win32,60.0240096,65e67470ae2fbf2172c317b2,65e885b58610140d04ce3df8,,,,,,,,,,,2270.61,0.9,2271.51,2271.51,2272.242,left,1,0.727,,2272.242,2273.244,6,0,96,1,1,total,1,images/Ex10.jpg,left,training,hard,4,,,,,
,,,,,5980fff19bf4fe0001070984,001,,,,,2024-03-06_15h03.27.004,CRL1h,2023.2.3,Win32,60.0240096,65e67470ae2fbf2172c317b2,65e885b58610140d04ce3df8,,,,,,,,,,,2273.244,0.7,2273.943,2273.943,2274.592,right,1,0.646,,2274.592,2275.592,6,1,97,4,1,total,1,images/Ex13.jpg,right,training,hard,4,,,,,
,,,,,5980fff19bf4fe0001070984,001,,,,,2024-03-06_15h03.27.004,CRL1h,2023.2.3,Win32,60.0240096,65e67470ae2fbf2172c317b2,65e885b58610140d04ce3df8,,,,,,,,,,,2275.593,1,2276.592,2276.592,2277.325,right,0,0.726,,2277.325,2278.327,6,2,98,3,1,total,1,images/Ex12.jpg,left,training,hard,4,,,,,
,,,,,5980fff19bf4fe0001070984,001,,,,,2024-03-06_15h03.27.004,CRL1h,2023.2.3,Win32,60.0240096,65e67470ae2fbf2172c317b2,65e885b58610140d04ce3df8,,,,,,,,,,,2278.327,0.8,2279.126,2279.126,2279.993,right,0,0.861,,2279.994,2280.992,6,3,99,8,1,total,1,images/Ex9.jpg,left,training,hard,4,,,,,
,,,,,5980fff19bf4fe0001070984,001,,,,,2024-03-06_15h03.27.004,CRL1h,2023.2.3,Win32,60.0240096,65e67470ae2fbf2172c317b2,65e885b58610140d04ce3df8,,,,,,,,,,,2280.995,0.6,2281.592,2281.592,2282.294,left,0,0.7,,2282.294,2283.292,6,4,100,14,1,total,1,images/Ex15.jpg,right,training,hard,4,,,,,
,,,,,5980fff19bf4fe0001070984,001,,,,,2024-03-06_15h03.27.004,CRL1h,2023.2.3,Win32,60.0240096,65e67470ae2fbf2172c317b2,65e885b58610140d04ce3df8,,,,,,,,,,,2283.292,1.1,2284.392,2284.392,2285.043,right,1,0.643,,2285.043,2286.042,6,5,101,13,1,total,1,images/Ex14.jpg,right,training,hard,4,,,,,
,,,,,5980fff19bf4fe0001070984,001,,,,,2024-03-06_15h03.27.004,CRL1h,2023.2.3,Win32,60.0240096,65e67470ae2fbf2172c317b2,65e885b58610140d04ce3df8,,,,,,,,,,,2286.043,1.2,2287.243,2287.243,2288.076,left,1,0.827,,2288.076,2289.075,6,6,102,2,1,total,1,images/Ex11.jpg,left,training,hard,4,,,,,
,,,,,5980fff19bf4fe0001070984,001,,,,,2024-03-06_15h03.27.004,CRL1h,2023.2.3,Win32,60.0240096,65e67470ae2fbf2172c317b2,65e885b58610140d04ce3df8,,,,,,,,,,,2289.076,0.7,2289.775,2289.775,2290.629,left,0,0.853,,2290.629,2291.624,6,7,103,6,1,total,1,images/Ex15.jpg,right,training,hard,4,,,,,
,,,,,5980fff19bf4fe0001070984,001,,,,,2024-03-06_15h03.27.004,CRL1h,2023.2.3,Win32,60.0240096,65e67470ae2fbf2172c317b2,65e885b58610140d04ce3df8,,,,,,,,,,,2291.625,1.3,2292.925,2292.925,2293.544,right,0,0.617,,2293.544,2294.542,6,8,104,0,1,total,1,images/Ex9.jpg,left,training,hard,4,,,,,
,,,,,5980fff19bf4fe0001070984,001,,,,,2024-03-06_15h03.27.004,CRL1h,2023.2.3,Win32,60.0240096,65e67470ae2fbf2172c317b2,65e885b58610140d04ce3df8,,,,,,,,,,,2294.543,1.5,2296.042,2296.042,2296.793,left,1,0.743,,2296.793,2297.792,6,9,105,10,1,total,1,images/Ex11.jpg,left,training,hard,4,,,,,
,,,,,5980fff19bf4fe0001070984,001,,,,,2024-03-06_15h03.27.004,CRL1h,2023.2.3,Win32,60.0240096,65e67470ae2fbf2172c317b2,65e885b58610140d04ce3df8,,,,,,,,,,,2297.794,0.6,2298.392,2298.392,2299.258,right,1,0.86,,2299.258,2300.258,6,10,106,7,1,total,1,images/Ex16.jpg,right,training,hard,4,,,,,
,,,,,5980fff19bf4fe0001070984,001,,,,,2024-03-06_15h03.27.004,CRL1h,2023.2.3,Win32,60.0240096,65e67470ae2fbf2172c317b2,65e885b58610140d04ce3df8,,,,,,,,,,,2300.259,1.2,2301.459,2301.459,2302.274,right,0,0.811,,2302.274,2303.274,6,11,107,11,1,total,1,images/Ex12.jpg,left,training,hard,4,,,,,
,,,,,5980fff19bf4fe0001070984,001,,,,,2024-03-06_15h03.27.004,CRL1h,2023.2.3,Win32,60.0240096,65e67470ae2fbf2172c317b2,65e885b58610140d04ce3df8,,,,,,,,,,,2303.275,0.7,2303.975,2303.975,2306.408,left,1,2.426,,2306.408,2307.408,6,12,108,9,1,total,1,images/Ex10.jpg,left,training,hard,4,,,,,
,,,,,5980fff19bf4fe0001070984,001,,,,,2024-03-06_15h03.27.004,CRL1h,2023.2.3,Win32,60.0240096,65e67470ae2fbf2172c317b2,65e885b58610140d04ce3df8,,,,,,,,,,,2307.409,1.3,2308.709,2308.709,2309.341,right,1,0.627,,2309.341,2310.341,6,13,109,5,1,total,1,images/Ex14.jpg,right,training,hard,4,,,,,
,,,,,5980fff19bf4fe0001070984,001,,,,,2024-03-06_15h03.27.004,CRL1h,2023.2.3,Win32,60.0240096,65e67470ae2fbf2172c317b2,65e885b58610140d04ce3df8,,,,,,,,,,,2310.342,1.2,2311.541,2311.541,2312.257,right,1,0.71,,2312.257,2313.258,6,14,110,15,1,total,1,images/Ex16.jpg,right,training,hard,4,,,,,
,,,,,5980fff19bf4fe0001070984,001,,,,,2024-03-06_15h03.27.004,CRL1h,2023.2.3,Win32,60.0240096,65e67470ae2fbf2172c317b2,65e885b58610140d04ce3df8,,,,,,,,,,,2313.259,1,2314.258,2314.258,2315.074,right,1,0.809,,2315.074,2316.074,6,15,111,12,1,total,1,images/Ex13.jpg,right,training,hard,4,,,,,
,,,,,5980fff19bf4fe0001070984,001,,,,,2024-03-06_15h03.27.004,CRL1h,2023.2.3,Win32,60.0240096,65e67470ae2fbf2172c317b2,65e885b58610140d04ce3df8,,,,,,,,,,,2316.075,1.1,2317.175,2317.175,2318.141,right,0,0.959,,2318.141,2319.141,7,0,112,3,1,total,1,images/Ex12.jpg,left,training,hard,4,,,,,
,,,,,5980fff19bf4fe0001070984,001,,,,,2024-03-06_15h03.27.004,CRL1h,2023.2.3,Win32,60.0240096,65e67470ae2fbf2172c317b2,65e885b58610140d04ce3df8,,,,,,,,,,,2319.141,0.7,2319.841,2319.841,2320.707,left,0,0.86,,2320.707,2321.707,7,1,113,7,1,total,1,images/Ex16.jpg,right,training,hard,4,,,,,
,,,,,5980fff19bf4fe0001070984,001,,,,,2024-03-06_15h03.27.004,CRL1h,2023.2.3,Win32,60.0240096,65e67470ae2fbf2172c317b2,65e885b58610140d04ce3df8,,,,,,,,,,,2321.708,0.6,2322.308,2322.308,2322.64,right,0,0.329,,2322.64,2323.641,7,2,114,11,1,total,1,images/Ex12.jpg,left,training,hard,4,,,,,
,,,,,5980fff19bf4fe0001070984,001,,,,,2024-03-06_15h03.27.004,CRL1h,2023.2.3,Win32,60.0240096,65e67470ae2fbf2172c317b2,65e885b58610140d04ce3df8,,,,,,,,,,,2323.641,1,2324.641,2324.641,2325.408,right,1,0.759,,2325.408,2326.407,7,3,115,12,1,total,1,images/Ex13.jpg,right,training,hard,4,,,,,
,,,,,5980fff19bf4fe0001070984,001,,,,,2024-03-06_15h03.27.004,CRL1h,2023.2.3,Win32,60.0240096,65e67470ae2fbf2172c317b2,65e885b58610140d04ce3df8,,,,,,,,,,,2326.408,1.3,2327.707,2327.707,2328.807,right,0,1.098,,2328.807,2329.807,7,4,116,0,1,total,1,images/Ex9.jpg,left,training,hard,4,,,,,
,,,,,5980fff19bf4fe0001070984,001,,,,,2024-03-06_15h03.27.004,CRL1h,2023.2.3,Win32,60.0240096,65e67470ae2fbf2172c317b2,65e885b58610140d04ce3df8,,,,,,,,,,,2329.808,1.2,2331.007,2331.007,2331.49,left,0,0.477,,2331.49,2332.49,7,5,117,6,1,total,1,images/Ex15.jpg,right,training,hard,4,,,,,
,,,,,5980fff19bf4fe0001070984,001,,,,,2024-03-06_15h03.27.004,CRL1h,2023.2.3,Win32,60.0240096,65e67470ae2fbf2172c317b2,65e885b58610140d04ce3df8,,,,,,,,,,,2332.491,0.7,2333.19,2333.19,2333.973,right,1,0.776,,2333.973,2334.974,7,6,118,4,1,total,1,images/Ex13.jpg,right,training,hard,4,,,,,
,,,,,5980fff19bf4fe0001070984,001,,,,,2024-03-06_15h03.27.004,CRL1h,2023.2.3,Win32,60.0240096,65e67470ae2fbf2172c317b2,65e885b58610140d04ce3df8,,,,,,,,,,,2334.974,1.4,2336.373,2336.373,2337.09,left,1,0.71,,2337.09,2338.09,7,7,119,2,1,total,1,images/Ex11.jpg,left,training,hard,4,,,,,
,,,,,5980fff19bf4fe0001070984,001,,,,,2024-03-06_15h03.27.004,CRL1h,2023.2.3,Win32,60.0240096,65e67470ae2fbf2172c317b2,65e885b58610140d04ce3df8,,,,,,,,,,,2338.09,0.5,2338.59,2338.59,2339.589,right,0,0.993,,2339.589,2340.591,7,8,120,9,1,total,1,images/Ex10.jpg,left,training,hard,4,,,,,
,,,,,5980fff19bf4fe0001070984,001,,,,,2024-03-06_15h03.27.004,CRL1h,2023.2.3,Win32,60.0240096,65e67470ae2fbf2172c317b2,65e885b58610140d04ce3df8,,,,,,,,,,,2340.592,0.9,2341.49,2341.49,2341.957,left,0,0.46,,2341.957,2342.956,7,9,121,14,1,total,1,images/Ex15.jpg,right,training,hard,4,,,,,
,,,,,5980fff19bf4fe0001070984,001,,,,,2024-03-06_15h03.27.004,CRL1h,2023.2.3,Win32,60.0240096,65e67470ae2fbf2172c317b2,65e885b58610140d04ce3df8,,,,,,,,,,,2342.956,1.4,2344.356,2344.356,2345.239,right,0,0.878,,2345.239,2346.24,7,10,122,1,1,total,1,images/Ex10.jpg,left,training,hard,4,,,,,
,,,,,5980fff19bf4fe0001070984,001,,,,,2024-03-06_15h03.27.004,CRL1h,2023.2.3,Win32,60.0240096,65e67470ae2fbf2172c317b2,65e885b58610140d04ce3df8,,,,,,,,,,,2346.242,0.8,2347.04,2347.04,2347.84,left,1,0.792,,2347.84,2348.84,7,11,123,8,1,total,1,images/Ex9.jpg,left,training,hard,4,,,,,
,,,,,5980fff19bf4fe0001070984,001,,,,,2024-03-06_15h03.27.004,CRL1h,2023.2.3,Win32,60.0240096,65e67470ae2fbf2172c317b2,65e885b58610140d04ce3df8,,,,,,,,,,,2348.84,1.2,2350.04,2350.04,2350.774,right,1,0.727,,2350.776,2351.773,7,12,124,13,1,total,1,images/Ex14.jpg,right,training,hard,4,,,,,
,,,,,5980fff19bf4fe0001070984,001,,,,,2024-03-06_15h03.27.004,CRL1h,2023.2.3,Win32,60.0240096,65e67470ae2fbf2172c317b2,65e885b58610140d04ce3df8,,,,,,,,,,,2351.773,1.4,2353.175,2353.175,2353.906,left,0,0.724,,2353.906,2354.906,7,13,125,15,1,total,1,images/Ex16.jpg,right,training,hard,4,,,,,
,,,,,5980fff19bf4fe0001070984,001,,,,,2024-03-06_15h03.27.004,CRL1h,2023.2.3,Win32,60.0240096,65e67470ae2fbf2172c317b2,65e885b58610140d04ce3df8,,,,,,,,,,,2354.907,1.3,2356.206,2356.206,2357.072,right,1,0.863,,2357.072,2358.073,7,14,126,5,1,total,1,images/Ex14.jpg,right,training,hard,4,,,,,
,,,,,5980fff19bf4fe0001070984,001,,,,,2024-03-06_15h03.27.004,CRL1h,2023.2.3,Win32,60.0240096,65e67470ae2fbf2172c317b2,65e885b58610140d04ce3df8,,,,,,,,,,,2358.074,1.4,2359.474,2359.474,2361.189,left,1,1.713,,2361.189,2362.189,7,15,127,10,1,total,1,images/Ex11.jpg,left,training,hard,4,,,,,
,,,,,5980fff19bf4fe0001070984,001,,,,,2024-03-06_15h03.27.004,CRL1h,2023.2.3,Win32,60.0240096,65e67470ae2fbf2172c317b2,65e885b58610140d04ce3df8,,,,,,,,,,,2362.194,0.5,2362.69,2362.69,2364.572,right,1,1.876,,2364.572,2365.573,0,0,0,3,1,total,2,images/Ex12.jpg,right,reversed,hard,4,,,,,
,,,,,5980fff19bf4fe0001070984,001,,,,,2024-03-06_15h03.27.004,CRL1h,2023.2.3,Win32,60.0240096,65e67470ae2fbf2172c317b2,65e885b58610140d04ce3df8,,,,,,,,,,,2365.575,0.8,2366.373,2366.373,2367.005,left,0,0.623,,2367.005,2368.005,0,1,1,8,1,total,2,images/Ex9.jpg,right,reversed,hard,4,,,,,
,,,,,5980fff19bf4fe0001070984,001,,,,,2024-03-06_15h03.27.004,CRL1h,2023.2.3,Win32,60.0240096,65e67470ae2fbf2172c317b2,65e885b58610140d04ce3df8,,,,,,,,,,,2368.006,0.8,2368.805,2368.805,2369.505,right,0,0.695,,2369.505,2370.505,0,2,2,4,1,total,2,images/Ex13.jpg,left,reversed,hard,4,,,,,
,,,,,5980fff19bf4fe0001070984,001,,,,,2024-03-06_15h03.27.004,CRL1h,2023.2.3,Win32,60.0240096,65e67470ae2fbf2172c317b2,65e885b58610140d04ce3df8,,,,,,,,,,,2370.506,0.6,2371.105,2371.105,2371.956,right,0,0.842,,2371.956,2372.956,0,3,3,7,1,total,2,images/Ex16.jpg,left,reversed,hard,4,,,,,
,,,,,5980fff19bf4fe0001070984,001,,,,,2024-03-06_15h03.27.004,CRL1h,2023.2.3,Win32,60.0240096,65e67470ae2fbf2172c317b2,65e885b58610140d04ce3df8,,,,,,,,,,,2372.957,1.4,2374.354,2374.354,2375.022,left,0,0.66,,2375.022,2376.021,0,4,4,2,1,total,2,images/Ex11.jpg,right,reversed,hard,4,,,,,
,,,,,5980fff19bf4fe0001070984,001,,,,,2024-03-06_15h03.27.004,CRL1h,2023.2.3,Win32,60.0240096,65e67470ae2fbf2172c317b2,65e885b58610140d04ce3df8,,,,,,,,,,,2376.022,0.9,2376.925,2376.925,2380.174,right,0,3.245,,2380.175,2381.171,0,5,5,5,1,total,2,images/Ex14.jpg,left,reversed,hard,4,,,,,
,,,,,5980fff19bf4fe0001070984,001,,,,,2024-03-06_15h03.27.004,CRL1h,2023.2.3,Win32,60.0240096,65e67470ae2fbf2172c317b2,65e885b58610140d04ce3df8,,,,,,,,,,,2381.173,0.7,2381.871,2381.872,2382.804,left,1,0.927,,2382.805,2383.805,0,6,6,13,1,total,2,images/Ex14.jpg,left,reversed,hard,4,,,,,
,,,,,5980fff19bf4fe0001070984,001,,,,,2024-03-06_15h03.27.004,CRL1h,2023.2.3,Win32,60.0240096,65e67470ae2fbf2172c317b2,65e885b58610140d04ce3df8,,,,,,,,,,,2383.806,0.7,2384.505,2384.505,2385.471,left,1,0.96,,2385.472,2386.472,0,7,7,14,1,total,2,images/Ex15.jpg,left,reversed,hard,4,,,,,
,,,,,5980fff19bf4fe0001070984,001,,,,,2024-03-06_15h03.27.004,CRL1h,2023.2.3,Win32,60.0240096,65e67470ae2fbf2172c317b2,65e885b58610140d04ce3df8,,,,,,,,,,,2386.473,1.1,2387.571,2387.571,2388.272,left,1,0.694,,2388.272,2389.271,0,8,8,6,1,total,2,images/Ex15.jpg,left,reversed,hard,4,,,,,
,,,,,5980fff19bf4fe0001070984,001,,,,,2024-03-06_15h03.27.004,CRL1h,2023.2.3,Win32,60.0240096,65e67470ae2fbf2172c317b2,65e885b58610140d04ce3df8,,,,,,,,,,,2389.271,1.4,2390.671,2390.671,2392.071,left,0,1.397,,2392.071,2393.071,0,9,9,10,1,total,2,images/Ex11.jpg,right,reversed,hard,4,,,,,
,,,,,5980fff19bf4fe0001070984,001,,,,,2024-03-06_15h03.27.004,CRL1h,2023.2.3,Win32,60.0240096,65e67470ae2fbf2172c317b2,65e885b58610140d04ce3df8,,,,,,,,,,,2393.071,1.1,2394.171,2394.171,2396.97,left,0,2.794,,2396.97,2397.97,0,10,10,9,1,total,2,images/Ex10.jpg,right,reversed,hard,4,,,,,
,,,,,5980fff19bf4fe0001070984,001,,,,,2024-03-06_15h03.27.004,CRL1h,2023.2.3,Win32,60.0240096,65e67470ae2fbf2172c317b2,65e885b58610140d04ce3df8,,,,,,,,,,,2397.971,1.3,2399.271,2399.271,2401.421,right,0,2.143,,2401.421,2402.421,0,11,11,15,1,total,2,images/Ex16.jpg,left,reversed,hard,4,,,,,
,,,,,5980fff19bf4fe0001070984,001,,,,,2024-03-06_15h03.27.004,CRL1h,2023.2.3,Win32,60.0240096,65e67470ae2fbf2172c317b2,65e885b58610140d04ce3df8,,,,,,,,,,,2402.421,0.5,2402.92,2402.92,2403.621,left,0,0.694,,2403.621,2404.621,0,12,12,0,1,total,2,images/Ex9.jpg,right,reversed,hard,4,,,,,
,,,,,5980fff19bf4fe0001070984,001,,,,,2024-03-06_15h03.27.004,CRL1h,2023.2.3,Win32,60.0240096,65e67470ae2fbf2172c317b2,65e885b58610140d04ce3df8,,,,,,,,,,,2404.621,0.8,2405.42,2405.42,2406.037,right,1,0.611,,2406.037,2407.037,0,13,13,1,1,total,2,images/Ex10.jpg,right,reversed,hard,4,,,,,
,,,,,5980fff19bf4fe0001070984,001,,,,,2024-03-06_15h03.27.004,CRL1h,2023.2.3,Win32,60.0240096,65e67470ae2fbf2172c317b2,65e885b58610140d04ce3df8,,,,,,,,,,,2407.038,1.5,2408.537,2408.537,2409.004,right,0,0.461,,2409.004,2410.004,0,14,14,12,1,total,2,images/Ex13.jpg,left,reversed,hard,4,,,,,
,,,,,5980fff19bf4fe0001070984,001,,,,,2024-03-06_15h03.27.004,CRL1h,2023.2.3,Win32,60.0240096,65e67470ae2fbf2172c317b2,65e885b58610140d04ce3df8,,,,,,,,,,,2410.005,1.3,2411.303,2411.303,2412.003,left,0,0.696,,2412.003,2413.003,0,15,15,11,1,total,2,images/Ex12.jpg,right,reversed,hard,4,,,,,
,,,,,5980fff19bf4fe0001070984,001,,,,,2024-03-06_15h03.27.004,CRL1h,2023.2.3,Win32,60.0240096,65e67470ae2fbf2172c317b2,65e885b58610140d04ce3df8,,,,,,,,,,,2413.004,0.6,2413.604,2413.604,2414.588,left,0,0.977,,2414.588,2415.587,1,0,16,2,1,total,2,images/Ex11.jpg,right,reversed,hard,4,,,,,
,,,,,5980fff19bf4fe0001070984,001,,,,,2024-03-06_15h03.27.004,CRL1h,2023.2.3,Win32,60.0240096,65e67470ae2fbf2172c317b2,65e885b58610140d04ce3df8,,,,,,,,,,,2415.589,1.1,2416.687,2416.687,2417.187,right,0,0.495,,2417.188,2418.186,1,1,17,7,1,total,2,images/Ex16.jpg,left,reversed,hard,4,,,,,
,,,,,5980fff19bf4fe0001070984,001,,,,,2024-03-06_15h03.27.004,CRL1h,2023.2.3,Win32,60.0240096,65e67470ae2fbf2172c317b2,65e885b58610140d04ce3df8,,,,,,,,,,,2418.187,1.1,2419.286,2419.286,2419.62,left,1,0.326,,2419.62,2420.62,1,2,18,5,1,total,2,images/Ex14.jpg,left,reversed,hard,4,,,,,
,,,,,5980fff19bf4fe0001070984,001,,,,,2024-03-06_15h03.27.004,CRL1h,2023.2.3,Win32,60.0240096,65e67470ae2fbf2172c317b2,65e885b58610140d04ce3df8,,,,,,,,,,,2420.62,1,2421.62,2421.62,2422.471,left,0,0.849,,2422.471,2423.47,1,3,19,0,1,total,2,images/Ex9.jpg,right,reversed,hard,4,,,,,
,,,,,5980fff19bf4fe0001070984,001,,,,,2024-03-06_15h03.27.004,CRL1h,2023.2.3,Win32,60.0240096,65e67470ae2fbf2172c317b2,65e885b58610140d04ce3df8,,,,,,,,,,,2423.47,1.2,2424.67,2424.67,2425.569,right,1,0.895,,2425.569,2426.569,1,4,20,1,1,total,2,images/Ex10.jpg,right,reversed,hard,4,,,,,
,,,,,5980fff19bf4fe0001070984,001,,,,,2024-03-06_15h03.27.004,CRL1h,2023.2.3,Win32,60.0240096,65e67470ae2fbf2172c317b2,65e885b58610140d04ce3df8,,,,,,,,,,,2426.571,0.8,2427.369,2427.369,2428.086,right,0,0.71,,2428.086,2429.086,1,5,21,12,1,total,2,images/Ex13.jpg,left,reversed,hard,4,,,,,
,,,,,5980fff19bf4fe0001070984,001,,,,,2024-03-06_15h03.27.004,CRL1h,2023.2.3,Win32,60.0240096,65e67470ae2fbf2172c317b2,65e885b58610140d04ce3df8,,,,,,,,,,,2429.087,1.3,2430.386,2430.386,2431.153,left,0,0.761,,2431.153,2432.153,1,6,22,9,1,total,2,images/Ex10.jpg,right,reversed,hard,4,,,,,
,,,,,5980fff19bf4fe0001070984,001,,,,,2024-03-06_15h03.27.004,CRL1h,2023.2.3,Win32,60.0240096,65e67470ae2fbf2172c317b2,65e885b58610140d04ce3df8,,,,,,,,,,,2432.154,1.3,2433.454,2433.454,2434.719,left,0,1.261,,2434.719,2435.719,1,7,23,10,1,total,2,images/Ex11.jpg,right,reversed,hard,4,,,,,
,,,,,5980fff19bf4fe0001070984,001,,,,,2024-03-06_15h03.27.004,CRL1h,2023.2.3,Win32,60.0240096,65e67470ae2fbf2172c317b2,65e885b58610140d04ce3df8,,,,,,,,,,,2435.719,0.8,2436.519,2436.519,2437.17,right,0,0.644,,2437.17,2438.169,1,8,24,4,1,total,2,images/Ex13.jpg,left,reversed,hard,4,,,,,
,,,,,5980fff19bf4fe0001070984,001,,,,,2024-03-06_15h03.27.004,CRL1h,2023.2.3,Win32,60.0240096,65e67470ae2fbf2172c317b2,65e885b58610140d04ce3df8,,,,,,,,,,,2438.17,1.1,2439.27,2439.27,2440.086,left,1,0.815,,2440.086,2441.085,1,9,25,15,1,total,2,images/Ex16.jpg,left,reversed,hard,4,,,,,
