infCons.started,infCons.stopped,resp_consent.keys,resp_consent.rt,resp_consent.duration,participant,session,Age?,Gender?,Nationality?,Highest Educational Degree?,date,expName,psychopyVersion,OS,frameRate,STUDY_ID,SESSION_ID,instructions.started,instructions.stopped,resp_instructions.keys,resp_instructions.rt,resp_instructions.duration,nextTask.started,nextTask.stopped,ready_task.keys,ready_task.rt,ready_task.duration,fixation.started,ITI,fixation.stopped,stim.started,stim.stopped,response.keys,response.corr,response.rt,response.duration,feedback.started,feedback.stopped,trials.thisRepN,trials.thisTrialN,trials.thisN,trials.thisIndex,trials.ran,task,phase,Exemplars,r_correct,condition,difficulty,set,end.started,end.stopped,resp_end.keys,resp_end.rt,resp_end.duration
0,18.58,space,18.539,,5cb20f2d7c917b00172dfef5,001,,,,,2024-03-06_14h28.42.889,CRL1h,2023.2.3,MacIntel,62.5,65e67470ae2fbf2172c317b2,65e87d70e4be41a1b087e7e9,,,,,,,,,,,,,,,,,,,,,,,,,,,,,,,,,,,,,,
,,,,,5cb20f2d7c917b00172dfef5,001,,,,,2024-03-06_14h28.42.889,CRL1h,2023.2.3,MacIntel,62.5,65e67470ae2fbf2172c317b2,65e87d70e4be41a1b087e7e9,18.581,46.947,space,28.307,,,,,,,,,,,,,,,,,,,,,,,,,,,,,,,,,,
,,,,,5cb20f2d7c917b00172dfef5,001,,,,,2024-03-06_14h28.42.889,CRL1h,2023.2.3,MacIntel,62.5,65e67470ae2fbf2172c317b2,65e87d70e4be41a1b087e7e9,,,,,,46.961,50.263,space,3.277,,50.275,1.3,51.58,51.581,55.48,left,1,3.882,,55.481,56.48,0,0,0,8,1,partial,1,images/Ex1.jpg,left,training,hard,3,,,,,
,,,,,5cb20f2d7c917b00172dfef5,001,,,,,2024-03-06_14h28.42.889,CRL1h,2023.2.3,MacIntel,62.5,65e67470ae2fbf2172c317b2,65e87d70e4be41a1b087e7e9,,,,,,,,,,,56.482,0.8,57.279,57.279,58.063,left,0,0.772,,58.063,59.063,0,1,1,12,1,partial,1,images/Ex5.jpg,right,training,hard,3,,,,,
,,,,,5cb20f2d7c917b00172dfef5,001,,,,,2024-03-06_14h28.42.889,CRL1h,2023.2.3,MacIntel,62.5,65e67470ae2fbf2172c317b2,65e87d70e4be41a1b087e7e9,,,,,,,,,,,59.064,0.6,59.663,59.663,60.396,right,1,0.728,,60.396,61.396,0,2,2,6,1,partial,1,images/Ex7.jpg,right,training,hard,3,,,,,
,,,,,5cb20f2d7c917b00172dfef5,001,,,,,2024-03-06_14h28.42.889,CRL1h,2023.2.3,MacIntel,62.5,65e67470ae2fbf2172c317b2,65e87d70e4be41a1b087e7e9,,,,,,,,,,,61.397,1.2,62.596,62.596,63.08,right,1,0.474,,63.08,64.079,0,3,3,14,1,partial,1,images/Ex7.jpg,right,training,hard,3,,,,,
,,,,,5cb20f2d7c917b00172dfef5,001,,,,,2024-03-06_14h28.42.889,CRL1h,2023.2.3,MacIntel,62.5,65e67470ae2fbf2172c317b2,65e87d70e4be41a1b087e7e9,,,,,,,,,,,64.081,1,65.079,65.079,65.729,right,0,0.637,,65.729,66.729,0,4,4,10,1,partial,1,images/Ex3.jpg,left,training,hard,3,,,,,
,,,,,5cb20f2d7c917b00172dfef5,001,,,,,2024-03-06_14h28.42.889,CRL1h,2023.2.3,MacIntel,62.5,65e67470ae2fbf2172c317b2,65e87d70e4be41a1b087e7e9,,,,,,,,,,,66.731,1.4,68.129,68.129,68.696,right,0,0.56,,68.696,69.696,0,5,5,11,1,partial,1,images/Ex4.jpg,left,training,hard,3,,,,,
,,,,,5cb20f2d7c917b00172dfef5,001,,,,,2024-03-06_14h28.42.889,CRL1h,2023.2.3,MacIntel,62.5,65e67470ae2fbf2172c317b2,65e87d70e4be41a1b087e7e9,,,,,,,,,,,69.697,0.7,70.396,70.396,70.896,left,0,0.494,,70.896,71.896,0,6,6,13,1,partial,1,images/Ex6.jpg,right,training,hard,3,,,,,
,,,,,5cb20f2d7c917b00172dfef5,001,,,,,2024-03-06_14h28.42.889,CRL1h,2023.2.3,MacIntel,62.5,65e67470ae2fbf2172c317b2,65e87d70e4be41a1b087e7e9,,,,,,,,,,,71.897,1,72.896,72.896,73.546,right,1,0.636,,73.546,74.546,0,7,7,7,1,partial,1,images/Ex8.jpg,right,training,hard,3,,,,,
,,,,,5cb20f2d7c917b00172dfef5,001,,,,,2024-03-06_14h28.42.889,CRL1h,2023.2.3,MacIntel,62.5,65e67470ae2fbf2172c317b2,65e87d70e4be41a1b087e7e9,,,,,,,,,,,74.547,1.1,75.647,75.647,76.062,right,1,0.405,,76.062,77.063,0,8,8,15,1,partial,1,images/Ex8.jpg,right,training,hard,3,,,,,
,,,,,5cb20f2d7c917b00172dfef5,001,,,,,2024-03-06_14h28.42.889,CRL1h,2023.2.3,MacIntel,62.5,65e67470ae2fbf2172c317b2,65e87d70e4be41a1b087e7e9,,,,,,,,,,,77.064,0.9,77.963,77.963,78.446,left,0,0.471,,78.446,79.446,0,9,9,4,1,partial,1,images/Ex5.jpg,right,training,hard,3,,,,,
,,,,,5cb20f2d7c917b00172dfef5,001,,,,,2024-03-06_14h28.42.889,CRL1h,2023.2.3,MacIntel,62.5,65e67470ae2fbf2172c317b2,65e87d70e4be41a1b087e7e9,,,,,,,,,,,79.447,1.3,80.75,80.75,81.363,left,1,0.601,,81.363,82.363,0,10,10,0,1,partial,1,images/Ex1.jpg,left,training,hard,3,,,,,
,,,,,5cb20f2d7c917b00172dfef5,001,,,,,2024-03-06_14h28.42.889,CRL1h,2023.2.3,MacIntel,62.5,65e67470ae2fbf2172c317b2,65e87d70e4be41a1b087e7e9,,,,,,,,,,,82.364,1.3,83.663,83.663,84.229,right,0,0.554,,84.23,85.23,0,11,11,1,1,partial,1,images/Ex2.jpg,left,training,hard,3,,,,,
,,,,,5cb20f2d7c917b00172dfef5,001,,,,,2024-03-06_14h28.42.889,CRL1h,2023.2.3,MacIntel,62.5,65e67470ae2fbf2172c317b2,65e87d70e4be41a1b087e7e9,,,,,,,,,,,85.231,1.4,86.63,86.63,87.213,left,1,0.571,,87.213,88.213,0,12,12,9,1,partial,1,images/Ex2.jpg,left,training,hard,3,,,,,
,,,,,5cb20f2d7c917b00172dfef5,001,,,,,2024-03-06_14h28.42.889,CRL1h,2023.2.3,MacIntel,62.5,65e67470ae2fbf2172c317b2,65e87d70e4be41a1b087e7e9,,,,,,,,,,,88.214,0.7,88.913,88.913,89.596,right,0,0.678,,89.596,90.596,0,13,13,3,1,partial,1,images/Ex4.jpg,left,training,hard,3,,,,,
,,,,,5cb20f2d7c917b00172dfef5,001,,,,,2024-03-06_14h28.42.889,CRL1h,2023.2.3,MacIntel,62.5,65e67470ae2fbf2172c317b2,65e87d70e4be41a1b087e7e9,,,,,,,,,,,90.597,1,91.597,91.597,92.263,left,1,0.652,,92.263,93.263,0,14,14,2,1,partial,1,images/Ex3.jpg,left,training,hard,3,,,,,
,,,,,5cb20f2d7c917b00172dfef5,001,,,,,2024-03-06_14h28.42.889,CRL1h,2023.2.3,MacIntel,62.5,65e67470ae2fbf2172c317b2,65e87d70e4be41a1b087e7e9,,,,,,,,,,,93.265,0.9,94.163,94.163,94.962,left,0,0.794,,94.962,95.963,0,15,15,5,1,partial,1,images/Ex6.jpg,right,training,hard,3,,,,,
,,,,,5cb20f2d7c917b00172dfef5,001,,,,,2024-03-06_14h28.42.889,CRL1h,2023.2.3,MacIntel,62.5,65e67470ae2fbf2172c317b2,65e87d70e4be41a1b087e7e9,,,,,,,,,,,95.964,0.8,96.763,96.763,97.596,left,1,0.829,,97.596,98.596,1,0,16,10,1,partial,1,images/Ex3.jpg,left,training,hard,3,,,,,
,,,,,5cb20f2d7c917b00172dfef5,001,,,,,2024-03-06_14h28.42.889,CRL1h,2023.2.3,MacIntel,62.5,65e67470ae2fbf2172c317b2,65e87d70e4be41a1b087e7e9,,,,,,,,,,,98.597,0.8,99.396,99.396,99.979,left,1,0.569,,99.98,100.98,1,1,17,0,1,partial,1,images/Ex1.jpg,left,training,hard,3,,,,,
,,,,,5cb20f2d7c917b00172dfef5,001,,,,,2024-03-06_14h28.42.889,CRL1h,2023.2.3,MacIntel,62.5,65e67470ae2fbf2172c317b2,65e87d70e4be41a1b087e7e9,,,,,,,,,,,100.981,1.4,102.38,102.38,103.129,right,0,0.739,,103.13,104.129,1,2,18,11,1,partial,1,images/Ex4.jpg,left,training,hard,3,,,,,
,,,,,5cb20f2d7c917b00172dfef5,001,,,,,2024-03-06_14h28.42.889,CRL1h,2023.2.3,MacIntel,62.5,65e67470ae2fbf2172c317b2,65e87d70e4be41a1b087e7e9,,,,,,,,,,,104.13,0.7,104.829,104.829,105.596,left,0,0.762,,105.597,106.596,1,3,19,5,1,partial,1,images/Ex6.jpg,right,training,hard,3,,,,,
,,,,,5cb20f2d7c917b00172dfef5,001,,,,,2024-03-06_14h28.42.889,CRL1h,2023.2.3,MacIntel,62.5,65e67470ae2fbf2172c317b2,65e87d70e4be41a1b087e7e9,,,,,,,,,,,106.597,1.2,107.796,107.796,108.996,left,1,1.188,,108.996,109.996,1,4,20,1,1,partial,1,images/Ex2.jpg,left,training,hard,3,,,,,
,,,,,5cb20f2d7c917b00172dfef5,001,,,,,2024-03-06_14h28.42.889,CRL1h,2023.2.3,MacIntel,62.5,65e67470ae2fbf2172c317b2,65e87d70e4be41a1b087e7e9,,,,,,,,,,,109.997,0.6,110.596,110.596,111.613,left,1,1.006,,111.613,112.613,1,5,21,3,1,partial,1,images/Ex4.jpg,left,training,hard,3,,,,,
,,,,,5cb20f2d7c917b00172dfef5,001,,,,,2024-03-06_14h28.42.889,CRL1h,2023.2.3,MacIntel,62.5,65e67470ae2fbf2172c317b2,65e87d70e4be41a1b087e7e9,,,,,,,,,,,112.614,1.2,113.813,113.813,114.996,right,1,1.173,,114.996,115.996,1,6,22,4,1,partial,1,images/Ex5.jpg,right,training,hard,3,,,,,
,,,,,5cb20f2d7c917b00172dfef5,001,,,,,2024-03-06_14h28.42.889,CRL1h,2023.2.3,MacIntel,62.5,65e67470ae2fbf2172c317b2,65e87d70e4be41a1b087e7e9,,,,,,,,,,,115.997,1,116.995,116.995,117.88,left,1,0.871,,117.88,118.879,1,7,23,8,1,partial,1,images/Ex1.jpg,left,training,hard,3,,,,,
,,,,,5cb20f2d7c917b00172dfef5,001,,,,,2024-03-06_14h28.42.889,CRL1h,2023.2.3,MacIntel,62.5,65e67470ae2fbf2172c317b2,65e87d70e4be41a1b087e7e9,,,,,,,,,,,118.88,0.9,119.779,119.779,120.813,right,1,1.021,,120.813,121.813,1,8,24,6,1,partial,1,images/Ex7.jpg,right,training,hard,3,,,,,
,,,,,5cb20f2d7c917b00172dfef5,001,,,,,2024-03-06_14h28.42.889,CRL1h,2023.2.3,MacIntel,62.5,65e67470ae2fbf2172c317b2,65e87d70e4be41a1b087e7e9,,,,,,,,,,,121.814,1.3,123.113,123.113,124.48,right,0,1.354,,124.48,125.48,1,9,25,2,1,partial,1,images/Ex3.jpg,left,training,hard,3,,,,,
,,,,,5cb20f2d7c917b00172dfef5,001,,,,,2024-03-06_14h28.42.889,CRL1h,2023.2.3,MacIntel,62.5,65e67470ae2fbf2172c317b2,65e87d70e4be41a1b087e7e9,,,,,,,,,,,125.481,0.7,126.179,126.18,127.496,left,1,1.306,,127.496,128.496,1,10,26,9,1,partial,1,images/Ex2.jpg,left,training,hard,3,,,,,
,,,,,5cb20f2d7c917b00172dfef5,001,,,,,2024-03-06_14h28.42.889,CRL1h,2023.2.3,MacIntel,62.5,65e67470ae2fbf2172c317b2,65e87d70e4be41a1b087e7e9,,,,,,,,,,,128.497,0.9,129.396,129.396,130.663,left,0,1.258,,130.663,131.663,1,11,27,14,1,partial,1,images/Ex7.jpg,right,training,hard,3,,,,,
,,,,,5cb20f2d7c917b00172dfef5,001,,,,,2024-03-06_14h28.42.889,CRL1h,2023.2.3,MacIntel,62.5,65e67470ae2fbf2172c317b2,65e87d70e4be41a1b087e7e9,,,,,,,,,,,131.664,1.4,133.063,133.063,134.08,right,1,1.004,,134.08,135.08,1,12,28,7,1,partial,1,images/Ex8.jpg,right,training,hard,3,,,,,
,,,,,5cb20f2d7c917b00172dfef5,001,,,,,2024-03-06_14h28.42.889,CRL1h,2023.2.3,MacIntel,62.5,65e67470ae2fbf2172c317b2,65e87d70e4be41a1b087e7e9,,,,,,,,,,,135.081,1.3,136.38,136.38,137.38,left,0,0.99,,137.38,138.38,1,13,29,13,1,partial,1,images/Ex6.jpg,right,training,hard,3,,,,,
,,,,,5cb20f2d7c917b00172dfef5,001,,,,,2024-03-06_14h28.42.889,CRL1h,2023.2.3,MacIntel,62.5,65e67470ae2fbf2172c317b2,65e87d70e4be41a1b087e7e9,,,,,,,,,,,138.381,0.9,139.281,139.281,140.413,right,1,1.122,,140.414,141.413,1,14,30,15,1,partial,1,images/Ex8.jpg,right,training,hard,3,,,,,
,,,,,5cb20f2d7c917b00172dfef5,001,,,,,2024-03-06_14h28.42.889,CRL1h,2023.2.3,MacIntel,62.5,65e67470ae2fbf2172c317b2,65e87d70e4be41a1b087e7e9,,,,,,,,,,,141.416,1.2,142.614,142.614,143.83,right,1,1.201,,143.83,144.83,1,15,31,12,1,partial,1,images/Ex5.jpg,right,training,hard,3,,,,,
,,,,,5cb20f2d7c917b00172dfef5,001,,,,,2024-03-06_14h28.42.889,CRL1h,2023.2.3,MacIntel,62.5,65e67470ae2fbf2172c317b2,65e87d70e4be41a1b087e7e9,,,,,,,,,,,144.831,1,145.83,145.83,146.913,left,1,1.072,,146.913,147.913,2,0,32,1,1,partial,1,images/Ex2.jpg,left,training,hard,3,,,,,
,,,,,5cb20f2d7c917b00172dfef5,001,,,,,2024-03-06_14h28.42.889,CRL1h,2023.2.3,MacIntel,62.5,65e67470ae2fbf2172c317b2,65e87d70e4be41a1b087e7e9,,,,,,,,,,,147.915,0.7,148.613,148.613,149.764,left,1,1.139,,149.764,150.763,2,1,33,10,1,partial,1,images/Ex3.jpg,left,training,hard,3,,,,,
,,,,,5cb20f2d7c917b00172dfef5,001,,,,,2024-03-06_14h28.42.889,CRL1h,2023.2.3,MacIntel,62.5,65e67470ae2fbf2172c317b2,65e87d70e4be41a1b087e7e9,,,,,,,,,,,150.765,1.5,152.263,152.264,152.896,left,1,0.621,,152.896,153.897,2,2,34,2,1,partial,1,images/Ex3.jpg,left,training,hard,3,,,,,
,,,,,5cb20f2d7c917b00172dfef5,001,,,,,2024-03-06_14h28.42.889,CRL1h,2023.2.3,MacIntel,62.5,65e67470ae2fbf2172c317b2,65e87d70e4be41a1b087e7e9,,,,,,,,,,,153.898,1.5,155.397,155.397,156.547,left,0,1.139,,156.547,157.547,2,3,35,14,1,partial,1,images/Ex7.jpg,right,training,hard,3,,,,,
,,,,,5cb20f2d7c917b00172dfef5,001,,,,,2024-03-06_14h28.42.889,CRL1h,2023.2.3,MacIntel,62.5,65e67470ae2fbf2172c317b2,65e87d70e4be41a1b087e7e9,,,,,,,,,,,157.548,1.4,158.947,158.947,159.913,left,0,0.955,,159.913,160.913,2,4,36,15,1,partial,1,images/Ex8.jpg,right,training,hard,3,,,,,
,,,,,5cb20f2d7c917b00172dfef5,001,,,,,2024-03-06_14h28.42.889,CRL1h,2023.2.3,MacIntel,62.5,65e67470ae2fbf2172c317b2,65e87d70e4be41a1b087e7e9,,,,,,,,,,,160.914,1.4,162.313,162.313,163.413,right,0,1.089,,163.414,164.414,2,5,37,3,1,partial,1,images/Ex4.jpg,left,training,hard,3,,,,,
,,,,,5cb20f2d7c917b00172dfef5,001,,,,,2024-03-06_14h28.42.889,CRL1h,2023.2.3,MacIntel,62.5,65e67470ae2fbf2172c317b2,65e87d70e4be41a1b087e7e9,,,,,,,,,,,164.415,0.7,165.113,165.113,166.013,right,1,0.886,,166.013,167.013,2,6,38,7,1,partial,1,images/Ex8.jpg,right,training,hard,3,,,,,
,,,,,5cb20f2d7c917b00172dfef5,001,,,,,2024-03-06_14h28.42.889,CRL1h,2023.2.3,MacIntel,62.5,65e67470ae2fbf2172c317b2,65e87d70e4be41a1b087e7e9,,,,,,,,,,,167.014,0.6,167.612,167.612,168.346,right,1,0.724,,168.346,169.347,2,7,39,6,1,partial,1,images/Ex7.jpg,right,training,hard,3,,,,,
,,,,,5cb20f2d7c917b00172dfef5,001,,,,,2024-03-06_14h28.42.889,CRL1h,2023.2.3,MacIntel,62.5,65e67470ae2fbf2172c317b2,65e87d70e4be41a1b087e7e9,,,,,,,,,,,169.348,0.6,169.947,169.947,171.08,right,0,1.127,,171.08,172.079,2,8,40,11,1,partial,1,images/Ex4.jpg,left,training,hard,3,,,,,
,,,,,5cb20f2d7c917b00172dfef5,001,,,,,2024-03-06_14h28.42.889,CRL1h,2023.2.3,MacIntel,62.5,65e67470ae2fbf2172c317b2,65e87d70e4be41a1b087e7e9,,,,,,,,,,,172.08,1.2,173.28,173.28,174.13,left,0,0.843,,174.13,175.13,2,9,41,5,1,partial,1,images/Ex6.jpg,right,training,hard,3,,,,,
,,,,,5cb20f2d7c917b00172dfef5,001,,,,,2024-03-06_14h28.42.889,CRL1h,2023.2.3,MacIntel,62.5,65e67470ae2fbf2172c317b2,65e87d70e4be41a1b087e7e9,,,,,,,,,,,175.131,0.5,175.63,175.63,176.63,left,1,0.992,,176.63,177.63,2,10,42,9,1,partial,1,images/Ex2.jpg,left,training,hard,3,,,,,
,,,,,5cb20f2d7c917b00172dfef5,001,,,,,2024-03-06_14h28.42.889,CRL1h,2023.2.3,MacIntel,62.5,65e67470ae2fbf2172c317b2,65e87d70e4be41a1b087e7e9,,,,,,,,,,,177.631,1.1,178.73,178.73,179.58,left,1,0.839,,179.58,180.58,2,11,43,0,1,partial,1,images/Ex1.jpg,left,training,hard,3,,,,,
,,,,,5cb20f2d7c917b00172dfef5,001,,,,,2024-03-06_14h28.42.889,CRL1h,2023.2.3,MacIntel,62.5,65e67470ae2fbf2172c317b2,65e87d70e4be41a1b087e7e9,,,,,,,,,,,180.58,0.9,181.48,181.48,182.28,right,1,0.79,,182.28,183.281,2,12,44,13,1,partial,1,images/Ex6.jpg,right,training,hard,3,,,,,
,,,,,5cb20f2d7c917b00172dfef5,001,,,,,2024-03-06_14h28.42.889,CRL1h,2023.2.3,MacIntel,62.5,65e67470ae2fbf2172c317b2,65e87d70e4be41a1b087e7e9,,,,,,,,,,,183.283,0.7,183.98,183.981,184.647,right,1,0.652,,184.647,185.647,2,13,45,4,1,partial,1,images/Ex5.jpg,right,training,hard,3,,,,,
,,,,,5cb20f2d7c917b00172dfef5,001,,,,,2024-03-06_14h28.42.889,CRL1h,2023.2.3,MacIntel,62.5,65e67470ae2fbf2172c317b2,65e87d70e4be41a1b087e7e9,,,,,,,,,,,185.648,1.1,186.747,186.747,187.263,right,1,0.506,,187.264,188.264,2,14,46,12,1,partial,1,images/Ex5.jpg,right,training,hard,3,,,,,
,,,,,5cb20f2d7c917b00172dfef5,001,,,,,2024-03-06_14h28.42.889,CRL1h,2023.2.3,MacIntel,62.5,65e67470ae2fbf2172c317b2,65e87d70e4be41a1b087e7e9,,,,,,,,,,,188.265,0.8,189.064,189.064,189.747,left,1,0.672,,189.747,190.747,2,15,47,8,1,partial,1,images/Ex1.jpg,left,training,hard,3,,,,,
,,,,,5cb20f2d7c917b00172dfef5,001,,,,,2024-03-06_14h28.42.889,CRL1h,2023.2.3,MacIntel,62.5,65e67470ae2fbf2172c317b2,65e87d70e4be41a1b087e7e9,,,,,,,,,,,190.749,1.1,191.847,191.847,192.697,left,1,0.836,,192.697,193.697,3,0,48,9,1,partial,1,images/Ex2.jpg,left,training,hard,3,,,,,
,,,,,5cb20f2d7c917b00172dfef5,001,,,,,2024-03-06_14h28.42.889,CRL1h,2023.2.3,MacIntel,62.5,65e67470ae2fbf2172c317b2,65e87d70e4be41a1b087e7e9,,,,,,,,,,,193.698,1,194.697,194.697,195.363,right,1,0.661,,195.364,196.364,3,1,49,15,1,partial,1,images/Ex8.jpg,right,training,hard,3,,,,,
,,,,,5cb20f2d7c917b00172dfef5,001,,,,,2024-03-06_14h28.42.889,CRL1h,2023.2.3,MacIntel,62.5,65e67470ae2fbf2172c317b2,65e87d70e4be41a1b087e7e9,,,,,,,,,,,196.364,1.4,197.764,197.764,198.514,left,1,0.739,,198.514,199.513,3,2,50,0,1,partial,1,images/Ex1.jpg,left,training,hard,3,,,,,
,,,,,5cb20f2d7c917b00172dfef5,001,,,,,2024-03-06_14h28.42.889,CRL1h,2023.2.3,MacIntel,62.5,65e67470ae2fbf2172c317b2,65e87d70e4be41a1b087e7e9,,,,,,,,,,,199.514,1.2,200.714,200.714,201.664,left,1,0.939,,201.664,202.664,3,3,51,11,1,partial,1,images/Ex4.jpg,left,training,hard,3,,,,,
,,,,,5cb20f2d7c917b00172dfef5,001,,,,,2024-03-06_14h28.42.889,CRL1h,2023.2.3,MacIntel,62.5,65e67470ae2fbf2172c317b2,65e87d70e4be41a1b087e7e9,,,,,,,,,,,202.665,0.8,203.464,203.464,204.047,right,1,0.573,,204.047,205.046,3,4,52,6,1,partial,1,images/Ex7.jpg,right,training,hard,3,,,,,
,,,,,5cb20f2d7c917b00172dfef5,001,,,,,2024-03-06_14h28.42.889,CRL1h,2023.2.3,MacIntel,62.5,65e67470ae2fbf2172c317b2,65e87d70e4be41a1b087e7e9,,,,,,,,,,,205.047,1,206.047,206.047,206.614,right,1,0.562,,206.614,207.613,3,5,53,13,1,partial,1,images/Ex6.jpg,right,training,hard,3,,,,,
,,,,,5cb20f2d7c917b00172dfef5,001,,,,,2024-03-06_14h28.42.889,CRL1h,2023.2.3,MacIntel,62.5,65e67470ae2fbf2172c317b2,65e87d70e4be41a1b087e7e9,,,,,,,,,,,207.614,0.9,208.514,208.515,209.064,right,1,0.538,,209.064,210.064,3,6,54,7,1,partial,1,images/Ex8.jpg,right,training,hard,3,,,,,
,,,,,5cb20f2d7c917b00172dfef5,001,,,,,2024-03-06_14h28.42.889,CRL1h,2023.2.3,MacIntel,62.5,65e67470ae2fbf2172c317b2,65e87d70e4be41a1b087e7e9,,,,,,,,,,,210.065,0.7,210.764,210.764,211.764,left,1,0.994,,211.764,212.764,3,7,55,3,1,partial,1,images/Ex4.jpg,left,training,hard,3,,,,,
,,,,,5cb20f2d7c917b00172dfef5,001,,,,,2024-03-06_14h28.42.889,CRL1h,2023.2.3,MacIntel,62.5,65e67470ae2fbf2172c317b2,65e87d70e4be41a1b087e7e9,,,,,,,,,,,212.765,0.7,213.464,213.464,214.047,right,1,0.575,,214.047,215.047,3,8,56,4,1,partial,1,images/Ex5.jpg,right,training,hard,3,,,,,
,,,,,5cb20f2d7c917b00172dfef5,001,,,,,2024-03-06_14h28.42.889,CRL1h,2023.2.3,MacIntel,62.5,65e67470ae2fbf2172c317b2,65e87d70e4be41a1b087e7e9,,,,,,,,,,,215.048,0.8,215.847,215.847,216.447,right,1,0.589,,216.447,217.448,3,9,57,5,1,partial,1,images/Ex6.jpg,right,training,hard,3,,,,,
,,,,,5cb20f2d7c917b00172dfef5,001,,,,,2024-03-06_14h28.42.889,CRL1h,2023.2.3,MacIntel,62.5,65e67470ae2fbf2172c317b2,65e87d70e4be41a1b087e7e9,,,,,,,,,,,217.45,1,218.447,218.448,218.88,right,1,0.422,,218.881,219.88,3,10,58,12,1,partial,1,images/Ex5.jpg,right,training,hard,3,,,,,
,,,,,5cb20f2d7c917b00172dfef5,001,,,,,2024-03-06_14h28.42.889,CRL1h,2023.2.3,MacIntel,62.5,65e67470ae2fbf2172c317b2,65e87d70e4be41a1b087e7e9,,,,,,,,,,,219.882,1.3,221.18,221.181,221.797,left,1,0.603,,221.798,222.797,3,11,59,8,1,partial,1,images/Ex1.jpg,left,training,hard,3,,,,,
,,,,,5cb20f2d7c917b00172dfef5,001,,,,,2024-03-06_14h28.42.889,CRL1h,2023.2.3,MacIntel,62.5,65e67470ae2fbf2172c317b2,65e87d70e4be41a1b087e7e9,,,,,,,,,,,222.798,1.1,223.897,223.898,224.53,right,1,0.62,,224.53,225.53,3,12,60,14,1,partial,1,images/Ex7.jpg,right,training,hard,3,,,,,
,,,,,5cb20f2d7c917b00172dfef5,001,,,,,2024-03-06_14h28.42.889,CRL1h,2023.2.3,MacIntel,62.5,65e67470ae2fbf2172c317b2,65e87d70e4be41a1b087e7e9,,,,,,,,,,,225.532,1.3,226.83,226.831,227.614,left,1,0.77,,227.614,228.614,3,13,61,1,1,partial,1,images/Ex2.jpg,left,training,hard,3,,,,,
,,,,,5cb20f2d7c917b00172dfef5,001,,,,,2024-03-06_14h28.42.889,CRL1h,2023.2.3,MacIntel,62.5,65e67470ae2fbf2172c317b2,65e87d70e4be41a1b087e7e9,,,,,,,,,,,228.615,1.3,229.914,229.914,230.364,right,0,0.438,,230.364,231.364,3,14,62,10,1,partial,1,images/Ex3.jpg,left,training,hard,3,,,,,
,,,,,5cb20f2d7c917b00172dfef5,001,,,,,2024-03-06_14h28.42.889,CRL1h,2023.2.3,MacIntel,62.5,65e67470ae2fbf2172c317b2,65e87d70e4be41a1b087e7e9,,,,,,,,,,,231.365,1,232.364,232.364,233.063,left,1,0.691,,233.063,234.064,3,15,63,2,1,partial,1,images/Ex3.jpg,left,training,hard,3,,,,,
,,,,,5cb20f2d7c917b00172dfef5,001,,,,,2024-03-06_14h28.42.889,CRL1h,2023.2.3,MacIntel,62.5,65e67470ae2fbf2172c317b2,65e87d70e4be41a1b087e7e9,,,,,,,,,,,234.065,0.9,234.964,234.964,235.614,left,1,0.641,,235.614,236.614,4,0,64,2,1,partial,1,images/Ex3.jpg,left,training,hard,3,,,,,
,,,,,5cb20f2d7c917b00172dfef5,001,,,,,2024-03-06_14h28.42.889,CRL1h,2023.2.3,MacIntel,62.5,65e67470ae2fbf2172c317b2,65e87d70e4be41a1b087e7e9,,,,,,,,,,,236.614,0.7,237.313,237.313,238.281,right,1,0.955,,238.281,239.28,4,1,65,5,1,partial,1,images/Ex6.jpg,right,training,hard,3,,,,,
,,,,,5cb20f2d7c917b00172dfef5,001,,,,,2024-03-06_14h28.42.889,CRL1h,2023.2.3,MacIntel,62.5,65e67470ae2fbf2172c317b2,65e87d70e4be41a1b087e7e9,,,,,,,,,,,239.281,1,240.28,240.28,241.047,right,1,0.762,,241.047,242.047,4,2,66,12,1,partial,1,images/Ex5.jpg,right,training,hard,3,,,,,
,,,,,5cb20f2d7c917b00172dfef5,001,,,,,2024-03-06_14h28.42.889,CRL1h,2023.2.3,MacIntel,62.5,65e67470ae2fbf2172c317b2,65e87d70e4be41a1b087e7e9,,,,,,,,,,,242.048,0.7,242.747,242.747,243.347,right,1,0.586,,243.347,244.347,4,3,67,15,1,partial,1,images/Ex8.jpg,right,training,hard,3,,,,,
,,,,,5cb20f2d7c917b00172dfef5,001,,,,,2024-03-06_14h28.42.889,CRL1h,2023.2.3,MacIntel,62.5,65e67470ae2fbf2172c317b2,65e87d70e4be41a1b087e7e9,,,,,,,,,,,244.348,0.7,245.047,245.047,245.597,right,1,0.541,,245.597,246.597,4,4,68,14,1,partial,1,images/Ex7.jpg,right,training,hard,3,,,,,
,,,,,5cb20f2d7c917b00172dfef5,001,,,,,2024-03-06_14h28.42.889,CRL1h,2023.2.3,MacIntel,62.5,65e67470ae2fbf2172c317b2,65e87d70e4be41a1b087e7e9,,,,,,,,,,,246.598,1,247.597,247.597,248.147,right,1,0.546,,248.147,249.147,4,5,69,13,1,partial,1,images/Ex6.jpg,right,training,hard,3,,,,,
,,,,,5cb20f2d7c917b00172dfef5,001,,,,,2024-03-06_14h28.42.889,CRL1h,2023.2.3,MacIntel,62.5,65e67470ae2fbf2172c317b2,65e87d70e4be41a1b087e7e9,,,,,,,,,,,249.148,0.6,249.747,249.747,250.564,left,1,0.807,,250.564,251.564,4,6,70,11,1,partial,1,images/Ex4.jpg,left,training,hard,3,,,,,
,,,,,5cb20f2d7c917b00172dfef5,001,,,,,2024-03-06_14h28.42.889,CRL1h,2023.2.3,MacIntel,62.5,65e67470ae2fbf2172c317b2,65e87d70e4be41a1b087e7e9,,,,,,,,,,,251.565,0.5,252.064,252.064,252.981,left,1,0.906,,252.981,253.981,4,7,71,1,1,partial,1,images/Ex2.jpg,left,training,hard,3,,,,,
,,,,,5cb20f2d7c917b00172dfef5,001,,,,,2024-03-06_14h28.42.889,CRL1h,2023.2.3,MacIntel,62.5,65e67470ae2fbf2172c317b2,65e87d70e4be41a1b087e7e9,,,,,,,,,,,253.982,1.1,255.081,255.081,255.547,right,1,0.459,,255.547,256.548,4,8,72,7,1,partial,1,images/Ex8.jpg,right,training,hard,3,,,,,
,,,,,5cb20f2d7c917b00172dfef5,001,,,,,2024-03-06_14h28.42.889,CRL1h,2023.2.3,MacIntel,62.5,65e67470ae2fbf2172c317b2,65e87d70e4be41a1b087e7e9,,,,,,,,,,,256.55,1.2,257.748,257.748,258.548,left,1,0.795,,258.548,259.548,4,9,73,9,1,partial,1,images/Ex2.jpg,left,training,hard,3,,,,,
,,,,,5cb20f2d7c917b00172dfef5,001,,,,,2024-03-06_14h28.42.889,CRL1h,2023.2.3,MacIntel,62.5,65e67470ae2fbf2172c317b2,65e87d70e4be41a1b087e7e9,,,,,,,,,,,259.549,0.6,260.148,260.148,261.214,left,1,1.053,,261.215,262.214,4,10,74,10,1,partial,1,images/Ex3.jpg,left,training,hard,3,,,,,
,,,,,5cb20f2d7c917b00172dfef5,001,,,,,2024-03-06_14h28.42.889,CRL1h,2023.2.3,MacIntel,62.5,65e67470ae2fbf2172c317b2,65e87d70e4be41a1b087e7e9,,,,,,,,,,,262.216,1,263.214,263.214,263.831,left,1,0.609,,263.831,264.831,4,11,75,8,1,partial,1,images/Ex1.jpg,left,training,hard,3,,,,,
,,,,,5cb20f2d7c917b00172dfef5,001,,,,,2024-03-06_14h28.42.889,CRL1h,2023.2.3,MacIntel,62.5,65e67470ae2fbf2172c317b2,65e87d70e4be41a1b087e7e9,,,,,,,,,,,264.832,0.6,265.431,265.431,265.897,right,1,0.456,,265.898,266.898,4,12,76,4,1,partial,1,images/Ex5.jpg,right,training,hard,3,,,,,
,,,,,5cb20f2d7c917b00172dfef5,001,,,,,2024-03-06_14h28.42.889,CRL1h,2023.2.3,MacIntel,62.5,65e67470ae2fbf2172c317b2,65e87d70e4be41a1b087e7e9,,,,,,,,,,,266.898,1.2,268.097,268.097,268.681,right,1,0.571,,268.681,269.681,4,13,77,6,1,partial,1,images/Ex7.jpg,right,training,hard,3,,,,,
,,,,,5cb20f2d7c917b00172dfef5,001,,,,,2024-03-06_14h28.42.889,CRL1h,2023.2.3,MacIntel,62.5,65e67470ae2fbf2172c317b2,65e87d70e4be41a1b087e7e9,,,,,,,,,,,269.682,1.4,271.081,271.081,271.647,left,1,0.553,,271.647,272.647,4,14,78,0,1,partial,1,images/Ex1.jpg,left,training,hard,3,,,,,
,,,,,5cb20f2d7c917b00172dfef5,001,,,,,2024-03-06_14h28.42.889,CRL1h,2023.2.3,MacIntel,62.5,65e67470ae2fbf2172c317b2,65e87d70e4be41a1b087e7e9,,,,,,,,,,,272.648,1,273.648,273.648,274.298,left,1,0.646,,274.298,275.298,4,15,79,3,1,partial,1,images/Ex4.jpg,left,training,hard,3,,,,,
,,,,,5cb20f2d7c917b00172dfef5,001,,,,,2024-03-06_14h28.42.889,CRL1h,2023.2.3,MacIntel,62.5,65e67470ae2fbf2172c317b2,65e87d70e4be41a1b087e7e9,,,,,,,,,,,275.299,1,276.298,276.298,276.881,right,1,0.571,,276.881,277.881,5,0,80,12,1,partial,1,images/Ex5.jpg,right,training,hard,3,,,,,
,,,,,5cb20f2d7c917b00172dfef5,001,,,,,2024-03-06_14h28.42.889,CRL1h,2023.2.3,MacIntel,62.5,65e67470ae2fbf2172c317b2,65e87d70e4be41a1b087e7e9,,,,,,,,,,,277.882,0.7,278.581,278.581,279.431,left,1,0.842,,279.431,280.431,5,1,81,10,1,partial,1,images/Ex3.jpg,left,training,hard,3,,,,,
,,,,,5cb20f2d7c917b00172dfef5,001,,,,,2024-03-06_14h28.42.889,CRL1h,2023.2.3,MacIntel,62.5,65e67470ae2fbf2172c317b2,65e87d70e4be41a1b087e7e9,,,,,,,,,,,280.431,0.7,281.131,281.131,281.964,left,1,0.828,,281.964,282.964,5,2,82,0,1,partial,1,images/Ex1.jpg,left,training,hard,3,,,,,
,,,,,5cb20f2d7c917b00172dfef5,001,,,,,2024-03-06_14h28.42.889,CRL1h,2023.2.3,MacIntel,62.5,65e67470ae2fbf2172c317b2,65e87d70e4be41a1b087e7e9,,,,,,,,,,,282.965,0.5,283.464,283.464,284.081,right,1,0.604,,284.081,285.081,5,3,83,14,1,partial,1,images/Ex7.jpg,right,training,hard,3,,,,,
,,,,,5cb20f2d7c917b00172dfef5,001,,,,,2024-03-06_14h28.42.889,CRL1h,2023.2.3,MacIntel,62.5,65e67470ae2fbf2172c317b2,65e87d70e4be41a1b087e7e9,,,,,,,,,,,285.082,1.4,286.481,286.481,287.214,right,1,0.724,,287.214,288.214,5,4,84,13,1,partial,1,images/Ex6.jpg,right,training,hard,3,,,,,
,,,,,5cb20f2d7c917b00172dfef5,001,,,,,2024-03-06_14h28.42.889,CRL1h,2023.2.3,MacIntel,62.5,65e67470ae2fbf2172c317b2,65e87d70e4be41a1b087e7e9,,,,,,,,,,,288.215,1.3,289.514,289.514,290.148,left,1,0.621,,290.148,291.148,5,5,85,3,1,partial,1,images/Ex4.jpg,left,training,hard,3,,,,,
,,,,,5cb20f2d7c917b00172dfef5,001,,,,,2024-03-06_14h28.42.889,CRL1h,2023.2.3,MacIntel,62.5,65e67470ae2fbf2172c317b2,65e87d70e4be41a1b087e7e9,,,,,,,,,,,291.149,1.2,292.348,292.348,293.248,left,1,0.888,,293.248,294.248,5,6,86,11,1,partial,1,images/Ex4.jpg,left,training,hard,3,,,,,
,,,,,5cb20f2d7c917b00172dfef5,001,,,,,2024-03-06_14h28.42.889,CRL1h,2023.2.3,MacIntel,62.5,65e67470ae2fbf2172c317b2,65e87d70e4be41a1b087e7e9,,,,,,,,,,,294.248,1.3,295.548,295.548,296.047,right,1,0.493,,296.048,297.048,5,7,87,15,1,partial,1,images/Ex8.jpg,right,training,hard,3,,,,,
,,,,,5cb20f2d7c917b00172dfef5,001,,,,,2024-03-06_14h28.42.889,CRL1h,2023.2.3,MacIntel,62.5,65e67470ae2fbf2172c317b2,65e87d70e4be41a1b087e7e9,,,,,,,,,,,297.049,1.4,298.448,298.448,298.964,right,1,0.505,,298.965,299.965,5,8,88,6,1,partial,1,images/Ex7.jpg,right,training,hard,3,,,,,
,,,,,5cb20f2d7c917b00172dfef5,001,,,,,2024-03-06_14h28.42.889,CRL1h,2023.2.3,MacIntel,62.5,65e67470ae2fbf2172c317b2,65e87d70e4be41a1b087e7e9,,,,,,,,,,,299.967,0.5,300.468,300.468,301.231,left,1,0.752,,301.232,302.231,5,9,89,8,1,partial,1,images/Ex1.jpg,left,training,hard,3,,,,,
,,,,,5cb20f2d7c917b00172dfef5,001,,,,,2024-03-06_14h28.42.889,CRL1h,2023.2.3,MacIntel,62.5,65e67470ae2fbf2172c317b2,65e87d70e4be41a1b087e7e9,,,,,,,,,,,302.233,1.3,303.531,303.531,304.131,right,1,0.588,,304.131,305.131,5,10,90,4,1,partial,1,images/Ex5.jpg,right,training,hard,3,,,,,
,,,,,5cb20f2d7c917b00172dfef5,001,,,,,2024-03-06_14h28.42.889,CRL1h,2023.2.3,MacIntel,62.5,65e67470ae2fbf2172c317b2,65e87d70e4be41a1b087e7e9,,,,,,,,,,,305.132,0.8,305.931,305.932,306.814,right,1,0.87,,306.814,307.814,5,11,91,5,1,partial,1,images/Ex6.jpg,right,training,hard,3,,,,,
,,,,,5cb20f2d7c917b00172dfef5,001,,,,,2024-03-06_14h28.42.889,CRL1h,2023.2.3,MacIntel,62.5,65e67470ae2fbf2172c317b2,65e87d70e4be41a1b087e7e9,,,,,,,,,,,307.816,0.6,308.415,308.415,309.064,left,1,0.637,,309.064,310.064,5,12,92,1,1,partial,1,images/Ex2.jpg,left,training,hard,3,,,,,
,,,,,5cb20f2d7c917b00172dfef5,001,,,,,2024-03-06_14h28.42.889,CRL1h,2023.2.3,MacIntel,62.5,65e67470ae2fbf2172c317b2,65e87d70e4be41a1b087e7e9,,,,,,,,,,,310.065,1.1,311.164,311.165,311.898,left,1,0.722,,311.898,312.899,5,13,93,2,1,partial,1,images/Ex3.jpg,left,training,hard,3,,,,,
,,,,,5cb20f2d7c917b00172dfef5,001,,,,,2024-03-06_14h28.42.889,CRL1h,2023.2.3,MacIntel,62.5,65e67470ae2fbf2172c317b2,65e87d70e4be41a1b087e7e9,,,,,,,,,,,312.9,1.1,313.998,313.998,314.581,right,1,0.572,,314.581,315.581,5,14,94,7,1,partial,1,images/Ex8.jpg,right,training,hard,3,,,,,
,,,,,5cb20f2d7c917b00172dfef5,001,,,,,2024-03-06_14h28.42.889,CRL1h,2023.2.3,MacIntel,62.5,65e67470ae2fbf2172c317b2,65e87d70e4be41a1b087e7e9,,,,,,,,,,,315.582,0.8,316.381,316.381,317.164,left,1,0.778,,317.164,318.165,5,15,95,9,1,partial,1,images/Ex2.jpg,left,training,hard,3,,,,,
,,,,,5cb20f2d7c917b00172dfef5,001,,,,,2024-03-06_14h28.42.889,CRL1h,2023.2.3,MacIntel,62.5,65e67470ae2fbf2172c317b2,65e87d70e4be41a1b087e7e9,,,,,,,,,,,318.166,1.5,319.665,319.665,320.131,right,1,0.461,,320.132,321.131,6,0,96,4,1,partial,1,images/Ex5.jpg,right,training,hard,3,,,,,
,,,,,5cb20f2d7c917b00172dfef5,001,,,,,2024-03-06_14h28.42.889,CRL1h,2023.2.3,MacIntel,62.5,65e67470ae2fbf2172c317b2,65e87d70e4be41a1b087e7e9,,,,,,,,,,,321.132,0.6,321.731,321.731,322.448,left,1,0.705,,322.448,323.449,6,1,97,11,1,partial,1,images/Ex4.jpg,left,training,hard,3,,,,,
,,,,,5cb20f2d7c917b00172dfef5,001,,,,,2024-03-06_14h28.42.889,CRL1h,2023.2.3,MacIntel,62.5,65e67470ae2fbf2172c317b2,65e87d70e4be41a1b087e7e9,,,,,,,,,,,323.449,0.9,324.348,324.348,325.148,right,1,0.79,,325.148,326.148,6,2,98,7,1,partial,1,images/Ex8.jpg,right,training,hard,3,,,,,
,,,,,5cb20f2d7c917b00172dfef5,001,,,,,2024-03-06_14h28.42.889,CRL1h,2023.2.3,MacIntel,62.5,65e67470ae2fbf2172c317b2,65e87d70e4be41a1b087e7e9,,,,,,,,,,,326.149,0.9,327.048,327.048,327.665,left,1,0.607,,327.665,328.664,6,3,99,8,1,partial,1,images/Ex1.jpg,left,training,hard,3,,,,,
,,,,,5cb20f2d7c917b00172dfef5,001,,,,,2024-03-06_14h28.42.889,CRL1h,2023.2.3,MacIntel,62.5,65e67470ae2fbf2172c317b2,65e87d70e4be41a1b087e7e9,,,,,,,,,,,328.665,1,329.664,329.665,330.648,right,1,0.974,,330.649,331.648,6,4,100,13,1,partial,1,images/Ex6.jpg,right,training,hard,3,,,,,
,,,,,5cb20f2d7c917b00172dfef5,001,,,,,2024-03-06_14h28.42.889,CRL1h,2023.2.3,MacIntel,62.5,65e67470ae2fbf2172c317b2,65e87d70e4be41a1b087e7e9,,,,,,,,,,,331.651,0.5,332.148,332.149,333.047,left,1,0.886,,333.048,334.048,6,5,101,10,1,partial,1,images/Ex3.jpg,left,training,hard,3,,,,,
,,,,,5cb20f2d7c917b00172dfef5,001,,,,,2024-03-06_14h28.42.889,CRL1h,2023.2.3,MacIntel,62.5,65e67470ae2fbf2172c317b2,65e87d70e4be41a1b087e7e9,,,,,,,,,,,334.048,1.4,335.449,335.449,335.998,right,1,0.542,,335.998,336.999,6,6,102,15,1,partial,1,images/Ex8.jpg,right,training,hard,3,,,,,
,,,,,5cb20f2d7c917b00172dfef5,001,,,,,2024-03-06_14h28.42.889,CRL1h,2023.2.3,MacIntel,62.5,65e67470ae2fbf2172c317b2,65e87d70e4be41a1b087e7e9,,,,,,,,,,,337,0.5,337.498,337.498,338.081,left,1,0.577,,338.081,339.081,6,7,103,0,1,partial,1,images/Ex1.jpg,left,training,hard,3,,,,,
,,,,,5cb20f2d7c917b00172dfef5,001,,,,,2024-03-06_14h28.42.889,CRL1h,2023.2.3,MacIntel,62.5,65e67470ae2fbf2172c317b2,65e87d70e4be41a1b087e7e9,,,,,,,,,,,339.083,1.4,340.481,340.481,341.131,left,1,0.635,,341.132,342.131,6,8,104,3,1,partial,1,images/Ex4.jpg,left,training,hard,3,,,,,
,,,,,5cb20f2d7c917b00172dfef5,001,,,,,2024-03-06_14h28.42.889,CRL1h,2023.2.3,MacIntel,62.5,65e67470ae2fbf2172c317b2,65e87d70e4be41a1b087e7e9,,,,,,,,,,,342.132,1.1,343.231,343.231,343.915,right,1,0.673,,343.915,344.915,6,9,105,5,1,partial,1,images/Ex6.jpg,right,training,hard,3,,,,,
,,,,,5cb20f2d7c917b00172dfef5,001,,,,,2024-03-06_14h28.42.889,CRL1h,2023.2.3,MacIntel,62.5,65e67470ae2fbf2172c317b2,65e87d70e4be41a1b087e7e9,,,,,,,,,,,344.916,1.3,346.215,346.215,347.298,left,1,1.075,,347.298,348.298,6,10,106,9,1,partial,1,images/Ex2.jpg,left,training,hard,3,,,,,
,,,,,5cb20f2d7c917b00172dfef5,001,,,,,2024-03-06_14h28.42.889,CRL1h,2023.2.3,MacIntel,62.5,65e67470ae2fbf2172c317b2,65e87d70e4be41a1b087e7e9,,,,,,,,,,,348.299,1,349.298,349.298,349.815,right,1,0.511,,349.815,350.815,6,11,107,14,1,partial,1,images/Ex7.jpg,right,training,hard,3,,,,,
,,,,,5cb20f2d7c917b00172dfef5,001,,,,,2024-03-06_14h28.42.889,CRL1h,2023.2.3,MacIntel,62.5,65e67470ae2fbf2172c317b2,65e87d70e4be41a1b087e7e9,,,,,,,,,,,350.816,0.8,351.615,351.615,352.215,right,1,0.59,,352.215,353.215,6,12,108,6,1,partial,1,images/Ex7.jpg,right,training,hard,3,,,,,
,,,,,5cb20f2d7c917b00172dfef5,001,,,,,2024-03-06_14h28.42.889,CRL1h,2023.2.3,MacIntel,62.5,65e67470ae2fbf2172c317b2,65e87d70e4be41a1b087e7e9,,,,,,,,,,,353.216,0.5,353.715,353.715,354.448,left,1,0.72,,354.448,355.448,6,13,109,2,1,partial,1,images/Ex3.jpg,left,training,hard,3,,,,,
,,,,,5cb20f2d7c917b00172dfef5,001,,,,,2024-03-06_14h28.42.889,CRL1h,2023.2.3,MacIntel,62.5,65e67470ae2fbf2172c317b2,65e87d70e4be41a1b087e7e9,,,,,,,,,,,355.449,0.5,355.948,355.948,356.748,right,1,0.787,,356.748,357.748,6,14,110,12,1,partial,1,images/Ex5.jpg,right,training,hard,3,,,,,
,,,,,5cb20f2d7c917b00172dfef5,001,,,,,2024-03-06_14h28.42.889,CRL1h,2023.2.3,MacIntel,62.5,65e67470ae2fbf2172c317b2,65e87d70e4be41a1b087e7e9,,,,,,,,,,,357.749,0.7,358.448,358.448,359.214,left,1,0.761,,359.214,360.215,6,15,111,1,1,partial,1,images/Ex2.jpg,left,training,hard,3,,,,,
,,,,,5cb20f2d7c917b00172dfef5,001,,,,,2024-03-06_14h28.42.889,CRL1h,2023.2.3,MacIntel,62.5,65e67470ae2fbf2172c317b2,65e87d70e4be41a1b087e7e9,,,,,,,,,,,360.216,1.2,361.414,361.414,362.315,left,1,0.89,,362.315,363.315,7,0,112,11,1,partial,1,images/Ex4.jpg,left,training,hard,3,,,,,
,,,,,5cb20f2d7c917b00172dfef5,001,,,,,2024-03-06_14h28.42.889,CRL1h,2023.2.3,MacIntel,62.5,65e67470ae2fbf2172c317b2,65e87d70e4be41a1b087e7e9,,,,,,,,,,,363.318,1,364.315,364.316,365.132,left,1,0.804,,365.132,366.131,7,1,113,2,1,partial,1,images/Ex3.jpg,left,training,hard,3,,,,,
,,,,,5cb20f2d7c917b00172dfef5,001,,,,,2024-03-06_14h28.42.889,CRL1h,2023.2.3,MacIntel,62.5,65e67470ae2fbf2172c317b2,65e87d70e4be41a1b087e7e9,,,,,,,,,,,366.132,0.9,367.032,367.032,367.815,left,1,0.778,,367.815,368.815,7,2,114,0,1,partial,1,images/Ex1.jpg,left,training,hard,3,,,,,
,,,,,5cb20f2d7c917b00172dfef5,001,,,,,2024-03-06_14h28.42.889,CRL1h,2023.2.3,MacIntel,62.5,65e67470ae2fbf2172c317b2,65e87d70e4be41a1b087e7e9,,,,,,,,,,,368.816,0.9,369.715,369.715,370.315,left,1,0.587,,370.315,371.315,7,3,115,3,1,partial,1,images/Ex4.jpg,left,training,hard,3,,,,,
,,,,,5cb20f2d7c917b00172dfef5,001,,,,,2024-03-06_14h28.42.889,CRL1h,2023.2.3,MacIntel,62.5,65e67470ae2fbf2172c317b2,65e87d70e4be41a1b087e7e9,,,,,,,,,,,371.316,1.5,372.815,372.815,373.548,left,1,0.724,,373.548,374.548,7,4,116,9,1,partial,1,images/Ex2.jpg,left,training,hard,3,,,,,
,,,,,5cb20f2d7c917b00172dfef5,001,,,,,2024-03-06_14h28.42.889,CRL1h,2023.2.3,MacIntel,62.5,65e67470ae2fbf2172c317b2,65e87d70e4be41a1b087e7e9,,,,,,,,,,,374.549,1.2,375.748,375.748,376.548,right,1,0.789,,376.548,377.548,7,5,117,12,1,partial,1,images/Ex5.jpg,right,training,hard,3,,,,,
,,,,,5cb20f2d7c917b00172dfef5,001,,,,,2024-03-06_14h28.42.889,CRL1h,2023.2.3,MacIntel,62.5,65e67470ae2fbf2172c317b2,65e87d70e4be41a1b087e7e9,,,,,,,,,,,377.549,0.6,378.148,378.149,378.848,left,1,0.695,,378.848,379.848,7,6,118,8,1,partial,1,images/Ex1.jpg,left,training,hard,3,,,,,
,,,,,5cb20f2d7c917b00172dfef5,001,,,,,2024-03-06_14h28.42.889,CRL1h,2023.2.3,MacIntel,62.5,65e67470ae2fbf2172c317b2,65e87d70e4be41a1b087e7e9,,,,,,,,,,,379.849,0.7,380.548,380.548,381.215,right,1,0.656,,381.215,382.215,7,7,119,6,1,partial,1,images/Ex7.jpg,right,training,hard,3,,,,,
,,,,,5cb20f2d7c917b00172dfef5,001,,,,,2024-03-06_14h28.42.889,CRL1h,2023.2.3,MacIntel,62.5,65e67470ae2fbf2172c317b2,65e87d70e4be41a1b087e7e9,,,,,,,,,,,382.216,1.3,383.515,383.515,384.365,right,1,0.841,,384.365,385.365,7,8,120,13,1,partial,1,images/Ex6.jpg,right,training,hard,3,,,,,
,,,,,5cb20f2d7c917b00172dfef5,001,,,,,2024-03-06_14h28.42.889,CRL1h,2023.2.3,MacIntel,62.5,65e67470ae2fbf2172c317b2,65e87d70e4be41a1b087e7e9,,,,,,,,,,,385.366,1.3,386.665,386.665,387.215,right,1,0.539,,387.215,388.215,7,9,121,14,1,partial,1,images/Ex7.jpg,right,training,hard,3,,,,,
,,,,,5cb20f2d7c917b00172dfef5,001,,,,,2024-03-06_14h28.42.889,CRL1h,2023.2.3,MacIntel,62.5,65e67470ae2fbf2172c317b2,65e87d70e4be41a1b087e7e9,,,,,,,,,,,388.216,0.9,389.115,389.115,389.765,right,1,0.637,,389.765,390.765,7,10,122,15,1,partial,1,images/Ex8.jpg,right,training,hard,3,,,,,
,,,,,5cb20f2d7c917b00172dfef5,001,,,,,2024-03-06_14h28.42.889,CRL1h,2023.2.3,MacIntel,62.5,65e67470ae2fbf2172c317b2,65e87d70e4be41a1b087e7e9,,,,,,,,,,,390.766,1.4,392.166,392.166,392.815,left,1,0.637,,392.815,393.815,7,11,123,1,1,partial,1,images/Ex2.jpg,left,training,hard,3,,,,,
,,,,,5cb20f2d7c917b00172dfef5,001,,,,,2024-03-06_14h28.42.889,CRL1h,2023.2.3,MacIntel,62.5,65e67470ae2fbf2172c317b2,65e87d70e4be41a1b087e7e9,,,,,,,,,,,393.816,0.8,394.615,394.615,395.332,right,1,0.705,,395.332,396.332,7,12,124,5,1,partial,1,images/Ex6.jpg,right,training,hard,3,,,,,
,,,,,5cb20f2d7c917b00172dfef5,001,,,,,2024-03-06_14h28.42.889,CRL1h,2023.2.3,MacIntel,62.5,65e67470ae2fbf2172c317b2,65e87d70e4be41a1b087e7e9,,,,,,,,,,,396.332,0.8,397.132,397.132,398.099,left,1,0.956,,398.099,399.098,7,13,125,10,1,partial,1,images/Ex3.jpg,left,training,hard,3,,,,,
,,,,,5cb20f2d7c917b00172dfef5,001,,,,,2024-03-06_14h28.42.889,CRL1h,2023.2.3,MacIntel,62.5,65e67470ae2fbf2172c317b2,65e87d70e4be41a1b087e7e9,,,,,,,,,,,399.099,1,400.098,400.098,400.615,right,1,0.512,,400.615,401.616,7,14,126,7,1,partial,1,images/Ex8.jpg,right,training,hard,3,,,,,
,,,,,5cb20f2d7c917b00172dfef5,001,,,,,2024-03-06_14h28.42.889,CRL1h,2023.2.3,MacIntel,62.5,65e67470ae2fbf2172c317b2,65e87d70e4be41a1b087e7e9,,,,,,,,,,,401.617,1.4,403.015,403.016,403.549,right,1,0.518,,403.549,404.549,7,15,127,4,1,partial,1,images/Ex5.jpg,right,training,hard,3,,,,,
,,,,,5cb20f2d7c917b00172dfef5,001,,,,,2024-03-06_14h28.42.889,CRL1h,2023.2.3,MacIntel,62.5,65e67470ae2fbf2172c317b2,65e87d70e4be41a1b087e7e9,,,,,,,,,,,404.563,0.6,405.165,405.165,405.699,left,0,0.524,,405.699,406.699,0,0,0,10,1,partial,2,images/Ex3.jpg,right,reversed,hard,3,,,,,
,,,,,5cb20f2d7c917b00172dfef5,001,,,,,2024-03-06_14h28.42.889,CRL1h,2023.2.3,MacIntel,62.5,65e67470ae2fbf2172c317b2,65e87d70e4be41a1b087e7e9,,,,,,,,,,,406.7,1.4,408.099,408.099,408.682,right,1,0.573,,408.682,409.682,0,1,1,14,1,partial,2,images/Ex7.jpg,right,nonreversed,hard,3,,,,,
,,,,,5cb20f2d7c917b00172dfef5,001,,,,,2024-03-06_14h28.42.889,CRL1h,2023.2.3,MacIntel,62.5,65e67470ae2fbf2172c317b2,65e87d70e4be41a1b087e7e9,,,,,,,,,,,409.683,1.5,411.182,411.182,411.798,left,0,0.611,,411.798,412.799,0,2,2,3,1,partial,2,images/Ex4.jpg,right,reversed,hard,3,,,,,
,,,,,5cb20f2d7c917b00172dfef5,001,,,,,2024-03-06_14h28.42.889,CRL1h,2023.2.3,MacIntel,62.5,65e67470ae2fbf2172c317b2,65e87d70e4be41a1b087e7e9,,,,,,,,,,,412.799,1.4,414.199,414.199,415.115,left,0,0.905,,415.115,416.115,0,3,3,2,1,partial,2,images/Ex3.jpg,right,reversed,hard,3,,,,,
,,,,,5cb20f2d7c917b00172dfef5,001,,,,,2024-03-06_14h28.42.889,CRL1h,2023.2.3,MacIntel,62.5,65e67470ae2fbf2172c317b2,65e87d70e4be41a1b087e7e9,,,,,,,,,,,416.116,1.4,417.515,417.516,418.232,right,1,0.707,,418.232,419.232,0,4,4,15,1,partial,2,images/Ex8.jpg,right,nonreversed,hard,3,,,,,
,,,,,5cb20f2d7c917b00172dfef5,001,,,,,2024-03-06_14h28.42.889,CRL1h,2023.2.3,MacIntel,62.5,65e67470ae2fbf2172c317b2,65e87d70e4be41a1b087e7e9,,,,,,,,,,,419.233,0.8,420.032,420.032,420.582,right,0,0.536,,420.582,421.582,0,5,5,4,1,partial,2,images/Ex5.jpg,left,reversed,hard,3,,,,,
,,,,,5cb20f2d7c917b00172dfef5,001,,,,,2024-03-06_14h28.42.889,CRL1h,2023.2.3,MacIntel,62.5,65e67470ae2fbf2172c317b2,65e87d70e4be41a1b087e7e9,,,,,,,,,,,421.583,0.9,422.482,422.482,423.182,right,0,0.686,,423.182,424.182,0,6,6,13,1,partial,2,images/Ex6.jpg,left,reversed,hard,3,,,,,
,,,,,5cb20f2d7c917b00172dfef5,001,,,,,2024-03-06_14h28.42.889,CRL1h,2023.2.3,MacIntel,62.5,65e67470ae2fbf2172c317b2,65e87d70e4be41a1b087e7e9,,,,,,,,,,,424.183,0.8,424.982,424.982,425.949,right,0,0.964,,425.949,426.949,0,7,7,8,1,partial,2,images/Ex1.jpg,left,nonreversed,hard,3,,,,,
,,,,,5cb20f2d7c917b00172dfef5,001,,,,,2024-03-06_14h28.42.889,CRL1h,2023.2.3,MacIntel,62.5,65e67470ae2fbf2172c317b2,65e87d70e4be41a1b087e7e9,,,,,,,,,,,426.95,0.5,427.449,427.449,428.315,left,1,0.862,,428.315,429.315,0,8,8,1,1,partial,2,images/Ex2.jpg,left,nonreversed,hard,3,,,,,
,,,,,5cb20f2d7c917b00172dfef5,001,,,,,2024-03-06_14h28.42.889,CRL1h,2023.2.3,MacIntel,62.5,65e67470ae2fbf2172c317b2,65e87d70e4be41a1b087e7e9,,,,,,,,,,,429.316,1.4,430.715,430.716,431.515,right,0,0.792,,431.515,432.515,0,9,9,5,1,partial,2,images/Ex6.jpg,left,reversed,hard,3,,,,,
,,,,,5cb20f2d7c917b00172dfef5,001,,,,,2024-03-06_14h28.42.889,CRL1h,2023.2.3,MacIntel,62.5,65e67470ae2fbf2172c317b2,65e87d70e4be41a1b087e7e9,,,,,,,,,,,432.516,0.6,433.115,433.116,433.982,left,0,0.855,,433.982,434.982,0,10,10,11,1,partial,2,images/Ex4.jpg,right,reversed,hard,3,,,,,
,,,,,5cb20f2d7c917b00172dfef5,001,,,,,2024-03-06_14h28.42.889,CRL1h,2023.2.3,MacIntel,62.5,65e67470ae2fbf2172c317b2,65e87d70e4be41a1b087e7e9,,,,,,,,,,,434.983,0.6,435.582,435.582,436.732,left,1,1.138,,436.732,437.732,0,11,11,9,1,partial,2,images/Ex2.jpg,left,nonreversed,hard,3,,,,,
,,,,,5cb20f2d7c917b00172dfef5,001,,,,,2024-03-06_14h28.42.889,CRL1h,2023.2.3,MacIntel,62.5,65e67470ae2fbf2172c317b2,65e87d70e4be41a1b087e7e9,,,,,,,,,,,437.733,0.6,438.332,438.332,439.698,right,0,1.356,,439.698,440.698,0,12,12,12,1,partial,2,images/Ex5.jpg,left,reversed,hard,3,,,,,
,,,,,5cb20f2d7c917b00172dfef5,001,,,,,2024-03-06_14h28.42.889,CRL1h,2023.2.3,MacIntel,62.5,65e67470ae2fbf2172c317b2,65e87d70e4be41a1b087e7e9,,,,,,,,,,,440.699,1.3,441.999,441.999,442.732,left,0,0.73,,442.732,443.732,0,13,13,7,1,partial,2,images/Ex8.jpg,right,nonreversed,hard,3,,,,,
,,,,,5cb20f2d7c917b00172dfef5,001,,,,,2024-03-06_14h28.42.889,CRL1h,2023.2.3,MacIntel,62.5,65e67470ae2fbf2172c317b2,65e87d70e4be41a1b087e7e9,,,,,,,,,,,443.733,1,444.735,444.735,445.432,left,0,0.69,,445.432,446.431,0,14,14,6,1,partial,2,images/Ex7.jpg,right,nonreversed,hard,3,,,,,
,,,,,5cb20f2d7c917b00172dfef5,001,,,,,2024-03-06_14h28.42.889,CRL1h,2023.2.3,MacIntel,62.5,65e67470ae2fbf2172c317b2,65e87d70e4be41a1b087e7e9,,,,,,,,,,,446.432,0.8,447.232,447.232,448.349,left,1,1.106,,448.349,449.349,0,15,15,0,1,partial,2,images/Ex1.jpg,left,nonreversed,hard,3,,,,,
,,,,,5cb20f2d7c917b00172dfef5,001,,,,,2024-03-06_14h28.42.889,CRL1h,2023.2.3,MacIntel,62.5,65e67470ae2fbf2172c317b2,65e87d70e4be41a1b087e7e9,,,,,,,,,,,449.35,0.6,449.949,449.949,450.982,left,0,1.021,,450.982,451.982,1,0,16,6,1,partial,2,images/Ex7.jpg,right,nonreversed,hard,3,,,,,
,,,,,5cb20f2d7c917b00172dfef5,001,,,,,2024-03-06_14h28.42.889,CRL1h,2023.2.3,MacIntel,62.5,65e67470ae2fbf2172c317b2,65e87d70e4be41a1b087e7e9,,,,,,,,,,,451.983,1,452.982,452.982,453.632,left,1,0.639,,453.632,454.632,1,1,17,13,1,partial,2,images/Ex6.jpg,left,reversed,hard,3,,,,,
,,,,,5cb20f2d7c917b00172dfef5,001,,,,,2024-03-06_14h28.42.889,CRL1h,2023.2.3,MacIntel,62.5,65e67470ae2fbf2172c317b2,65e87d70e4be41a1b087e7e9,,,,,,,,,,,454.633,1.1,455.732,455.732,456.515,right,1,0.77,,456.516,457.516,1,2,18,7,1,partial,2,images/Ex8.jpg,right,nonreversed,hard,3,,,,,
,,,,,5cb20f2d7c917b00172dfef5,001,,,,,2024-03-06_14h28.42.889,CRL1h,2023.2.3,MacIntel,62.5,65e67470ae2fbf2172c317b2,65e87d70e4be41a1b087e7e9,,,,,,,,,,,457.518,1.5,459.016,459.016,459.732,left,1,0.707,,459.733,460.732,1,3,19,1,1,partial,2,images/Ex2.jpg,left,nonreversed,hard,3,,,,,
,,,,,5cb20f2d7c917b00172dfef5,001,,,,,2024-03-06_14h28.42.889,CRL1h,2023.2.3,MacIntel,62.5,65e67470ae2fbf2172c317b2,65e87d70e4be41a1b087e7e9,,,,,,,,,,,460.733,0.7,461.433,461.433,462.216,left,1,0.769,,462.216,463.219,1,4,20,8,1,partial,2,images/Ex1.jpg,left,nonreversed,hard,3,,,,,
,,,,,5cb20f2d7c917b00172dfef5,001,,,,,2024-03-06_14h28.42.889,CRL1h,2023.2.3,MacIntel,62.5,65e67470ae2fbf2172c317b2,65e87d70e4be41a1b087e7e9,,,,,,,,,,,463.219,0.6,463.816,463.816,465.349,left,0,1.526,,465.349,466.349,1,5,21,11,1,partial,2,images/Ex4.jpg,right,reversed,hard,3,,,,,
,,,,,5cb20f2d7c917b00172dfef5,001,,,,,2024-03-06_14h28.42.889,CRL1h,2023.2.3,MacIntel,62.5,65e67470ae2fbf2172c317b2,65e87d70e4be41a1b087e7e9,,,,,,,,,,,466.35,1,467.349,467.349,468.632,right,0,1.279,,468.632,469.632,1,6,22,12,1,partial,2,images/Ex5.jpg,left,reversed,hard,3,,,,,
,,,,,5cb20f2d7c917b00172dfef5,001,,,,,2024-03-06_14h28.42.889,CRL1h,2023.2.3,MacIntel,62.5,65e67470ae2fbf2172c317b2,65e87d70e4be41a1b087e7e9,,,,,,,,,,,469.633,0.9,470.532,470.532,471.199,left,1,0.658,,471.199,472.199,1,7,23,4,1,partial,2,images/Ex5.jpg,left,reversed,hard,3,,,,,
,,,,,5cb20f2d7c917b00172dfef5,001,,,,,2024-03-06_14h28.42.889,CRL1h,2023.2.3,MacIntel,62.5,65e67470ae2fbf2172c317b2,65e87d70e4be41a1b087e7e9,,,,,,,,,,,472.2,0.8,472.999,472.999,473.932,left,1,0.929,,473.932,474.932,1,8,24,9,1,partial,2,images/Ex2.jpg,left,nonreversed,hard,3,,,,,
,,,,,5cb20f2d7c917b00172dfef5,001,,,,,2024-03-06_14h28.42.889,CRL1h,2023.2.3,MacIntel,62.5,65e67470ae2fbf2172c317b2,65e87d70e4be41a1b087e7e9,,,,,,,,,,,474.933,0.7,475.632,475.632,477.282,right,1,1.637,,477.283,478.283,1,9,25,15,1,partial,2,images/Ex8.jpg,right,nonreversed,hard,3,,,,,
,,,,,5cb20f2d7c917b00172dfef5,001,,,,,2024-03-06_14h28.42.889,CRL1h,2023.2.3,MacIntel,62.5,65e67470ae2fbf2172c317b2,65e87d70e4be41a1b087e7e9,,,,,,,,,,,478.284,0.8,479.083,479.083,479.916,left,1,0.821,,479.916,480.916,1,10,26,0,1,partial,2,images/Ex1.jpg,left,nonreversed,hard,3,,,,,
,,,,,5cb20f2d7c917b00172dfef5,001,,,,,2024-03-06_14h28.42.889,CRL1h,2023.2.3,MacIntel,62.5,65e67470ae2fbf2172c317b2,65e87d70e4be41a1b087e7e9,,,,,,,,,,,480.917,1,481.916,481.916,482.999,left,1,1.071,,482.999,483.999,1,11,27,5,1,partial,2,images/Ex6.jpg,left,reversed,hard,3,,,,,
,,,,,5cb20f2d7c917b00172dfef5,001,,,,,2024-03-06_14h28.42.889,CRL1h,2023.2.3,MacIntel,62.5,65e67470ae2fbf2172c317b2,65e87d70e4be41a1b087e7e9,,,,,,,,,,,483.999,1.1,485.099,485.099,486.232,right,1,1.123,,486.233,487.233,1,12,28,14,1,partial,2,images/Ex7.jpg,right,nonreversed,hard,3,,,,,
,,,,,5cb20f2d7c917b00172dfef5,001,,,,,2024-03-06_14h28.42.889,CRL1h,2023.2.3,MacIntel,62.5,65e67470ae2fbf2172c317b2,65e87d70e4be41a1b087e7e9,,,,,,,,,,,487.233,1.5,488.732,488.733,489.716,left,0,0.971,,489.716,490.716,1,13,29,10,1,partial,2,images/Ex3.jpg,right,reversed,hard,3,,,,,
,,,,,5cb20f2d7c917b00172dfef5,001,,,,,2024-03-06_14h28.42.889,CRL1h,2023.2.3,MacIntel,62.5,65e67470ae2fbf2172c317b2,65e87d70e4be41a1b087e7e9,,,,,,,,,,,490.716,1,491.716,491.716,492.416,right,1,0.69,,492.416,493.416,1,14,30,2,1,partial,2,images/Ex3.jpg,right,reversed,hard,3,,,,,
,,,,,5cb20f2d7c917b00172dfef5,001,,,,,2024-03-06_14h28.42.889,CRL1h,2023.2.3,MacIntel,62.5,65e67470ae2fbf2172c317b2,65e87d70e4be41a1b087e7e9,,,,,,,,,,,493.417,1.1,494.516,494.516,496.282,right,1,1.756,,496.282,497.283,1,15,31,3,1,partial,2,images/Ex4.jpg,right,reversed,hard,3,,,,,
,,,,,5cb20f2d7c917b00172dfef5,001,,,,,2024-03-06_14h28.42.889,CRL1h,2023.2.3,MacIntel,62.5,65e67470ae2fbf2172c317b2,65e87d70e4be41a1b087e7e9,,,,,,,,,,,497.283,1.5,498.783,498.783,499.683,right,1,0.889,,499.683,500.683,2,0,32,10,1,partial,2,images/Ex3.jpg,right,reversed,hard,3,,,,,
,,,,,5cb20f2d7c917b00172dfef5,001,,,,,2024-03-06_14h28.42.889,CRL1h,2023.2.3,MacIntel,62.5,65e67470ae2fbf2172c317b2,65e87d70e4be41a1b087e7e9,,,,,,,,,,,500.683,0.9,501.583,501.583,502.899,right,1,1.306,,502.899,503.9,2,1,33,15,1,partial,2,images/Ex8.jpg,right,nonreversed,hard,3,,,,,
,,,,,5cb20f2d7c917b00172dfef5,001,,,,,2024-03-06_14h28.42.889,CRL1h,2023.2.3,MacIntel,62.5,65e67470ae2fbf2172c317b2,65e87d70e4be41a1b087e7e9,,,,,,,,,,,503.902,0.6,504.499,504.5,505.2,left,1,0.685,,505.2,506.2,2,2,34,9,1,partial,2,images/Ex2.jpg,left,nonreversed,hard,3,,,,,
,,,,,5cb20f2d7c917b00172dfef5,001,,,,,2024-03-06_14h28.42.889,CRL1h,2023.2.3,MacIntel,62.5,65e67470ae2fbf2172c317b2,65e87d70e4be41a1b087e7e9,,,,,,,,,,,506.201,1,507.199,507.2,508.183,right,1,0.977,,508.183,509.183,2,3,35,6,1,partial,2,images/Ex7.jpg,right,nonreversed,hard,3,,,,,
,,,,,5cb20f2d7c917b00172dfef5,001,,,,,2024-03-06_14h28.42.889,CRL1h,2023.2.3,MacIntel,62.5,65e67470ae2fbf2172c317b2,65e87d70e4be41a1b087e7e9,,,,,,,,,,,509.184,0.5,509.683,509.683,510.616,left,1,0.926,,510.616,511.616,2,4,36,0,1,partial,2,images/Ex1.jpg,left,nonreversed,hard,3,,,,,
,,,,,5cb20f2d7c917b00172dfef5,001,,,,,2024-03-06_14h28.42.889,CRL1h,2023.2.3,MacIntel,62.5,65e67470ae2fbf2172c317b2,65e87d70e4be41a1b087e7e9,,,,,,,,,,,511.618,1.2,512.816,512.816,514.116,left,1,1.292,,514.116,515.116,2,5,37,4,1,partial,2,images/Ex5.jpg,left,reversed,hard,3,,,,,
,,,,,5cb20f2d7c917b00172dfef5,001,,,,,2024-03-06_14h28.42.889,CRL1h,2023.2.3,MacIntel,62.5,65e67470ae2fbf2172c317b2,65e87d70e4be41a1b087e7e9,,,,,,,,,,,515.117,0.7,515.816,515.816,516.65,right,1,0.821,,516.65,517.649,2,6,38,3,1,partial,2,images/Ex4.jpg,right,reversed,hard,3,,,,,
,,,,,5cb20f2d7c917b00172dfef5,001,,,,,2024-03-06_14h28.42.889,CRL1h,2023.2.3,MacIntel,62.5,65e67470ae2fbf2172c317b2,65e87d70e4be41a1b087e7e9,,,,,,,,,,,517.65,0.6,518.249,518.249,518.9,right,1,0.64,,518.9,519.899,2,7,39,11,1,partial,2,images/Ex4.jpg,right,reversed,hard,3,,,,,
,,,,,5cb20f2d7c917b00172dfef5,001,,,,,2024-03-06_14h28.42.889,CRL1h,2023.2.3,MacIntel,62.5,65e67470ae2fbf2172c317b2,65e87d70e4be41a1b087e7e9,,,,,,,,,,,519.9,0.9,520.799,520.803,521.766,left,1,0.953,,521.766,522.766,2,8,40,5,1,partial,2,images/Ex6.jpg,left,reversed,hard,3,,,,,
,,,,,5cb20f2d7c917b00172dfef5,001,,,,,2024-03-06_14h28.42.889,CRL1h,2023.2.3,MacIntel,62.5,65e67470ae2fbf2172c317b2,65e87d70e4be41a1b087e7e9,,,,,,,,,,,522.768,0.5,523.266,523.267,524.183,right,0,0.907,,524.183,525.183,2,9,41,12,1,partial,2,images/Ex5.jpg,left,reversed,hard,3,,,,,
,,,,,5cb20f2d7c917b00172dfef5,001,,,,,2024-03-06_14h28.42.889,CRL1h,2023.2.3,MacIntel,62.5,65e67470ae2fbf2172c317b2,65e87d70e4be41a1b087e7e9,,,,,,,,,,,525.184,1,526.183,526.183,527.149,right,1,0.954,,527.149,528.149,2,10,42,2,1,partial,2,images/Ex3.jpg,right,reversed,hard,3,,,,,
,,,,,5cb20f2d7c917b00172dfef5,001,,,,,2024-03-06_14h28.42.889,CRL1h,2023.2.3,MacIntel,62.5,65e67470ae2fbf2172c317b2,65e87d70e4be41a1b087e7e9,,,,,,,,,,,528.15,0.9,529.05,529.05,529.933,left,1,0.874,,529.933,530.933,2,11,43,13,1,partial,2,images/Ex6.jpg,left,reversed,hard,3,,,,,
,,,,,5cb20f2d7c917b00172dfef5,001,,,,,2024-03-06_14h28.42.889,CRL1h,2023.2.3,MacIntel,62.5,65e67470ae2fbf2172c317b2,65e87d70e4be41a1b087e7e9,,,,,,,,,,,530.934,0.6,531.533,531.534,532.966,left,0,1.422,,532.966,533.966,2,12,44,14,1,partial,2,images/Ex7.jpg,right,nonreversed,hard,3,,,,,
,,,,,5cb20f2d7c917b00172dfef5,001,,,,,2024-03-06_14h28.42.889,CRL1h,2023.2.3,MacIntel,62.5,65e67470ae2fbf2172c317b2,65e87d70e4be41a1b087e7e9,,,,,,,,,,,533.967,0.6,534.566,534.566,535.416,left,0,0.836,,535.416,536.416,2,13,45,7,1,partial,2,images/Ex8.jpg,right,nonreversed,hard,3,,,,,
,,,,,5cb20f2d7c917b00172dfef5,001,,,,,2024-03-06_14h28.42.889,CRL1h,2023.2.3,MacIntel,62.5,65e67470ae2fbf2172c317b2,65e87d70e4be41a1b087e7e9,,,,,,,,,,,536.417,1.2,537.615,537.615,538.416,left,1,0.796,,538.416,539.416,2,14,46,8,1,partial,2,images/Ex1.jpg,left,nonreversed,hard,3,,,,,
,,,,,5cb20f2d7c917b00172dfef5,001,,,,,2024-03-06_14h28.42.889,CRL1h,2023.2.3,MacIntel,62.5,65e67470ae2fbf2172c317b2,65e87d70e4be41a1b087e7e9,,,,,,,,,,,539.417,0.9,540.316,540.316,541.083,left,1,0.759,,541.083,542.083,2,15,47,1,1,partial,2,images/Ex2.jpg,left,nonreversed,hard,3,,,,,
,,,,,5cb20f2d7c917b00172dfef5,001,,,,,2024-03-06_14h28.42.889,CRL1h,2023.2.3,MacIntel,62.5,65e67470ae2fbf2172c317b2,65e87d70e4be41a1b087e7e9,,,,,,,,,,,542.084,1,543.083,543.083,543.95,left,1,0.856,,543.95,544.95,3,0,48,13,1,partial,2,images/Ex6.jpg,left,reversed,hard,3,,,,,
,,,,,5cb20f2d7c917b00172dfef5,001,,,,,2024-03-06_14h28.42.889,CRL1h,2023.2.3,MacIntel,62.5,65e67470ae2fbf2172c317b2,65e87d70e4be41a1b087e7e9,,,,,,,,,,,544.952,1.2,546.15,546.15,546.933,left,0,0.769,,546.933,547.932,3,1,49,7,1,partial,2,images/Ex8.jpg,right,nonreversed,hard,3,,,,,
,,,,,5cb20f2d7c917b00172dfef5,001,,,,,2024-03-06_14h28.42.889,CRL1h,2023.2.3,MacIntel,62.5,65e67470ae2fbf2172c317b2,65e87d70e4be41a1b087e7e9,,,,,,,,,,,547.933,1.3,549.233,549.233,550.083,left,1,0.837,,550.084,551.083,3,2,50,12,1,partial,2,images/Ex5.jpg,left,reversed,hard,3,,,,,
,,,,,5cb20f2d7c917b00172dfef5,001,,,,,2024-03-06_14h28.42.889,CRL1h,2023.2.3,MacIntel,62.5,65e67470ae2fbf2172c317b2,65e87d70e4be41a1b087e7e9,,,,,,,,,,,551.084,0.6,551.683,551.683,552.566,left,1,0.872,,552.566,553.566,3,3,51,5,1,partial,2,images/Ex6.jpg,left,reversed,hard,3,,,,,
,,,,,5cb20f2d7c917b00172dfef5,001,,,,,2024-03-06_14h28.42.889,CRL1h,2023.2.3,MacIntel,62.5,65e67470ae2fbf2172c317b2,65e87d70e4be41a1b087e7e9,,,,,,,,,,,553.568,1.3,554.867,554.867,556.016,right,1,1.143,,556.016,557.016,3,4,52,14,1,partial,2,images/Ex7.jpg,right,nonreversed,hard,3,,,,,
,,,,,5cb20f2d7c917b00172dfef5,001,,,,,2024-03-06_14h28.42.889,CRL1h,2023.2.3,MacIntel,62.5,65e67470ae2fbf2172c317b2,65e87d70e4be41a1b087e7e9,,,,,,,,,,,557.017,0.8,557.816,557.816,558.466,left,1,0.639,,558.466,559.466,3,5,53,0,1,partial,2,images/Ex1.jpg,left,nonreversed,hard,3,,,,,
,,,,,5cb20f2d7c917b00172dfef5,001,,,,,2024-03-06_14h28.42.889,CRL1h,2023.2.3,MacIntel,62.5,65e67470ae2fbf2172c317b2,65e87d70e4be41a1b087e7e9,,,,,,,,,,,559.467,0.7,560.167,560.167,561.532,right,1,1.358,,561.532,562.533,3,6,54,2,1,partial,2,images/Ex3.jpg,right,reversed,hard,3,,,,,
,,,,,5cb20f2d7c917b00172dfef5,001,,,,,2024-03-06_14h28.42.889,CRL1h,2023.2.3,MacIntel,62.5,65e67470ae2fbf2172c317b2,65e87d70e4be41a1b087e7e9,,,,,,,,,,,562.534,0.5,563.033,563.033,563.65,right,1,0.603,,563.65,564.65,3,7,55,10,1,partial,2,images/Ex3.jpg,right,reversed,hard,3,,,,,
,,,,,5cb20f2d7c917b00172dfef5,001,,,,,2024-03-06_14h28.42.889,CRL1h,2023.2.3,MacIntel,62.5,65e67470ae2fbf2172c317b2,65e87d70e4be41a1b087e7e9,,,,,,,,,,,564.651,0.9,565.55,565.55,566.3,left,1,0.737,,566.3,567.3,3,8,56,8,1,partial,2,images/Ex1.jpg,left,nonreversed,hard,3,,,,,
,,,,,5cb20f2d7c917b00172dfef5,001,,,,,2024-03-06_14h28.42.889,CRL1h,2023.2.3,MacIntel,62.5,65e67470ae2fbf2172c317b2,65e87d70e4be41a1b087e7e9,,,,,,,,,,,567.301,1,568.3,568.3,569.067,left,1,0.753,,569.067,570.066,3,9,57,9,1,partial,2,images/Ex2.jpg,left,nonreversed,hard,3,,,,,
,,,,,5cb20f2d7c917b00172dfef5,001,,,,,2024-03-06_14h28.42.889,CRL1h,2023.2.3,MacIntel,62.5,65e67470ae2fbf2172c317b2,65e87d70e4be41a1b087e7e9,,,,,,,,,,,570.067,0.8,570.866,570.867,572.233,left,1,1.354,,572.233,573.233,3,10,58,4,1,partial,2,images/Ex5.jpg,left,reversed,hard,3,,,,,
,,,,,5cb20f2d7c917b00172dfef5,001,,,,,2024-03-06_14h28.42.889,CRL1h,2023.2.3,MacIntel,62.5,65e67470ae2fbf2172c317b2,65e87d70e4be41a1b087e7e9,,,,,,,,,,,573.234,1.2,574.433,574.433,575.417,left,1,0.971,,575.417,576.417,3,11,59,1,1,partial,2,images/Ex2.jpg,left,nonreversed,hard,3,,,,,
,,,,,5cb20f2d7c917b00172dfef5,001,,,,,2024-03-06_14h28.42.889,CRL1h,2023.2.3,MacIntel,62.5,65e67470ae2fbf2172c317b2,65e87d70e4be41a1b087e7e9,,,,,,,,,,,576.417,0.7,577.117,577.117,578.15,right,1,1.022,,578.15,579.15,3,12,60,3,1,partial,2,images/Ex4.jpg,right,reversed,hard,3,,,,,
,,,,,5cb20f2d7c917b00172dfef5,001,,,,,2024-03-06_14h28.42.889,CRL1h,2023.2.3,MacIntel,62.5,65e67470ae2fbf2172c317b2,65e87d70e4be41a1b087e7e9,,,,,,,,,,,579.151,0.9,580.05,580.05,580.733,right,1,0.675,,580.733,581.733,3,13,61,11,1,partial,2,images/Ex4.jpg,right,reversed,hard,3,,,,,
,,,,,5cb20f2d7c917b00172dfef5,001,,,,,2024-03-06_14h28.42.889,CRL1h,2023.2.3,MacIntel,62.5,65e67470ae2fbf2172c317b2,65e87d70e4be41a1b087e7e9,,,,,,,,,,,581.734,0.8,582.533,582.533,583.349,left,0,0.805,,583.349,584.35,3,14,62,6,1,partial,2,images/Ex7.jpg,right,nonreversed,hard,3,,,,,
,,,,,5cb20f2d7c917b00172dfef5,001,,,,,2024-03-06_14h28.42.889,CRL1h,2023.2.3,MacIntel,62.5,65e67470ae2fbf2172c317b2,65e87d70e4be41a1b087e7e9,,,,,,,,,,,584.351,0.8,585.15,585.15,586.299,right,1,1.146,,586.299,587.3,3,15,63,15,1,partial,2,images/Ex8.jpg,right,nonreversed,hard,3,,,,,
,,,,,5cb20f2d7c917b00172dfef5,001,,,,,2024-03-06_14h28.42.889,CRL1h,2023.2.3,MacIntel,62.5,65e67470ae2fbf2172c317b2,65e87d70e4be41a1b087e7e9,,,,,,587.302,590.017,space,2.708,,590.023,0.5,590.517,590.517,592.6,left,0,2.074,,592.601,593.6,0,0,0,7,1,total,1,images/Ex16.jpg,right,training,hard,3,,,,,
,,,,,5cb20f2d7c917b00172dfef5,001,,,,,2024-03-06_14h28.42.889,CRL1h,2023.2.3,MacIntel,62.5,65e67470ae2fbf2172c317b2,65e87d70e4be41a1b087e7e9,,,,,,,,,,,593.602,1,594.601,594.601,595.484,left,0,0.868,,595.484,596.483,0,1,1,14,1,total,1,images/Ex15.jpg,right,training,hard,3,,,,,
,,,,,5cb20f2d7c917b00172dfef5,001,,,,,2024-03-06_14h28.42.889,CRL1h,2023.2.3,MacIntel,62.5,65e67470ae2fbf2172c317b2,65e87d70e4be41a1b087e7e9,,,,,,,,,,,596.485,1.4,597.884,597.884,598.967,left,1,1.077,,598.967,599.967,0,2,2,2,1,total,1,images/Ex11.jpg,left,training,hard,3,,,,,
,,,,,5cb20f2d7c917b00172dfef5,001,,,,,2024-03-06_14h28.42.889,CRL1h,2023.2.3,MacIntel,62.5,65e67470ae2fbf2172c317b2,65e87d70e4be41a1b087e7e9,,,,,,,,,,,599.968,0.7,600.667,600.667,601.5,left,1,0.82,,601.5,602.499,0,3,3,8,1,total,1,images/Ex9.jpg,left,training,hard,3,,,,,
,,,,,5cb20f2d7c917b00172dfef5,001,,,,,2024-03-06_14h28.42.889,CRL1h,2023.2.3,MacIntel,62.5,65e67470ae2fbf2172c317b2,65e87d70e4be41a1b087e7e9,,,,,,,,,,,602.5,1.3,603.8,603.8,604.717,left,1,0.905,,604.717,605.717,0,4,4,10,1,total,1,images/Ex11.jpg,left,training,hard,3,,,,,
,,,,,5cb20f2d7c917b00172dfef5,001,,,,,2024-03-06_14h28.42.889,CRL1h,2023.2.3,MacIntel,62.5,65e67470ae2fbf2172c317b2,65e87d70e4be41a1b087e7e9,,,,,,,,,,,605.718,0.7,606.417,606.417,607.467,left,0,1.041,,607.467,608.467,0,5,5,12,1,total,1,images/Ex13.jpg,right,training,hard,3,,,,,
,,,,,5cb20f2d7c917b00172dfef5,001,,,,,2024-03-06_14h28.42.889,CRL1h,2023.2.3,MacIntel,62.5,65e67470ae2fbf2172c317b2,65e87d70e4be41a1b087e7e9,,,,,,,,,,,608.468,0.6,609.067,609.067,609.917,left,1,0.838,,609.917,610.917,0,6,6,9,1,total,1,images/Ex10.jpg,left,training,hard,3,,,,,
,,,,,5cb20f2d7c917b00172dfef5,001,,,,,2024-03-06_14h28.42.889,CRL1h,2023.2.3,MacIntel,62.5,65e67470ae2fbf2172c317b2,65e87d70e4be41a1b087e7e9,,,,,,,,,,,610.918,0.8,611.717,611.717,612.7,left,1,0.971,,612.701,613.7,0,7,7,0,1,total,1,images/Ex9.jpg,left,training,hard,3,,,,,
,,,,,5cb20f2d7c917b00172dfef5,001,,,,,2024-03-06_14h28.42.889,CRL1h,2023.2.3,MacIntel,62.5,65e67470ae2fbf2172c317b2,65e87d70e4be41a1b087e7e9,,,,,,,,,,,613.701,0.5,614.2,614.201,615.167,right,1,0.959,,615.167,616.167,0,8,8,13,1,total,1,images/Ex14.jpg,right,training,hard,3,,,,,
,,,,,5cb20f2d7c917b00172dfef5,001,,,,,2024-03-06_14h28.42.889,CRL1h,2023.2.3,MacIntel,62.5,65e67470ae2fbf2172c317b2,65e87d70e4be41a1b087e7e9,,,,,,,,,,,616.168,0.9,617.067,617.067,618.1,right,1,1.023,,618.1,619.1,0,9,9,15,1,total,1,images/Ex16.jpg,right,training,hard,3,,,,,
,,,,,5cb20f2d7c917b00172dfef5,001,,,,,2024-03-06_14h28.42.889,CRL1h,2023.2.3,MacIntel,62.5,65e67470ae2fbf2172c317b2,65e87d70e4be41a1b087e7e9,,,,,,,,,,,619.101,1.2,620.3,620.3,621.45,right,1,1.137,,621.45,622.45,0,10,10,5,1,total,1,images/Ex14.jpg,right,training,hard,3,,,,,
,,,,,5cb20f2d7c917b00172dfef5,001,,,,,2024-03-06_14h28.42.889,CRL1h,2023.2.3,MacIntel,62.5,65e67470ae2fbf2172c317b2,65e87d70e4be41a1b087e7e9,,,,,,,,,,,622.451,1.4,623.85,623.85,624.817,right,1,0.954,,624.817,625.817,0,11,11,6,1,total,1,images/Ex15.jpg,right,training,hard,3,,,,,
,,,,,5cb20f2d7c917b00172dfef5,001,,,,,2024-03-06_14h28.42.889,CRL1h,2023.2.3,MacIntel,62.5,65e67470ae2fbf2172c317b2,65e87d70e4be41a1b087e7e9,,,,,,,,,,,625.818,1.2,627.017,627.017,627.85,right,0,0.822,,627.85,628.85,0,12,12,11,1,total,1,images/Ex12.jpg,left,training,hard,3,,,,,
,,,,,5cb20f2d7c917b00172dfef5,001,,,,,2024-03-06_14h28.42.889,CRL1h,2023.2.3,MacIntel,62.5,65e67470ae2fbf2172c317b2,65e87d70e4be41a1b087e7e9,,,,,,,,,,,628.851,1,629.85,629.85,630.434,left,1,0.573,,630.434,631.44,0,13,13,3,1,total,1,images/Ex12.jpg,left,training,hard,3,,,,,
,,,,,5cb20f2d7c917b00172dfef5,001,,,,,2024-03-06_14h28.42.889,CRL1h,2023.2.3,MacIntel,62.5,65e67470ae2fbf2172c317b2,65e87d70e4be41a1b087e7e9,,,,,,,,,,,631.441,0.8,632.234,632.234,633.184,right,1,0.943,,633.184,634.184,0,14,14,4,1,total,1,images/Ex13.jpg,right,training,hard,3,,,,,
,,,,,5cb20f2d7c917b00172dfef5,001,,,,,2024-03-06_14h28.42.889,CRL1h,2023.2.3,MacIntel,62.5,65e67470ae2fbf2172c317b2,65e87d70e4be41a1b087e7e9,,,,,,,,,,,634.184,1,635.184,635.184,636.617,left,1,1.422,,636.617,637.617,0,15,15,1,1,total,1,images/Ex10.jpg,left,training,hard,3,,,,,
,,,,,5cb20f2d7c917b00172dfef5,001,,,,,2024-03-06_14h28.42.889,CRL1h,2023.2.3,MacIntel,62.5,65e67470ae2fbf2172c317b2,65e87d70e4be41a1b087e7e9,,,,,,,,,,,637.618,1,638.617,638.617,639.367,left,1,0.738,,639.367,640.368,1,0,16,8,1,total,1,images/Ex9.jpg,left,training,hard,3,,,,,
,,,,,5cb20f2d7c917b00172dfef5,001,,,,,2024-03-06_14h28.42.889,CRL1h,2023.2.3,MacIntel,62.5,65e67470ae2fbf2172c317b2,65e87d70e4be41a1b087e7e9,,,,,,,,,,,640.37,0.7,641.067,641.067,642.267,right,1,1.189,,642.268,643.267,1,1,17,7,1,total,1,images/Ex16.jpg,right,training,hard,3,,,,,
,,,,,5cb20f2d7c917b00172dfef5,001,,,,,2024-03-06_14h28.42.889,CRL1h,2023.2.3,MacIntel,62.5,65e67470ae2fbf2172c317b2,65e87d70e4be41a1b087e7e9,,,,,,,,,,,643.269,0.6,643.867,643.867,644.467,left,1,0.588,,644.467,645.467,1,2,18,10,1,total,1,images/Ex11.jpg,left,training,hard,3,,,,,
,,,,,5cb20f2d7c917b00172dfef5,001,,,,,2024-03-06_14h28.42.889,CRL1h,2023.2.3,MacIntel,62.5,65e67470ae2fbf2172c317b2,65e87d70e4be41a1b087e7e9,,,,,,,,,,,645.468,0.9,646.367,646.368,647.517,right,1,1.138,,647.517,648.517,1,3,19,13,1,total,1,images/Ex14.jpg,right,training,hard,3,,,,,
,,,,,5cb20f2d7c917b00172dfef5,001,,,,,2024-03-06_14h28.42.889,CRL1h,2023.2.3,MacIntel,62.5,65e67470ae2fbf2172c317b2,65e87d70e4be41a1b087e7e9,,,,,,,,,,,648.518,1.4,649.917,649.917,650.867,right,1,0.944,,650.867,651.867,1,4,20,6,1,total,1,images/Ex15.jpg,right,training,hard,3,,,,,
,,,,,5cb20f2d7c917b00172dfef5,001,,,,,2024-03-06_14h28.42.889,CRL1h,2023.2.3,MacIntel,62.5,65e67470ae2fbf2172c317b2,65e87d70e4be41a1b087e7e9,,,,,,,,,,,651.868,0.9,652.767,652.767,653.534,left,1,0.759,,653.534,654.534,1,5,21,9,1,total,1,images/Ex10.jpg,left,training,hard,3,,,,,
,,,,,5cb20f2d7c917b00172dfef5,001,,,,,2024-03-06_14h28.42.889,CRL1h,2023.2.3,MacIntel,62.5,65e67470ae2fbf2172c317b2,65e87d70e4be41a1b087e7e9,,,,,,,,,,,654.535,1.1,655.634,655.634,656.384,right,1,0.74,,656.384,657.384,1,6,22,4,1,total,1,images/Ex13.jpg,right,training,hard,3,,,,,
,,,,,5cb20f2d7c917b00172dfef5,001,,,,,2024-03-06_14h28.42.889,CRL1h,2023.2.3,MacIntel,62.5,65e67470ae2fbf2172c317b2,65e87d70e4be41a1b087e7e9,,,,,,,,,,,657.385,1.4,658.784,658.784,659.317,left,1,0.522,,659.317,660.317,1,7,23,2,1,total,1,images/Ex11.jpg,left,training,hard,3,,,,,
,,,,,5cb20f2d7c917b00172dfef5,001,,,,,2024-03-06_14h28.42.889,CRL1h,2023.2.3,MacIntel,62.5,65e67470ae2fbf2172c317b2,65e87d70e4be41a1b087e7e9,,,,,,,,,,,660.319,1.4,661.717,661.718,662.467,left,1,0.736,,662.467,663.467,1,8,24,11,1,total,1,images/Ex12.jpg,left,training,hard,3,,,,,
,,,,,5cb20f2d7c917b00172dfef5,001,,,,,2024-03-06_14h28.42.889,CRL1h,2023.2.3,MacIntel,62.5,65e67470ae2fbf2172c317b2,65e87d70e4be41a1b087e7e9,,,,,,,,,,,663.468,0.7,664.167,664.167,664.817,right,1,0.646,,664.817,665.817,1,9,25,12,1,total,1,images/Ex13.jpg,right,training,hard,3,,,,,
,,,,,5cb20f2d7c917b00172dfef5,001,,,,,2024-03-06_14h28.42.889,CRL1h,2023.2.3,MacIntel,62.5,65e67470ae2fbf2172c317b2,65e87d70e4be41a1b087e7e9,,,,,,,,,,,665.818,0.7,666.517,666.517,667.25,right,1,0.729,,667.251,668.25,1,10,26,14,1,total,1,images/Ex15.jpg,right,training,hard,3,,,,,
,,,,,5cb20f2d7c917b00172dfef5,001,,,,,2024-03-06_14h28.42.889,CRL1h,2023.2.3,MacIntel,62.5,65e67470ae2fbf2172c317b2,65e87d70e4be41a1b087e7e9,,,,,,,,,,,668.251,0.8,669.051,669.051,669.8,right,1,0.743,,669.801,670.801,1,11,27,15,1,total,1,images/Ex16.jpg,right,training,hard,3,,,,,
,,,,,5cb20f2d7c917b00172dfef5,001,,,,,2024-03-06_14h28.42.889,CRL1h,2023.2.3,MacIntel,62.5,65e67470ae2fbf2172c317b2,65e87d70e4be41a1b087e7e9,,,,,,,,,,,670.801,1,671.801,671.801,672.367,left,1,0.557,,672.367,673.367,1,12,28,1,1,total,1,images/Ex10.jpg,left,training,hard,3,,,,,
,,,,,5cb20f2d7c917b00172dfef5,001,,,,,2024-03-06_14h28.42.889,CRL1h,2023.2.3,MacIntel,62.5,65e67470ae2fbf2172c317b2,65e87d70e4be41a1b087e7e9,,,,,,,,,,,673.368,1.1,674.467,674.467,675.166,right,1,0.689,,675.166,676.168,1,13,29,5,1,total,1,images/Ex14.jpg,right,training,hard,3,,,,,
,,,,,5cb20f2d7c917b00172dfef5,001,,,,,2024-03-06_14h28.42.889,CRL1h,2023.2.3,MacIntel,62.5,65e67470ae2fbf2172c317b2,65e87d70e4be41a1b087e7e9,,,,,,,,,,,676.17,0.6,676.768,676.768,677.551,left,1,0.776,,677.551,678.551,1,14,30,3,1,total,1,images/Ex12.jpg,left,training,hard,3,,,,,
,,,,,5cb20f2d7c917b00172dfef5,001,,,,,2024-03-06_14h28.42.889,CRL1h,2023.2.3,MacIntel,62.5,65e67470ae2fbf2172c317b2,65e87d70e4be41a1b087e7e9,,,,,,,,,,,678.552,0.6,679.151,679.151,679.784,left,1,0.621,,679.784,680.784,1,15,31,0,1,total,1,images/Ex9.jpg,left,training,hard,3,,,,,
,,,,,5cb20f2d7c917b00172dfef5,001,,,,,2024-03-06_14h28.42.889,CRL1h,2023.2.3,MacIntel,62.5,65e67470ae2fbf2172c317b2,65e87d70e4be41a1b087e7e9,,,,,,,,,,,680.785,0.8,681.584,681.584,682.284,right,0,0.689,,682.284,683.284,2,0,32,11,1,total,1,images/Ex12.jpg,left,training,hard,3,,,,,
,,,,,5cb20f2d7c917b00172dfef5,001,,,,,2024-03-06_14h28.42.889,CRL1h,2023.2.3,MacIntel,62.5,65e67470ae2fbf2172c317b2,65e87d70e4be41a1b087e7e9,,,,,,,,,,,683.285,1.3,684.584,684.584,685.434,right,1,0.837,,685.434,686.434,2,1,33,13,1,total,1,images/Ex14.jpg,right,training,hard,3,,,,,
,,,,,5cb20f2d7c917b00172dfef5,001,,,,,2024-03-06_14h28.42.889,CRL1h,2023.2.3,MacIntel,62.5,65e67470ae2fbf2172c317b2,65e87d70e4be41a1b087e7e9,,,,,,,,,,,686.435,1.1,687.534,687.534,688.151,left,1,0.604,,688.151,689.151,2,2,34,3,1,total,1,images/Ex12.jpg,left,training,hard,3,,,,,
,,,,,5cb20f2d7c917b00172dfef5,001,,,,,2024-03-06_14h28.42.889,CRL1h,2023.2.3,MacIntel,62.5,65e67470ae2fbf2172c317b2,65e87d70e4be41a1b087e7e9,,,,,,,,,,,689.152,1,690.151,690.151,690.967,left,1,0.805,,690.968,691.967,2,3,35,0,1,total,1,images/Ex9.jpg,left,training,hard,3,,,,,
,,,,,5cb20f2d7c917b00172dfef5,001,,,,,2024-03-06_14h28.42.889,CRL1h,2023.2.3,MacIntel,62.5,65e67470ae2fbf2172c317b2,65e87d70e4be41a1b087e7e9,,,,,,,,,,,691.968,1,692.968,692.968,693.584,right,1,0.603,,693.584,694.585,2,4,36,5,1,total,1,images/Ex14.jpg,right,training,hard,3,,,,,
,,,,,5cb20f2d7c917b00172dfef5,001,,,,,2024-03-06_14h28.42.889,CRL1h,2023.2.3,MacIntel,62.5,65e67470ae2fbf2172c317b2,65e87d70e4be41a1b087e7e9,,,,,,,,,,,694.586,1.4,695.984,695.985,696.551,right,1,0.558,,696.551,697.551,2,5,37,14,1,total,1,images/Ex15.jpg,right,training,hard,3,,,,,
,,,,,5cb20f2d7c917b00172dfef5,001,,,,,2024-03-06_14h28.42.889,CRL1h,2023.2.3,MacIntel,62.5,65e67470ae2fbf2172c317b2,65e87d70e4be41a1b087e7e9,,,,,,,,,,,697.552,1.2,698.751,698.751,699.183,left,1,0.429,,699.183,700.184,2,6,38,10,1,total,1,images/Ex11.jpg,left,training,hard,3,,,,,
,,,,,5cb20f2d7c917b00172dfef5,001,,,,,2024-03-06_14h28.42.889,CRL1h,2023.2.3,MacIntel,62.5,65e67470ae2fbf2172c317b2,65e87d70e4be41a1b087e7e9,,,,,,,,,,,700.185,1.1,701.284,701.284,701.951,right,1,0.66,,701.951,702.951,2,7,39,6,1,total,1,images/Ex15.jpg,right,training,hard,3,,,,,
,,,,,5cb20f2d7c917b00172dfef5,001,,,,,2024-03-06_14h28.42.889,CRL1h,2023.2.3,MacIntel,62.5,65e67470ae2fbf2172c317b2,65e87d70e4be41a1b087e7e9,,,,,,,,,,,702.952,1.2,704.151,704.151,704.717,left,1,0.557,,704.718,705.718,2,8,40,2,1,total,1,images/Ex11.jpg,left,training,hard,3,,,,,
,,,,,5cb20f2d7c917b00172dfef5,001,,,,,2024-03-06_14h28.42.889,CRL1h,2023.2.3,MacIntel,62.5,65e67470ae2fbf2172c317b2,65e87d70e4be41a1b087e7e9,,,,,,,,,,,705.718,1,706.717,706.717,707.284,right,1,0.554,,707.284,708.284,2,9,41,15,1,total,1,images/Ex16.jpg,right,training,hard,3,,,,,
,,,,,5cb20f2d7c917b00172dfef5,001,,,,,2024-03-06_14h28.42.889,CRL1h,2023.2.3,MacIntel,62.5,65e67470ae2fbf2172c317b2,65e87d70e4be41a1b087e7e9,,,,,,,,,,,708.285,1.1,709.384,709.384,710.017,right,1,0.623,,710.018,711.018,2,10,42,12,1,total,1,images/Ex13.jpg,right,training,hard,3,,,,,
,,,,,5cb20f2d7c917b00172dfef5,001,,,,,2024-03-06_14h28.42.889,CRL1h,2023.2.3,MacIntel,62.5,65e67470ae2fbf2172c317b2,65e87d70e4be41a1b087e7e9,,,,,,,,,,,711.018,0.5,711.517,711.518,712.201,left,1,0.671,,712.201,713.201,2,11,43,1,1,total,1,images/Ex10.jpg,left,training,hard,3,,,,,
,,,,,5cb20f2d7c917b00172dfef5,001,,,,,2024-03-06_14h28.42.889,CRL1h,2023.2.3,MacIntel,62.5,65e67470ae2fbf2172c317b2,65e87d70e4be41a1b087e7e9,,,,,,,,,,,713.202,0.9,714.101,714.101,714.751,right,1,0.637,,714.751,715.751,2,12,44,7,1,total,1,images/Ex16.jpg,right,training,hard,3,,,,,
,,,,,5cb20f2d7c917b00172dfef5,001,,,,,2024-03-06_14h28.42.889,CRL1h,2023.2.3,MacIntel,62.5,65e67470ae2fbf2172c317b2,65e87d70e4be41a1b087e7e9,,,,,,,,,,,715.753,0.9,716.651,716.652,717.268,right,1,0.602,,717.268,718.267,2,13,45,4,1,total,1,images/Ex13.jpg,right,training,hard,3,,,,,
,,,,,5cb20f2d7c917b00172dfef5,001,,,,,2024-03-06_14h28.42.889,CRL1h,2023.2.3,MacIntel,62.5,65e67470ae2fbf2172c317b2,65e87d70e4be41a1b087e7e9,,,,,,,,,,,718.268,1.5,719.767,719.767,720.401,left,1,0.619,,720.401,721.401,2,14,46,8,1,total,1,images/Ex9.jpg,left,training,hard,3,,,,,
,,,,,5cb20f2d7c917b00172dfef5,001,,,,,2024-03-06_14h28.42.889,CRL1h,2023.2.3,MacIntel,62.5,65e67470ae2fbf2172c317b2,65e87d70e4be41a1b087e7e9,,,,,,,,,,,721.402,1.4,722.801,722.801,723.418,left,1,0.605,,723.418,724.418,2,15,47,9,1,total,1,images/Ex10.jpg,left,training,hard,3,,,,,
,,,,,5cb20f2d7c917b00172dfef5,001,,,,,2024-03-06_14h28.42.889,CRL1h,2023.2.3,MacIntel,62.5,65e67470ae2fbf2172c317b2,65e87d70e4be41a1b087e7e9,,,,,,,,,,,724.419,0.7,725.118,725.118,725.751,left,1,0.627,,725.751,726.751,3,0,48,10,1,total,1,images/Ex11.jpg,left,training,hard,3,,,,,
,,,,,5cb20f2d7c917b00172dfef5,001,,,,,2024-03-06_14h28.42.889,CRL1h,2023.2.3,MacIntel,62.5,65e67470ae2fbf2172c317b2,65e87d70e4be41a1b087e7e9,,,,,,,,,,,726.752,1.4,728.151,728.151,728.618,left,1,0.459,,728.618,729.618,3,1,49,8,1,total,1,images/Ex9.jpg,left,training,hard,3,,,,,
,,,,,5cb20f2d7c917b00172dfef5,001,,,,,2024-03-06_14h28.42.889,CRL1h,2023.2.3,MacIntel,62.5,65e67470ae2fbf2172c317b2,65e87d70e4be41a1b087e7e9,,,,,,,,,,,729.619,1.1,730.718,730.718,731.368,right,1,0.641,,731.368,732.368,3,2,50,13,1,total,1,images/Ex14.jpg,right,training,hard,3,,,,,
,,,,,5cb20f2d7c917b00172dfef5,001,,,,,2024-03-06_14h28.42.889,CRL1h,2023.2.3,MacIntel,62.5,65e67470ae2fbf2172c317b2,65e87d70e4be41a1b087e7e9,,,,,,,,,,,732.369,0.7,733.067,733.067,733.668,left,1,0.59,,733.668,734.668,3,3,51,0,1,total,1,images/Ex9.jpg,left,training,hard,3,,,,,
,,,,,5cb20f2d7c917b00172dfef5,001,,,,,2024-03-06_14h28.42.889,CRL1h,2023.2.3,MacIntel,62.5,65e67470ae2fbf2172c317b2,65e87d70e4be41a1b087e7e9,,,,,,,,,,,734.669,0.9,735.568,735.568,736.068,right,1,0.493,,736.068,737.068,3,4,52,7,1,total,1,images/Ex16.jpg,right,training,hard,3,,,,,
,,,,,5cb20f2d7c917b00172dfef5,001,,,,,2024-03-06_14h28.42.889,CRL1h,2023.2.3,MacIntel,62.5,65e67470ae2fbf2172c317b2,65e87d70e4be41a1b087e7e9,,,,,,,,,,,737.069,1.4,738.468,738.468,739.034,left,1,0.558,,739.034,740.035,3,5,53,2,1,total,1,images/Ex11.jpg,left,training,hard,3,,,,,
,,,,,5cb20f2d7c917b00172dfef5,001,,,,,2024-03-06_14h28.42.889,CRL1h,2023.2.3,MacIntel,62.5,65e67470ae2fbf2172c317b2,65e87d70e4be41a1b087e7e9,,,,,,,,,,,740.035,1,741.035,741.035,741.684,right,1,0.638,,741.684,742.684,3,6,54,4,1,total,1,images/Ex13.jpg,right,training,hard,3,,,,,
,,,,,5cb20f2d7c917b00172dfef5,001,,,,,2024-03-06_14h28.42.889,CRL1h,2023.2.3,MacIntel,62.5,65e67470ae2fbf2172c317b2,65e87d70e4be41a1b087e7e9,,,,,,,,,,,742.685,1.3,743.984,743.985,744.601,right,1,0.607,,744.601,745.601,3,7,55,14,1,total,1,images/Ex15.jpg,right,training,hard,3,,,,,
,,,,,5cb20f2d7c917b00172dfef5,001,,,,,2024-03-06_14h28.42.889,CRL1h,2023.2.3,MacIntel,62.5,65e67470ae2fbf2172c317b2,65e87d70e4be41a1b087e7e9,,,,,,,,,,,745.602,0.7,746.301,746.301,746.935,right,1,0.621,,746.935,747.934,3,8,56,15,1,total,1,images/Ex16.jpg,right,training,hard,3,,,,,
,,,,,5cb20f2d7c917b00172dfef5,001,,,,,2024-03-06_14h28.42.889,CRL1h,2023.2.3,MacIntel,62.5,65e67470ae2fbf2172c317b2,65e87d70e4be41a1b087e7e9,,,,,,,,,,,747.934,0.5,748.435,748.435,749.184,left,1,0.742,,749.185,750.185,3,9,57,3,1,total,1,images/Ex12.jpg,left,training,hard,3,,,,,
,,,,,5cb20f2d7c917b00172dfef5,001,,,,,2024-03-06_14h28.42.889,CRL1h,2023.2.3,MacIntel,62.5,65e67470ae2fbf2172c317b2,65e87d70e4be41a1b087e7e9,,,,,,,,,,,750.185,0.6,750.784,750.784,751.652,left,1,0.855,,751.652,752.652,3,10,58,9,1,total,1,images/Ex10.jpg,left,training,hard,3,,,,,
,,,,,5cb20f2d7c917b00172dfef5,001,,,,,2024-03-06_14h28.42.889,CRL1h,2023.2.3,MacIntel,62.5,65e67470ae2fbf2172c317b2,65e87d70e4be41a1b087e7e9,,,,,,,,,,,752.654,0.7,753.351,753.351,753.918,right,1,0.56,,753.918,754.918,3,11,59,12,1,total,1,images/Ex13.jpg,right,training,hard,3,,,,,
,,,,,5cb20f2d7c917b00172dfef5,001,,,,,2024-03-06_14h28.42.889,CRL1h,2023.2.3,MacIntel,62.5,65e67470ae2fbf2172c317b2,65e87d70e4be41a1b087e7e9,,,,,,,,,,,754.919,0.9,755.817,755.817,756.435,right,1,0.606,,756.435,757.435,3,12,60,6,1,total,1,images/Ex15.jpg,right,training,hard,3,,,,,
,,,,,5cb20f2d7c917b00172dfef5,001,,,,,2024-03-06_14h28.42.889,CRL1h,2023.2.3,MacIntel,62.5,65e67470ae2fbf2172c317b2,65e87d70e4be41a1b087e7e9,,,,,,,,,,,757.436,0.8,758.235,758.235,758.851,right,1,0.608,,758.851,759.851,3,13,61,5,1,total,1,images/Ex14.jpg,right,training,hard,3,,,,,
,,,,,5cb20f2d7c917b00172dfef5,001,,,,,2024-03-06_14h28.42.889,CRL1h,2023.2.3,MacIntel,62.5,65e67470ae2fbf2172c317b2,65e87d70e4be41a1b087e7e9,,,,,,,,,,,759.853,1,760.851,760.852,761.434,left,1,0.572,,761.435,762.435,3,14,62,11,1,total,1,images/Ex12.jpg,left,training,hard,3,,,,,
,,,,,5cb20f2d7c917b00172dfef5,001,,,,,2024-03-06_14h28.42.889,CRL1h,2023.2.3,MacIntel,62.5,65e67470ae2fbf2172c317b2,65e87d70e4be41a1b087e7e9,,,,,,,,,,,762.436,1.1,763.535,763.535,764.118,left,1,0.571,,764.118,765.118,3,15,63,1,1,total,1,images/Ex10.jpg,left,training,hard,3,,,,,
,,,,,5cb20f2d7c917b00172dfef5,001,,,,,2024-03-06_14h28.42.889,CRL1h,2023.2.3,MacIntel,62.5,65e67470ae2fbf2172c317b2,65e87d70e4be41a1b087e7e9,,,,,,,,,,,765.119,0.5,765.618,765.618,766.318,left,1,0.688,,766.318,767.318,4,0,64,11,1,total,1,images/Ex12.jpg,left,training,hard,3,,,,,
,,,,,5cb20f2d7c917b00172dfef5,001,,,,,2024-03-06_14h28.42.889,CRL1h,2023.2.3,MacIntel,62.5,65e67470ae2fbf2172c317b2,65e87d70e4be41a1b087e7e9,,,,,,,,,,,767.319,1.4,768.718,768.718,769.2,right,0,0.471,,769.201,770.202,4,1,65,9,1,total,1,images/Ex10.jpg,left,training,hard,3,,,,,
,,,,,5cb20f2d7c917b00172dfef5,001,,,,,2024-03-06_14h28.42.889,CRL1h,2023.2.3,MacIntel,62.5,65e67470ae2fbf2172c317b2,65e87d70e4be41a1b087e7e9,,,,,,,,,,,770.203,0.7,770.902,770.902,771.568,right,1,0.658,,771.568,772.567,4,2,66,6,1,total,1,images/Ex15.jpg,right,training,hard,3,,,,,
,,,,,5cb20f2d7c917b00172dfef5,001,,,,,2024-03-06_14h28.42.889,CRL1h,2023.2.3,MacIntel,62.5,65e67470ae2fbf2172c317b2,65e87d70e4be41a1b087e7e9,,,,,,,,,,,772.568,0.8,773.368,773.368,773.951,left,1,0.577,,773.951,774.951,4,3,67,3,1,total,1,images/Ex12.jpg,left,training,hard,3,,,,,
,,,,,5cb20f2d7c917b00172dfef5,001,,,,,2024-03-06_14h28.42.889,CRL1h,2023.2.3,MacIntel,62.5,65e67470ae2fbf2172c317b2,65e87d70e4be41a1b087e7e9,,,,,,,,,,,774.952,0.9,775.851,775.851,776.418,left,1,0.554,,776.418,777.418,4,4,68,8,1,total,1,images/Ex9.jpg,left,training,hard,3,,,,,
,,,,,5cb20f2d7c917b00172dfef5,001,,,,,2024-03-06_14h28.42.889,CRL1h,2023.2.3,MacIntel,62.5,65e67470ae2fbf2172c317b2,65e87d70e4be41a1b087e7e9,,,,,,,,,,,777.419,0.8,778.218,778.218,778.951,right,1,0.726,,778.952,779.957,4,5,69,13,1,total,1,images/Ex14.jpg,right,training,hard,3,,,,,
,,,,,5cb20f2d7c917b00172dfef5,001,,,,,2024-03-06_14h28.42.889,CRL1h,2023.2.3,MacIntel,62.5,65e67470ae2fbf2172c317b2,65e87d70e4be41a1b087e7e9,,,,,,,,,,,779.958,1.1,781.051,781.051,781.651,right,1,0.59,,781.651,782.651,4,6,70,7,1,total,1,images/Ex16.jpg,right,training,hard,3,,,,,
,,,,,5cb20f2d7c917b00172dfef5,001,,,,,2024-03-06_14h28.42.889,CRL1h,2023.2.3,MacIntel,62.5,65e67470ae2fbf2172c317b2,65e87d70e4be41a1b087e7e9,,,,,,,,,,,782.652,1.4,784.052,784.052,784.685,right,1,0.623,,784.685,785.685,4,7,71,4,1,total,1,images/Ex13.jpg,right,training,hard,3,,,,,
,,,,,5cb20f2d7c917b00172dfef5,001,,,,,2024-03-06_14h28.42.889,CRL1h,2023.2.3,MacIntel,62.5,65e67470ae2fbf2172c317b2,65e87d70e4be41a1b087e7e9,,,,,,,,,,,785.686,1,786.685,786.685,787.318,left,1,0.622,,787.318,788.319,4,8,72,10,1,total,1,images/Ex11.jpg,left,training,hard,3,,,,,
,,,,,5cb20f2d7c917b00172dfef5,001,,,,,2024-03-06_14h28.42.889,CRL1h,2023.2.3,MacIntel,62.5,65e67470ae2fbf2172c317b2,65e87d70e4be41a1b087e7e9,,,,,,,,,,,788.321,1.2,789.518,789.518,790.152,left,1,0.62,,790.152,791.152,4,9,73,2,1,total,1,images/Ex11.jpg,left,training,hard,3,,,,,
,,,,,5cb20f2d7c917b00172dfef5,001,,,,,2024-03-06_14h28.42.889,CRL1h,2023.2.3,MacIntel,62.5,65e67470ae2fbf2172c317b2,65e87d70e4be41a1b087e7e9,,,,,,,,,,,791.153,1,792.152,792.152,792.769,right,1,0.611,,792.769,793.769,4,10,74,15,1,total,1,images/Ex16.jpg,right,training,hard,3,,,,,
,,,,,5cb20f2d7c917b00172dfef5,001,,,,,2024-03-06_14h28.42.889,CRL1h,2023.2.3,MacIntel,62.5,65e67470ae2fbf2172c317b2,65e87d70e4be41a1b087e7e9,,,,,,,,,,,793.77,1.2,794.968,794.969,795.618,right,1,0.638,,795.618,796.618,4,11,75,12,1,total,1,images/Ex13.jpg,right,training,hard,3,,,,,
,,,,,5cb20f2d7c917b00172dfef5,001,,,,,2024-03-06_14h28.42.889,CRL1h,2023.2.3,MacIntel,62.5,65e67470ae2fbf2172c317b2,65e87d70e4be41a1b087e7e9,,,,,,,,,,,796.619,0.6,797.218,797.218,797.852,right,1,0.623,,797.852,798.852,4,12,76,5,1,total,1,images/Ex14.jpg,right,training,hard,3,,,,,
,,,,,5cb20f2d7c917b00172dfef5,001,,,,,2024-03-06_14h28.42.889,CRL1h,2023.2.3,MacIntel,62.5,65e67470ae2fbf2172c317b2,65e87d70e4be41a1b087e7e9,,,,,,,,,,,798.853,1.3,800.152,800.152,800.752,left,1,0.588,,800.752,801.752,4,13,77,1,1,total,1,images/Ex10.jpg,left,training,hard,3,,,,,
,,,,,5cb20f2d7c917b00172dfef5,001,,,,,2024-03-06_14h28.42.889,CRL1h,2023.2.3,MacIntel,62.5,65e67470ae2fbf2172c317b2,65e87d70e4be41a1b087e7e9,,,,,,,,,,,801.753,1.4,803.152,803.152,803.852,left,1,0.688,,803.852,804.852,4,14,78,0,1,total,1,images/Ex9.jpg,left,training,hard,3,,,,,
,,,,,5cb20f2d7c917b00172dfef5,001,,,,,2024-03-06_14h28.42.889,CRL1h,2023.2.3,MacIntel,62.5,65e67470ae2fbf2172c317b2,65e87d70e4be41a1b087e7e9,,,,,,,,,,,804.853,0.6,805.452,805.452,806.102,right,1,0.638,,806.102,807.102,4,15,79,14,1,total,1,images/Ex15.jpg,right,training,hard,3,,,,,
,,,,,5cb20f2d7c917b00172dfef5,001,,,,,2024-03-06_14h28.42.889,CRL1h,2023.2.3,MacIntel,62.5,65e67470ae2fbf2172c317b2,65e87d70e4be41a1b087e7e9,,,,,,,,,,,807.103,1.1,808.202,808.202,808.835,left,1,0.628,,808.835,809.835,5,0,80,2,1,total,1,images/Ex11.jpg,left,training,hard,3,,,,,
,,,,,5cb20f2d7c917b00172dfef5,001,,,,,2024-03-06_14h28.42.889,CRL1h,2023.2.3,MacIntel,62.5,65e67470ae2fbf2172c317b2,65e87d70e4be41a1b087e7e9,,,,,,,,,,,809.836,1.3,811.135,811.135,811.735,right,1,0.586,,811.735,812.735,5,1,81,6,1,total,1,images/Ex15.jpg,right,training,hard,3,,,,,
,,,,,5cb20f2d7c917b00172dfef5,001,,,,,2024-03-06_14h28.42.889,CRL1h,2023.2.3,MacIntel,62.5,65e67470ae2fbf2172c317b2,65e87d70e4be41a1b087e7e9,,,,,,,,,,,812.736,0.8,813.535,813.535,814.168,left,1,0.624,,814.168,815.168,5,2,82,11,1,total,1,images/Ex12.jpg,left,training,hard,3,,,,,
,,,,,5cb20f2d7c917b00172dfef5,001,,,,,2024-03-06_14h28.42.889,CRL1h,2023.2.3,MacIntel,62.5,65e67470ae2fbf2172c317b2,65e87d70e4be41a1b087e7e9,,,,,,,,,,,815.169,1.1,816.268,816.268,816.852,right,1,0.572,,816.852,817.852,5,3,83,12,1,total,1,images/Ex13.jpg,right,training,hard,3,,,,,
,,,,,5cb20f2d7c917b00172dfef5,001,,,,,2024-03-06_14h28.42.889,CRL1h,2023.2.3,MacIntel,62.5,65e67470ae2fbf2172c317b2,65e87d70e4be41a1b087e7e9,,,,,,,,,,,817.853,1.2,819.052,819.052,819.635,left,1,0.572,,819.635,820.635,5,4,84,1,1,total,1,images/Ex10.jpg,left,training,hard,3,,,,,
,,,,,5cb20f2d7c917b00172dfef5,001,,,,,2024-03-06_14h28.42.889,CRL1h,2023.2.3,MacIntel,62.5,65e67470ae2fbf2172c317b2,65e87d70e4be41a1b087e7e9,,,,,,,,,,,820.636,0.6,821.235,821.235,821.785,left,1,0.539,,821.785,822.785,5,5,85,8,1,total,1,images/Ex9.jpg,left,training,hard,3,,,,,
,,,,,5cb20f2d7c917b00172dfef5,001,,,,,2024-03-06_14h28.42.889,CRL1h,2023.2.3,MacIntel,62.5,65e67470ae2fbf2172c317b2,65e87d70e4be41a1b087e7e9,,,,,,,,,,,822.786,0.6,823.385,823.385,823.935,right,1,0.547,,823.935,824.935,5,6,86,5,1,total,1,images/Ex14.jpg,right,training,hard,3,,,,,
,,,,,5cb20f2d7c917b00172dfef5,001,,,,,2024-03-06_14h28.42.889,CRL1h,2023.2.3,MacIntel,62.5,65e67470ae2fbf2172c317b2,65e87d70e4be41a1b087e7e9,,,,,,,,,,,824.936,1.1,826.035,826.036,826.552,right,1,0.506,,826.552,827.552,5,7,87,13,1,total,1,images/Ex14.jpg,right,training,hard,3,,,,,
,,,,,5cb20f2d7c917b00172dfef5,001,,,,,2024-03-06_14h28.42.889,CRL1h,2023.2.3,MacIntel,62.5,65e67470ae2fbf2172c317b2,65e87d70e4be41a1b087e7e9,,,,,,,,,,,827.554,1.4,828.952,828.952,829.519,left,1,0.556,,829.519,830.519,5,8,88,0,1,total,1,images/Ex9.jpg,left,training,hard,3,,,,,
,,,,,5cb20f2d7c917b00172dfef5,001,,,,,2024-03-06_14h28.42.889,CRL1h,2023.2.3,MacIntel,62.5,65e67470ae2fbf2172c317b2,65e87d70e4be41a1b087e7e9,,,,,,,,,,,830.52,1,831.519,831.519,832.102,right,1,0.571,,832.102,833.102,5,9,89,4,1,total,1,images/Ex13.jpg,right,training,hard,3,,,,,
,,,,,5cb20f2d7c917b00172dfef5,001,,,,,2024-03-06_14h28.42.889,CRL1h,2023.2.3,MacIntel,62.5,65e67470ae2fbf2172c317b2,65e87d70e4be41a1b087e7e9,,,,,,,,,,,833.103,0.9,834.002,834.002,834.685,left,1,0.672,,834.685,835.685,5,10,90,10,1,total,1,images/Ex11.jpg,left,training,hard,3,,,,,
,,,,,5cb20f2d7c917b00172dfef5,001,,,,,2024-03-06_14h28.42.889,CRL1h,2023.2.3,MacIntel,62.5,65e67470ae2fbf2172c317b2,65e87d70e4be41a1b087e7e9,,,,,,,,,,,835.687,1,836.685,836.685,837.318,right,1,0.628,,837.318,838.319,5,11,91,14,1,total,1,images/Ex15.jpg,right,training,hard,3,,,,,
,,,,,5cb20f2d7c917b00172dfef5,001,,,,,2024-03-06_14h28.42.889,CRL1h,2023.2.3,MacIntel,62.5,65e67470ae2fbf2172c317b2,65e87d70e4be41a1b087e7e9,,,,,,,,,,,838.319,0.7,839.019,839.019,839.585,left,1,0.556,,839.585,840.585,5,12,92,3,1,total,1,images/Ex12.jpg,left,training,hard,3,,,,,
,,,,,5cb20f2d7c917b00172dfef5,001,,,,,2024-03-06_14h28.42.889,CRL1h,2023.2.3,MacIntel,62.5,65e67470ae2fbf2172c317b2,65e87d70e4be41a1b087e7e9,,,,,,,,,,,840.586,1.2,841.784,841.785,842.369,right,1,0.571,,842.369,843.369,5,13,93,15,1,total,1,images/Ex16.jpg,right,training,hard,3,,,,,
,,,,,5cb20f2d7c917b00172dfef5,001,,,,,2024-03-06_14h28.42.889,CRL1h,2023.2.3,MacIntel,62.5,65e67470ae2fbf2172c317b2,65e87d70e4be41a1b087e7e9,,,,,,,,,,,843.369,1.4,844.769,844.769,845.419,left,1,0.637,,845.419,846.419,5,14,94,9,1,total,1,images/Ex10.jpg,left,training,hard,3,,,,,
,,,,,5cb20f2d7c917b00172dfef5,001,,,,,2024-03-06_14h28.42.889,CRL1h,2023.2.3,MacIntel,62.5,65e67470ae2fbf2172c317b2,65e87d70e4be41a1b087e7e9,,,,,,,,,,,846.42,1,847.419,847.419,847.935,right,1,0.505,,847.935,848.935,5,15,95,7,1,total,1,images/Ex16.jpg,right,training,hard,3,,,,,
,,,,,5cb20f2d7c917b00172dfef5,001,,,,,2024-03-06_14h28.42.889,CRL1h,2023.2.3,MacIntel,62.5,65e67470ae2fbf2172c317b2,65e87d70e4be41a1b087e7e9,,,,,,,,,,,848.936,0.7,849.635,849.636,850.185,left,1,0.54,,850.185,851.185,6,0,96,10,1,total,1,images/Ex11.jpg,left,training,hard,3,,,,,
,,,,,5cb20f2d7c917b00172dfef5,001,,,,,2024-03-06_14h28.42.889,CRL1h,2023.2.3,MacIntel,62.5,65e67470ae2fbf2172c317b2,65e87d70e4be41a1b087e7e9,,,,,,,,,,,851.186,0.7,851.884,851.884,852.485,right,1,0.594,,852.485,853.485,6,1,97,14,1,total,1,images/Ex15.jpg,right,training,hard,3,,,,,
,,,,,5cb20f2d7c917b00172dfef5,001,,,,,2024-03-06_14h28.42.889,CRL1h,2023.2.3,MacIntel,62.5,65e67470ae2fbf2172c317b2,65e87d70e4be41a1b087e7e9,,,,,,,,,,,853.486,0.8,854.285,854.285,854.869,right,1,0.572,,854.869,855.868,6,2,98,7,1,total,1,images/Ex16.jpg,right,training,hard,3,,,,,
,,,,,5cb20f2d7c917b00172dfef5,001,,,,,2024-03-06_14h28.42.889,CRL1h,2023.2.3,MacIntel,62.5,65e67470ae2fbf2172c317b2,65e87d70e4be41a1b087e7e9,,,,,,,,,,,855.869,1,856.869,856.869,857.452,right,1,0.573,,857.452,858.452,6,3,99,12,1,total,1,images/Ex13.jpg,right,training,hard,3,,,,,
,,,,,5cb20f2d7c917b00172dfef5,001,,,,,2024-03-06_14h28.42.889,CRL1h,2023.2.3,MacIntel,62.5,65e67470ae2fbf2172c317b2,65e87d70e4be41a1b087e7e9,,,,,,,,,,,858.453,1.2,859.652,859.652,860.268,left,1,0.606,,860.269,861.269,6,4,100,0,1,total,1,images/Ex9.jpg,left,training,hard,3,,,,,
,,,,,5cb20f2d7c917b00172dfef5,001,,,,,2024-03-06_14h28.42.889,CRL1h,2023.2.3,MacIntel,62.5,65e67470ae2fbf2172c317b2,65e87d70e4be41a1b087e7e9,,,,,,,,,,,861.271,1.4,862.669,862.669,863.236,right,1,0.555,,863.236,864.235,6,5,101,5,1,total,1,images/Ex14.jpg,right,training,hard,3,,,,,
,,,,,5cb20f2d7c917b00172dfef5,001,,,,,2024-03-06_14h28.42.889,CRL1h,2023.2.3,MacIntel,62.5,65e67470ae2fbf2172c317b2,65e87d70e4be41a1b087e7e9,,,,,,,,,,,864.237,0.5,864.736,864.736,865.402,left,1,0.657,,865.402,866.402,6,6,102,11,1,total,1,images/Ex12.jpg,left,training,hard,3,,,,,
,,,,,5cb20f2d7c917b00172dfef5,001,,,,,2024-03-06_14h28.42.889,CRL1h,2023.2.3,MacIntel,62.5,65e67470ae2fbf2172c317b2,65e87d70e4be41a1b087e7e9,,,,,,,,,,,866.403,0.6,867.002,867.002,867.569,right,1,0.553,,867.569,868.569,6,7,103,4,1,total,1,images/Ex13.jpg,right,training,hard,3,,,,,
,,,,,5cb20f2d7c917b00172dfef5,001,,,,,2024-03-06_14h28.42.889,CRL1h,2023.2.3,MacIntel,62.5,65e67470ae2fbf2172c317b2,65e87d70e4be41a1b087e7e9,,,,,,,,,,,868.57,0.5,869.069,869.069,869.919,left,1,0.84,,869.919,870.919,6,8,104,1,1,total,1,images/Ex10.jpg,left,training,hard,3,,,,,
,,,,,5cb20f2d7c917b00172dfef5,001,,,,,2024-03-06_14h28.42.889,CRL1h,2023.2.3,MacIntel,62.5,65e67470ae2fbf2172c317b2,65e87d70e4be41a1b087e7e9,,,,,,,,,,,870.92,0.7,871.619,871.62,872.135,right,1,0.506,,872.136,873.136,6,9,105,15,1,total,1,images/Ex16.jpg,right,training,hard,3,,,,,
,,,,,5cb20f2d7c917b00172dfef5,001,,,,,2024-03-06_14h28.42.889,CRL1h,2023.2.3,MacIntel,62.5,65e67470ae2fbf2172c317b2,65e87d70e4be41a1b087e7e9,,,,,,,,,,,873.136,1,874.136,874.136,874.785,left,1,0.642,,874.785,875.786,6,10,106,3,1,total,1,images/Ex12.jpg,left,training,hard,3,,,,,
,,,,,5cb20f2d7c917b00172dfef5,001,,,,,2024-03-06_14h28.42.889,CRL1h,2023.2.3,MacIntel,62.5,65e67470ae2fbf2172c317b2,65e87d70e4be41a1b087e7e9,,,,,,,,,,,875.787,0.8,876.586,876.586,877.219,left,1,0.628,,877.219,878.219,6,11,107,2,1,total,1,images/Ex11.jpg,left,training,hard,3,,,,,
,,,,,5cb20f2d7c917b00172dfef5,001,,,,,2024-03-06_14h28.42.889,CRL1h,2023.2.3,MacIntel,62.5,65e67470ae2fbf2172c317b2,65e87d70e4be41a1b087e7e9,,,,,,,,,,,878.22,0.6,878.819,878.819,879.402,left,1,0.57,,879.403,880.402,6,12,108,8,1,total,1,images/Ex9.jpg,left,training,hard,3,,,,,
,,,,,5cb20f2d7c917b00172dfef5,001,,,,,2024-03-06_14h28.42.889,CRL1h,2023.2.3,MacIntel,62.5,65e67470ae2fbf2172c317b2,65e87d70e4be41a1b087e7e9,,,,,,,,,,,880.403,0.8,881.202,881.202,881.769,right,1,0.561,,881.769,882.769,6,13,109,13,1,total,1,images/Ex14.jpg,right,training,hard,3,,,,,
,,,,,5cb20f2d7c917b00172dfef5,001,,,,,2024-03-06_14h28.42.889,CRL1h,2023.2.3,MacIntel,62.5,65e67470ae2fbf2172c317b2,65e87d70e4be41a1b087e7e9,,,,,,,,,,,882.77,0.8,883.569,883.569,884.269,right,1,0.689,,884.269,885.27,6,14,110,6,1,total,1,images/Ex15.jpg,right,training,hard,3,,,,,
,,,,,5cb20f2d7c917b00172dfef5,001,,,,,2024-03-06_14h28.42.889,CRL1h,2023.2.3,MacIntel,62.5,65e67470ae2fbf2172c317b2,65e87d70e4be41a1b087e7e9,,,,,,,,,,,885.271,1.2,886.469,886.469,887.119,left,1,0.639,,887.119,888.119,6,15,111,9,1,total,1,images/Ex10.jpg,left,training,hard,3,,,,,
,,,,,5cb20f2d7c917b00172dfef5,001,,,,,2024-03-06_14h28.42.889,CRL1h,2023.2.3,MacIntel,62.5,65e67470ae2fbf2172c317b2,65e87d70e4be41a1b087e7e9,,,,,,,,,,,888.12,0.8,888.919,888.919,889.735,right,1,0.81,,889.735,890.736,7,0,112,4,1,total,1,images/Ex13.jpg,right,training,hard,3,,,,,
,,,,,5cb20f2d7c917b00172dfef5,001,,,,,2024-03-06_14h28.42.889,CRL1h,2023.2.3,MacIntel,62.5,65e67470ae2fbf2172c317b2,65e87d70e4be41a1b087e7e9,,,,,,,,,,,890.737,1.4,892.136,892.136,892.686,left,1,0.544,,892.686,893.686,7,1,113,1,1,total,1,images/Ex10.jpg,left,training,hard,3,,,,,
,,,,,5cb20f2d7c917b00172dfef5,001,,,,,2024-03-06_14h28.42.889,CRL1h,2023.2.3,MacIntel,62.5,65e67470ae2fbf2172c317b2,65e87d70e4be41a1b087e7e9,,,,,,,,,,,893.687,1.3,894.986,894.986,895.619,left,1,0.622,,895.619,896.618,7,2,114,2,1,total,1,images/Ex11.jpg,left,training,hard,3,,,,,
,,,,,5cb20f2d7c917b00172dfef5,001,,,,,2024-03-06_14h28.42.889,CRL1h,2023.2.3,MacIntel,62.5,65e67470ae2fbf2172c317b2,65e87d70e4be41a1b087e7e9,,,,,,,,,,,896.619,0.6,897.219,897.219,897.852,right,1,0.623,,897.852,898.851,7,3,115,15,1,total,1,images/Ex16.jpg,right,training,hard,3,,,,,
,,,,,5cb20f2d7c917b00172dfef5,001,,,,,2024-03-06_14h28.42.889,CRL1h,2023.2.3,MacIntel,62.5,65e67470ae2fbf2172c317b2,65e87d70e4be41a1b087e7e9,,,,,,,,,,,898.852,0.7,899.551,899.552,900.136,left,1,0.577,,900.136,901.136,7,4,116,9,1,total,1,images/Ex10.jpg,left,training,hard,3,,,,,
,,,,,5cb20f2d7c917b00172dfef5,001,,,,,2024-03-06_14h28.42.889,CRL1h,2023.2.3,MacIntel,62.5,65e67470ae2fbf2172c317b2,65e87d70e4be41a1b087e7e9,,,,,,,,,,,901.137,1,902.136,902.137,902.736,right,1,0.584,,902.736,903.736,7,5,117,6,1,total,1,images/Ex15.jpg,right,training,hard,3,,,,,
,,,,,5cb20f2d7c917b00172dfef5,001,,,,,2024-03-06_14h28.42.889,CRL1h,2023.2.3,MacIntel,62.5,65e67470ae2fbf2172c317b2,65e87d70e4be41a1b087e7e9,,,,,,,,,,,903.738,0.9,904.636,904.636,905.286,right,1,0.641,,905.286,906.286,7,6,118,12,1,total,1,images/Ex13.jpg,right,training,hard,3,,,,,
,,,,,5cb20f2d7c917b00172dfef5,001,,,,,2024-03-06_14h28.42.889,CRL1h,2023.2.3,MacIntel,62.5,65e67470ae2fbf2172c317b2,65e87d70e4be41a1b087e7e9,,,,,,,,,,,906.287,0.9,907.185,907.185,907.802,left,1,0.61,,907.803,908.803,7,7,119,8,1,total,1,images/Ex9.jpg,left,training,hard,3,,,,,
,,,,,5cb20f2d7c917b00172dfef5,001,,,,,2024-03-06_14h28.42.889,CRL1h,2023.2.3,MacIntel,62.5,65e67470ae2fbf2172c317b2,65e87d70e4be41a1b087e7e9,,,,,,,,,,,908.804,1.2,910.002,910.003,910.586,right,1,0.572,,910.586,911.586,7,8,120,14,1,total,1,images/Ex15.jpg,right,training,hard,3,,,,,
,,,,,5cb20f2d7c917b00172dfef5,001,,,,,2024-03-06_14h28.42.889,CRL1h,2023.2.3,MacIntel,62.5,65e67470ae2fbf2172c317b2,65e87d70e4be41a1b087e7e9,,,,,,,,,,,911.587,0.8,912.386,912.386,913.019,right,1,0.621,,913.019,914.019,7,9,121,7,1,total,1,images/Ex16.jpg,right,training,hard,3,,,,,
,,,,,5cb20f2d7c917b00172dfef5,001,,,,,2024-03-06_14h28.42.889,CRL1h,2023.2.3,MacIntel,62.5,65e67470ae2fbf2172c317b2,65e87d70e4be41a1b087e7e9,,,,,,,,,,,914.02,0.8,914.819,914.819,915.435,left,1,0.606,,915.435,916.436,7,10,122,10,1,total,1,images/Ex11.jpg,left,training,hard,3,,,,,
,,,,,5cb20f2d7c917b00172dfef5,001,,,,,2024-03-06_14h28.42.889,CRL1h,2023.2.3,MacIntel,62.5,65e67470ae2fbf2172c317b2,65e87d70e4be41a1b087e7e9,,,,,,,,,,,916.437,0.7,917.136,917.136,917.752,right,1,0.605,,917.753,918.752,7,11,123,13,1,total,1,images/Ex14.jpg,right,training,hard,3,,,,,
,,,,,5cb20f2d7c917b00172dfef5,001,,,,,2024-03-06_14h28.42.889,CRL1h,2023.2.3,MacIntel,62.5,65e67470ae2fbf2172c317b2,65e87d70e4be41a1b087e7e9,,,,,,,,,,,918.753,1.3,920.053,920.053,920.686,right,1,0.623,,920.686,921.686,7,12,124,5,1,total,1,images/Ex14.jpg,right,training,hard,3,,,,,
,,,,,5cb20f2d7c917b00172dfef5,001,,,,,2024-03-06_14h28.42.889,CRL1h,2023.2.3,MacIntel,62.5,65e67470ae2fbf2172c317b2,65e87d70e4be41a1b087e7e9,,,,,,,,,,,921.687,1.4,923.086,923.086,923.802,left,1,0.707,,923.803,924.803,7,13,125,11,1,total,1,images/Ex12.jpg,left,training,hard,3,,,,,
,,,,,5cb20f2d7c917b00172dfef5,001,,,,,2024-03-06_14h28.42.889,CRL1h,2023.2.3,MacIntel,62.5,65e67470ae2fbf2172c317b2,65e87d70e4be41a1b087e7e9,,,,,,,,,,,924.803,1.3,926.103,926.103,926.586,left,1,0.472,,926.586,927.585,7,14,126,3,1,total,1,images/Ex12.jpg,left,training,hard,3,,,,,
,,,,,5cb20f2d7c917b00172dfef5,001,,,,,2024-03-06_14h28.42.889,CRL1h,2023.2.3,MacIntel,62.5,65e67470ae2fbf2172c317b2,65e87d70e4be41a1b087e7e9,,,,,,,,,,,927.586,0.8,928.386,928.386,928.952,left,1,0.558,,928.952,929.952,7,15,127,0,1,total,1,images/Ex9.jpg,left,training,hard,3,,,,,
,,,,,5cb20f2d7c917b00172dfef5,001,,,,,2024-03-06_14h28.42.889,CRL1h,2023.2.3,MacIntel,62.5,65e67470ae2fbf2172c317b2,65e87d70e4be41a1b087e7e9,,,,,,,,,,,929.959,1.2,931.153,931.153,931.653,left,0,0.488,,931.653,932.653,0,0,0,2,1,total,2,images/Ex11.jpg,right,reversed,hard,3,,,,,
,,,,,5cb20f2d7c917b00172dfef5,001,,,,,2024-03-06_14h28.42.889,CRL1h,2023.2.3,MacIntel,62.5,65e67470ae2fbf2172c317b2,65e87d70e4be41a1b087e7e9,,,,,,,,,,,932.654,1.3,933.953,933.953,935.186,right,0,1.223,,935.186,936.186,0,1,1,13,1,total,2,images/Ex14.jpg,left,reversed,hard,3,,,,,
,,,,,5cb20f2d7c917b00172dfef5,001,,,,,2024-03-06_14h28.42.889,CRL1h,2023.2.3,MacIntel,62.5,65e67470ae2fbf2172c317b2,65e87d70e4be41a1b087e7e9,,,,,,,,,,,936.187,1.4,937.586,937.586,938.386,left,0,0.79,,938.386,939.386,0,2,2,8,1,total,2,images/Ex9.jpg,right,reversed,hard,3,,,,,
,,,,,5cb20f2d7c917b00172dfef5,001,,,,,2024-03-06_14h28.42.889,CRL1h,2023.2.3,MacIntel,62.5,65e67470ae2fbf2172c317b2,65e87d70e4be41a1b087e7e9,,,,,,,,,,,939.387,1.5,940.886,940.886,941.687,left,0,0.787,,941.687,942.686,0,3,3,1,1,total,2,images/Ex10.jpg,right,reversed,hard,3,,,,,
,,,,,5cb20f2d7c917b00172dfef5,001,,,,,2024-03-06_14h28.42.889,CRL1h,2023.2.3,MacIntel,62.5,65e67470ae2fbf2172c317b2,65e87d70e4be41a1b087e7e9,,,,,,,,,,,942.689,1.3,943.987,943.987,944.82,left,1,0.821,,944.82,945.819,0,4,4,5,1,total,2,images/Ex14.jpg,left,reversed,hard,3,,,,,
,,,,,5cb20f2d7c917b00172dfef5,001,,,,,2024-03-06_14h28.42.889,CRL1h,2023.2.3,MacIntel,62.5,65e67470ae2fbf2172c317b2,65e87d70e4be41a1b087e7e9,,,,,,,,,,,945.821,1.1,946.92,946.92,947.769,left,1,0.836,,947.77,948.77,0,5,5,15,1,total,2,images/Ex16.jpg,left,reversed,hard,3,,,,,
,,,,,5cb20f2d7c917b00172dfef5,001,,,,,2024-03-06_14h28.42.889,CRL1h,2023.2.3,MacIntel,62.5,65e67470ae2fbf2172c317b2,65e87d70e4be41a1b087e7e9,,,,,,,,,,,948.771,1.4,950.17,950.17,950.886,right,1,0.703,,950.886,951.886,0,6,6,3,1,total,2,images/Ex12.jpg,right,reversed,hard,3,,,,,
,,,,,5cb20f2d7c917b00172dfef5,001,,,,,2024-03-06_14h28.42.889,CRL1h,2023.2.3,MacIntel,62.5,65e67470ae2fbf2172c317b2,65e87d70e4be41a1b087e7e9,,,,,,,,,,,951.887,1.3,953.186,953.186,953.938,left,1,0.74,,953.938,954.936,0,7,7,6,1,total,2,images/Ex15.jpg,left,reversed,hard,3,,,,,
,,,,,5cb20f2d7c917b00172dfef5,001,,,,,2024-03-06_14h28.42.889,CRL1h,2023.2.3,MacIntel,62.5,65e67470ae2fbf2172c317b2,65e87d70e4be41a1b087e7e9,,,,,,,,,,,954.937,1.5,956.436,956.436,957.253,right,1,0.804,,957.253,958.253,0,8,8,9,1,total,2,images/Ex10.jpg,right,reversed,hard,3,,,,,
,,,,,5cb20f2d7c917b00172dfef5,001,,,,,2024-03-06_14h28.42.889,CRL1h,2023.2.3,MacIntel,62.5,65e67470ae2fbf2172c317b2,65e87d70e4be41a1b087e7e9,,,,,,,,,,,958.254,0.9,959.153,959.153,959.936,left,1,0.772,,959.936,960.936,0,9,9,12,1,total,2,images/Ex13.jpg,left,reversed,hard,3,,,,,
,,,,,5cb20f2d7c917b00172dfef5,001,,,,,2024-03-06_14h28.42.889,CRL1h,2023.2.3,MacIntel,62.5,65e67470ae2fbf2172c317b2,65e87d70e4be41a1b087e7e9,,,,,,,,,,,960.937,1.4,962.336,962.336,963.07,left,1,0.719,,963.07,964.07,0,10,10,7,1,total,2,images/Ex16.jpg,left,reversed,hard,3,,,,,
,,,,,5cb20f2d7c917b00172dfef5,001,,,,,2024-03-06_14h28.42.889,CRL1h,2023.2.3,MacIntel,62.5,65e67470ae2fbf2172c317b2,65e87d70e4be41a1b087e7e9,,,,,,,,,,,964.071,1.2,965.27,965.27,965.836,right,1,0.559,,965.836,966.836,0,11,11,10,1,total,2,images/Ex11.jpg,right,reversed,hard,3,,,,,
,,,,,5cb20f2d7c917b00172dfef5,001,,,,,2024-03-06_14h28.42.889,CRL1h,2023.2.3,MacIntel,62.5,65e67470ae2fbf2172c317b2,65e87d70e4be41a1b087e7e9,,,,,,,,,,,966.837,1.5,968.336,968.336,968.953,right,1,0.606,,968.953,969.953,0,12,12,0,1,total,2,images/Ex9.jpg,right,reversed,hard,3,,,,,
,,,,,5cb20f2d7c917b00172dfef5,001,,,,,2024-03-06_14h28.42.889,CRL1h,2023.2.3,MacIntel,62.5,65e67470ae2fbf2172c317b2,65e87d70e4be41a1b087e7e9,,,,,,,,,,,969.954,1.4,971.353,971.353,971.936,right,1,0.573,,971.936,972.936,0,13,13,11,1,total,2,images/Ex12.jpg,right,reversed,hard,3,,,,,
,,,,,5cb20f2d7c917b00172dfef5,001,,,,,2024-03-06_14h28.42.889,CRL1h,2023.2.3,MacIntel,62.5,65e67470ae2fbf2172c317b2,65e87d70e4be41a1b087e7e9,,,,,,,,,,,972.937,0.7,973.636,973.636,974.436,left,1,0.79,,974.436,975.436,0,14,14,14,1,total,2,images/Ex15.jpg,left,reversed,hard,3,,,,,
,,,,,5cb20f2d7c917b00172dfef5,001,,,,,2024-03-06_14h28.42.889,CRL1h,2023.2.3,MacIntel,62.5,65e67470ae2fbf2172c317b2,65e87d70e4be41a1b087e7e9,,,,,,,,,,,975.437,0.6,976.036,976.036,976.786,left,1,0.739,,976.786,977.786,0,15,15,4,1,total,2,images/Ex13.jpg,left,reversed,hard,3,,,,,
,,,,,5cb20f2d7c917b00172dfef5,001,,,,,2024-03-06_14h28.42.889,CRL1h,2023.2.3,MacIntel,62.5,65e67470ae2fbf2172c317b2,65e87d70e4be41a1b087e7e9,,,,,,,,,,,977.787,0.6,978.386,978.386,979.203,left,1,0.811,,979.203,980.203,1,0,16,14,1,total,2,images/Ex15.jpg,left,reversed,hard,3,,,,,
,,,,,5cb20f2d7c917b00172dfef5,001,,,,,2024-03-06_14h28.42.889,CRL1h,2023.2.3,MacIntel,62.5,65e67470ae2fbf2172c317b2,65e87d70e4be41a1b087e7e9,,,,,,,,,,,980.204,1.1,981.303,981.303,981.82,right,1,0.504,,981.82,982.82,1,1,17,2,1,total,2,images/Ex11.jpg,right,reversed,hard,3,,,,,
,,,,,5cb20f2d7c917b00172dfef5,001,,,,,2024-03-06_14h28.42.889,CRL1h,2023.2.3,MacIntel,62.5,65e67470ae2fbf2172c317b2,65e87d70e4be41a1b087e7e9,,,,,,,,,,,982.823,0.9,983.719,983.719,984.32,left,1,0.585,,984.32,985.32,1,2,18,12,1,total,2,images/Ex13.jpg,left,reversed,hard,3,,,,,
,,,,,5cb20f2d7c917b00172dfef5,001,,,,,2024-03-06_14h28.42.889,CRL1h,2023.2.3,MacIntel,62.5,65e67470ae2fbf2172c317b2,65e87d70e4be41a1b087e7e9,,,,,,,,,,,985.321,1.5,986.82,986.82,987.37,right,1,0.539,,987.37,988.37,1,3,19,3,1,total,2,images/Ex12.jpg,right,reversed,hard,3,,,,,
,,,,,5cb20f2d7c917b00172dfef5,001,,,,,2024-03-06_14h28.42.889,CRL1h,2023.2.3,MacIntel,62.5,65e67470ae2fbf2172c317b2,65e87d70e4be41a1b087e7e9,,,,,,,,,,,988.371,0.8,989.17,989.17,989.87,left,1,0.691,,989.87,990.87,1,4,20,6,1,total,2,images/Ex15.jpg,left,reversed,hard,3,,,,,
,,,,,5cb20f2d7c917b00172dfef5,001,,,,,2024-03-06_14h28.42.889,CRL1h,2023.2.3,MacIntel,62.5,65e67470ae2fbf2172c317b2,65e87d70e4be41a1b087e7e9,,,,,,,,,,,990.871,1.5,992.37,992.37,993.037,left,1,0.66,,993.037,994.037,1,5,21,13,1,total,2,images/Ex14.jpg,left,reversed,hard,3,,,,,
,,,,,5cb20f2d7c917b00172dfef5,001,,,,,2024-03-06_14h28.42.889,CRL1h,2023.2.3,MacIntel,62.5,65e67470ae2fbf2172c317b2,65e87d70e4be41a1b087e7e9,,,,,,,,,,,994.037,0.9,994.936,994.937,995.503,right,1,0.554,,995.503,996.503,1,6,22,0,1,total,2,images/Ex9.jpg,right,reversed,hard,3,,,,,
,,,,,5cb20f2d7c917b00172dfef5,001,,,,,2024-03-06_14h28.42.889,CRL1h,2023.2.3,MacIntel,62.5,65e67470ae2fbf2172c317b2,65e87d70e4be41a1b087e7e9,,,,,,,,,,,996.504,0.8,997.303,997.303,997.903,right,1,0.589,,997.903,998.903,1,7,23,10,1,total,2,images/Ex11.jpg,right,reversed,hard,3,,,,,
,,,,,5cb20f2d7c917b00172dfef5,001,,,,,2024-03-06_14h28.42.889,CRL1h,2023.2.3,MacIntel,62.5,65e67470ae2fbf2172c317b2,65e87d70e4be41a1b087e7e9,,,,,,,,,,,998.904,1,999.903,999.903,1000.486,left,1,0.576,,1000.486,1001.487,1,8,24,4,1,total,2,images/Ex13.jpg,left,reversed,hard,3,,,,,
,,,,,5cb20f2d7c917b00172dfef5,001,,,,,2024-03-06_14h28.42.889,CRL1h,2023.2.3,MacIntel,62.5,65e67470ae2fbf2172c317b2,65e87d70e4be41a1b087e7e9,,,,,,,,,,,1001.488,0.5,1001.987,1001.987,1002.72,left,1,0.724,,1002.72,1003.72,1,9,25,5,1,total,2,images/Ex14.jpg,left,reversed,hard,3,,,,,
,,,,,5cb20f2d7c917b00172dfef5,001,,,,,2024-03-06_14h28.42.889,CRL1h,2023.2.3,MacIntel,62.5,65e67470ae2fbf2172c317b2,65e87d70e4be41a1b087e7e9,,,,,,,,,,,1003.721,1.3,1005.02,1005.02,1005.836,right,1,0.812,,1005.837,1006.836,1,10,26,1,1,total,2,images/Ex10.jpg,right,reversed,hard,3,,,,,
,,,,,5cb20f2d7c917b00172dfef5,001,,,,,2024-03-06_14h28.42.889,CRL1h,2023.2.3,MacIntel,62.5,65e67470ae2fbf2172c317b2,65e87d70e4be41a1b087e7e9,,,,,,,,,,,1006.837,1.2,1008.036,1008.036,1008.636,right,1,0.589,,1008.637,1009.637,1,11,27,9,1,total,2,images/Ex10.jpg,right,reversed,hard,3,,,,,
,,,,,5cb20f2d7c917b00172dfef5,001,,,,,2024-03-06_14h28.42.889,CRL1h,2023.2.3,MacIntel,62.5,65e67470ae2fbf2172c317b2,65e87d70e4be41a1b087e7e9,,,,,,,,,,,1009.637,0.9,1010.537,1010.537,1011.069,right,1,0.522,,1011.069,1012.071,1,12,28,11,1,total,2,images/Ex12.jpg,right,reversed,hard,3,,,,,
,,,,,5cb20f2d7c917b00172dfef5,001,,,,,2024-03-06_14h28.42.889,CRL1h,2023.2.3,MacIntel,62.5,65e67470ae2fbf2172c317b2,65e87d70e4be41a1b087e7e9,,,,,,,,,,,1012.071,0.8,1012.87,1012.87,1013.637,left,1,0.757,,1013.637,1014.636,1,13,29,15,1,total,2,images/Ex16.jpg,left,reversed,hard,3,,,,,
,,,,,5cb20f2d7c917b00172dfef5,001,,,,,2024-03-06_14h28.42.889,CRL1h,2023.2.3,MacIntel,62.5,65e67470ae2fbf2172c317b2,65e87d70e4be41a1b087e7e9,,,,,,,,,,,1014.637,1.3,1015.937,1015.937,1016.452,left,1,0.51,,1016.453,1017.453,1,14,30,7,1,total,2,images/Ex16.jpg,left,reversed,hard,3,,,,,
,,,,,5cb20f2d7c917b00172dfef5,001,,,,,2024-03-06_14h28.42.889,CRL1h,2023.2.3,MacIntel,62.5,65e67470ae2fbf2172c317b2,65e87d70e4be41a1b087e7e9,,,,,,,,,,,1017.454,0.6,1018.053,1018.053,1018.653,right,1,0.587,,1018.654,1019.653,1,15,31,8,1,total,2,images/Ex9.jpg,right,reversed,hard,3,,,,,
,,,,,5cb20f2d7c917b00172dfef5,001,,,,,2024-03-06_14h28.42.889,CRL1h,2023.2.3,MacIntel,62.5,65e67470ae2fbf2172c317b2,65e87d70e4be41a1b087e7e9,,,,,,,,,,,1019.654,0.7,1020.353,1020.353,1020.886,right,1,0.521,,1020.886,1021.887,2,0,32,2,1,total,2,images/Ex11.jpg,right,reversed,hard,3,,,,,
