infCons.started,infCons.stopped,resp_consent.keys,resp_consent.rt,resp_consent.duration,participant,session,Age?,Gender?,Nationality?,Highest Educational Degree?,date,expName,psychopyVersion,OS,frameRate,STUDY_ID,SESSION_ID,instructions.started,instructions.stopped,resp_instructions.keys,resp_instructions.rt,resp_instructions.duration,nextTask.started,nextTask.stopped,ready_task.keys,ready_task.rt,ready_task.duration,fixation.started,ITI,fixation.stopped,stim.started,stim.stopped,response.keys,response.corr,response.rt,response.duration,feedback.started,feedback.stopped,trials.thisRepN,trials.thisTrialN,trials.thisN,trials.thisIndex,trials.ran,task,phase,Exemplars,r_correct,condition,difficulty,set,end.started,end.stopped,resp_end.keys,resp_end.rt,resp_end.duration
1E-04,11.7548,space,11.7262,,5ec702d5d810c61532066427,001,32,female,british,college diploma,2024-03-05_22h21.58.117,CRL1h,2023.2.3,MacIntel,57.14285714,65e67470ae2fbf2172c317b2,65e79a9992c5dc8b5911a62d,,,,,,,,,,,,,,,,,,,,,,,,,,,,,,,,,,,,,,
,,,,,5ec702d5d810c61532066427,001,32,female,british,college diploma,2024-03-05_22h21.58.117,CRL1h,2023.2.3,MacIntel,57.14285714,65e67470ae2fbf2172c317b2,65e79a9992c5dc8b5911a62d,11.7551,43.6185,space,31.8433,,,,,,,,,,,,,,,,,,,,,,,,,,,,,,,,,,
,,,,,5ec702d5d810c61532066427,001,32,female,british,college diploma,2024-03-05_22h21.58.117,CRL1h,2023.2.3,MacIntel,57.14285714,65e67470ae2fbf2172c317b2,65e79a9992c5dc8b5911a62d,,,,,,43.6286,46.9021,space,3.2475,,46.9055,0.8,47.7019,47.7021,52.052,left,0,4.3395,,52.0605,53.0531,0,0,0,4,1,partial,1,images/Ex13.jpg,right,training,hard,1,,,,,
,,,,,5ec702d5d810c61532066427,001,32,female,british,college diploma,2024-03-05_22h21.58.117,CRL1h,2023.2.3,MacIntel,57.14285714,65e67470ae2fbf2172c317b2,65e79a9992c5dc8b5911a62d,,,,,,,,,,,53.054,1.3,54.3529,54.3529,55.9185,left,0,1.5639,,55.9185,56.9196,0,1,1,14,1,partial,1,images/Ex15.jpg,right,training,hard,1,,,,,
,,,,,5ec702d5d810c61532066427,001,32,female,british,college diploma,2024-03-05_22h21.58.117,CRL1h,2023.2.3,MacIntel,57.14285714,65e67470ae2fbf2172c317b2,65e79a9992c5dc8b5911a62d,,,,,,,,,,,56.9203,1.2,58.1194,58.1195,59.3861,right,1,1.2621,,59.3862,60.3861,0,2,2,5,1,partial,1,images/Ex14.jpg,right,training,hard,1,,,,,
,,,,,5ec702d5d810c61532066427,001,32,female,british,college diploma,2024-03-05_22h21.58.117,CRL1h,2023.2.3,MacIntel,57.14285714,65e67470ae2fbf2172c317b2,65e79a9992c5dc8b5911a62d,,,,,,,,,,,60.3864,0.7,61.086,61.086,63.2196,right,0,2.1276,,63.2197,64.2193,0,3,3,3,1,partial,1,images/Ex12.jpg,left,training,hard,1,,,,,
,,,,,5ec702d5d810c61532066427,001,32,female,british,college diploma,2024-03-05_22h21.58.117,CRL1h,2023.2.3,MacIntel,57.14285714,65e67470ae2fbf2172c317b2,65e79a9992c5dc8b5911a62d,,,,,,,,,,,64.2291,1.1,65.3196,65.3196,67.5698,right,0,2.2411,,67.5698,68.5693,0,4,4,8,1,partial,1,images/Ex9.jpg,left,training,hard,1,,,,,
,,,,,5ec702d5d810c61532066427,001,32,female,british,college diploma,2024-03-05_22h21.58.117,CRL1h,2023.2.3,MacIntel,57.14285714,65e67470ae2fbf2172c317b2,65e79a9992c5dc8b5911a62d,,,,,,,,,,,68.5794,0.6,69.1697,69.1698,70.502,right,0,1.3254,,70.502,71.503,0,5,5,9,1,partial,1,images/Ex10.jpg,left,training,hard,1,,,,,
,,,,,5ec702d5d810c61532066427,001,32,female,british,college diploma,2024-03-05_22h21.58.117,CRL1h,2023.2.3,MacIntel,57.14285714,65e67470ae2fbf2172c317b2,65e79a9992c5dc8b5911a62d,,,,,,,,,,,71.5036,0.6,72.103,72.103,72.9522,left,0,0.8467,,72.9523,73.953,0,6,6,12,1,partial,1,images/Ex13.jpg,right,training,hard,1,,,,,
,,,,,5ec702d5d810c61532066427,001,32,female,british,college diploma,2024-03-05_22h21.58.117,CRL1h,2023.2.3,MacIntel,57.14285714,65e67470ae2fbf2172c317b2,65e79a9992c5dc8b5911a62d,,,,,,,,,,,73.9535,1.2,75.153,75.153,77.0532,left,1,1.8928,,77.0533,78.0525,0,7,7,2,1,partial,1,images/Ex11.jpg,left,training,hard,1,,,,,
,,,,,5ec702d5d810c61532066427,001,32,female,british,college diploma,2024-03-05_22h21.58.117,CRL1h,2023.2.3,MacIntel,57.14285714,65e67470ae2fbf2172c317b2,65e79a9992c5dc8b5911a62d,,,,,,,,,,,78.0626,1.1,79.1529,79.1529,80.1352,left,1,0.9802,,80.1353,81.1354,0,8,8,10,1,partial,1,images/Ex11.jpg,left,training,hard,1,,,,,
,,,,,5ec702d5d810c61532066427,001,32,female,british,college diploma,2024-03-05_22h21.58.117,CRL1h,2023.2.3,MacIntel,57.14285714,65e67470ae2fbf2172c317b2,65e79a9992c5dc8b5911a62d,,,,,,,,,,,81.1359,1.1,82.2364,82.2364,82.9686,left,1,0.7239,,82.9688,83.9698,0,9,9,11,1,partial,1,images/Ex12.jpg,left,training,hard,1,,,,,
,,,,,5ec702d5d810c61532066427,001,32,female,british,college diploma,2024-03-05_22h21.58.117,CRL1h,2023.2.3,MacIntel,57.14285714,65e67470ae2fbf2172c317b2,65e79a9992c5dc8b5911a62d,,,,,,,,,,,83.9702,0.8,84.7697,84.7698,85.2854,left,0,0.5079,,85.2854,86.2864,0,10,10,13,1,partial,1,images/Ex14.jpg,right,training,hard,1,,,,,
,,,,,5ec702d5d810c61532066427,001,32,female,british,college diploma,2024-03-05_22h21.58.117,CRL1h,2023.2.3,MacIntel,57.14285714,65e67470ae2fbf2172c317b2,65e79a9992c5dc8b5911a62d,,,,,,,,,,,86.287,1.4,87.6865,87.6865,89.1362,left,1,1.4403,,89.1362,90.1356,0,11,11,0,1,partial,1,images/Ex9.jpg,left,training,hard,1,,,,,
,,,,,5ec702d5d810c61532066427,001,32,female,british,college diploma,2024-03-05_22h21.58.117,CRL1h,2023.2.3,MacIntel,57.14285714,65e67470ae2fbf2172c317b2,65e79a9992c5dc8b5911a62d,,,,,,,,,,,90.1359,1.3,91.4365,91.4365,92.7023,right,1,1.2595,,92.7023,93.7029,0,12,12,7,1,partial,1,images/Ex16.jpg,right,training,hard,1,,,,,
,,,,,5ec702d5d810c61532066427,001,32,female,british,college diploma,2024-03-05_22h21.58.117,CRL1h,2023.2.3,MacIntel,57.14285714,65e67470ae2fbf2172c317b2,65e79a9992c5dc8b5911a62d,,,,,,,,,,,93.7132,0.5,94.2037,94.2037,95.2029,left,1,0.9917,,95.2029,96.2033,0,13,13,1,1,partial,1,images/Ex10.jpg,left,training,hard,1,,,,,
,,,,,5ec702d5d810c61532066427,001,32,female,british,college diploma,2024-03-05_22h21.58.117,CRL1h,2023.2.3,MacIntel,57.14285714,65e67470ae2fbf2172c317b2,65e79a9992c5dc8b5911a62d,,,,,,,,,,,96.2036,0.6,96.8031,96.8032,97.4018,left,0,0.5904,,97.4019,98.4031,0,14,14,6,1,partial,1,images/Ex15.jpg,right,training,hard,1,,,,,
,,,,,5ec702d5d810c61532066427,001,32,female,british,college diploma,2024-03-05_22h21.58.117,CRL1h,2023.2.3,MacIntel,57.14285714,65e67470ae2fbf2172c317b2,65e79a9992c5dc8b5911a62d,,,,,,,,,,,98.4036,1.3,99.7029,99.7029,100.9366,right,1,1.2248,,100.9366,101.9365,0,15,15,15,1,partial,1,images/Ex16.jpg,right,training,hard,1,,,,,
,,,,,5ec702d5d810c61532066427,001,32,female,british,college diploma,2024-03-05_22h21.58.117,CRL1h,2023.2.3,MacIntel,57.14285714,65e67470ae2fbf2172c317b2,65e79a9992c5dc8b5911a62d,,,,,,,,,,,101.9369,0.8,102.7365,102.7365,103.6362,left,1,0.8929,,103.6362,104.6364,1,0,16,3,1,partial,1,images/Ex12.jpg,left,training,hard,1,,,,,
,,,,,5ec702d5d810c61532066427,001,32,female,british,college diploma,2024-03-05_22h21.58.117,CRL1h,2023.2.3,MacIntel,57.14285714,65e67470ae2fbf2172c317b2,65e79a9992c5dc8b5911a62d,,,,,,,,,,,104.6367,0.5,105.1365,105.1365,106.1198,left,0,0.9763,,106.1199,107.1198,1,1,17,6,1,partial,1,images/Ex15.jpg,right,training,hard,1,,,,,
,,,,,5ec702d5d810c61532066427,001,32,female,british,college diploma,2024-03-05_22h21.58.117,CRL1h,2023.2.3,MacIntel,57.14285714,65e67470ae2fbf2172c317b2,65e79a9992c5dc8b5911a62d,,,,,,,,,,,107.1203,0.7,107.8199,107.8199,109.2697,left,1,1.444,,109.2697,110.2695,1,2,18,2,1,partial,1,images/Ex11.jpg,left,training,hard,1,,,,,
,,,,,5ec702d5d810c61532066427,001,32,female,british,college diploma,2024-03-05_22h21.58.117,CRL1h,2023.2.3,MacIntel,57.14285714,65e67470ae2fbf2172c317b2,65e79a9992c5dc8b5911a62d,,,,,,,,,,,110.2698,0.6,110.8695,110.8696,111.57,left,0,0.6931,,111.57,112.5698,1,3,19,12,1,partial,1,images/Ex13.jpg,right,training,hard,1,,,,,
,,,,,5ec702d5d810c61532066427,001,32,female,british,college diploma,2024-03-05_22h21.58.117,CRL1h,2023.2.3,MacIntel,57.14285714,65e67470ae2fbf2172c317b2,65e79a9992c5dc8b5911a62d,,,,,,,,,,,112.5703,0.9,113.4695,113.4696,114.2696,left,1,0.7913,,114.2696,115.2698,1,4,20,1,1,partial,1,images/Ex10.jpg,left,training,hard,1,,,,,
,,,,,5ec702d5d810c61532066427,001,32,female,british,college diploma,2024-03-05_22h21.58.117,CRL1h,2023.2.3,MacIntel,57.14285714,65e67470ae2fbf2172c317b2,65e79a9992c5dc8b5911a62d,,,,,,,,,,,115.2702,1.3,116.5685,116.5685,117.5198,right,0,0.9459,,117.5198,118.5199,1,5,21,10,1,partial,1,images/Ex11.jpg,left,training,hard,1,,,,,
,,,,,5ec702d5d810c61532066427,001,32,female,british,college diploma,2024-03-05_22h21.58.117,CRL1h,2023.2.3,MacIntel,57.14285714,65e67470ae2fbf2172c317b2,65e79a9992c5dc8b5911a62d,,,,,,,,,,,118.5203,0.6,119.1199,119.1199,119.8863,right,1,0.7591,,119.8864,120.8866,1,6,22,7,1,partial,1,images/Ex16.jpg,right,training,hard,1,,,,,
,,,,,5ec702d5d810c61532066427,001,32,female,british,college diploma,2024-03-05_22h21.58.117,CRL1h,2023.2.3,MacIntel,57.14285714,65e67470ae2fbf2172c317b2,65e79a9992c5dc8b5911a62d,,,,,,,,,,,120.887,1.4,122.2865,122.2867,123.2201,left,0,0.9256,,123.2202,124.2198,1,7,23,13,1,partial,1,images/Ex14.jpg,right,training,hard,1,,,,,
,,,,,5ec702d5d810c61532066427,001,32,female,british,college diploma,2024-03-05_22h21.58.117,CRL1h,2023.2.3,MacIntel,57.14285714,65e67470ae2fbf2172c317b2,65e79a9992c5dc8b5911a62d,,,,,,,,,,,124.2202,0.9,125.1199,125.1199,126.2853,left,0,1.1628,,126.2854,127.2866,1,8,24,4,1,partial,1,images/Ex13.jpg,right,training,hard,1,,,,,
,,,,,5ec702d5d810c61532066427,001,32,female,british,college diploma,2024-03-05_22h21.58.117,CRL1h,2023.2.3,MacIntel,57.14285714,65e67470ae2fbf2172c317b2,65e79a9992c5dc8b5911a62d,,,,,,,,,,,127.287,1.4,128.6866,128.6867,129.5702,left,0,0.8748,,129.5703,130.5698,1,9,25,5,1,partial,1,images/Ex14.jpg,right,training,hard,1,,,,,
,,,,,5ec702d5d810c61532066427,001,32,female,british,college diploma,2024-03-05_22h21.58.117,CRL1h,2023.2.3,MacIntel,57.14285714,65e67470ae2fbf2172c317b2,65e79a9992c5dc8b5911a62d,,,,,,,,,,,130.5703,1,131.57,131.57,132.3693,left,0,0.798,,132.3693,133.37,1,10,26,14,1,partial,1,images/Ex15.jpg,right,training,hard,1,,,,,
,,,,,5ec702d5d810c61532066427,001,32,female,british,college diploma,2024-03-05_22h21.58.117,CRL1h,2023.2.3,MacIntel,57.14285714,65e67470ae2fbf2172c317b2,65e79a9992c5dc8b5911a62d,,,,,,,,,,,133.3705,0.8,134.1699,134.1699,134.8865,right,0,0.7087,,134.8866,135.8866,1,11,27,11,1,partial,1,images/Ex12.jpg,left,training,hard,1,,,,,
,,,,,5ec702d5d810c61532066427,001,32,female,british,college diploma,2024-03-05_22h21.58.117,CRL1h,2023.2.3,MacIntel,57.14285714,65e67470ae2fbf2172c317b2,65e79a9992c5dc8b5911a62d,,,,,,,,,,,135.8871,0.7,136.5862,136.5862,137.2533,right,1,0.6581,,137.2533,138.2525,1,12,28,15,1,partial,1,images/Ex16.jpg,right,training,hard,1,,,,,
,,,,,5ec702d5d810c61532066427,001,32,female,british,college diploma,2024-03-05_22h21.58.117,CRL1h,2023.2.3,MacIntel,57.14285714,65e67470ae2fbf2172c317b2,65e79a9992c5dc8b5911a62d,,,,,,,,,,,138.2529,0.6,138.8534,138.8534,139.9866,left,1,1.1261,,139.9867,140.9866,1,13,29,8,1,partial,1,images/Ex9.jpg,left,training,hard,1,,,,,
,,,,,5ec702d5d810c61532066427,001,32,female,british,college diploma,2024-03-05_22h21.58.117,CRL1h,2023.2.3,MacIntel,57.14285714,65e67470ae2fbf2172c317b2,65e79a9992c5dc8b5911a62d,,,,,,,,,,,140.9871,0.8,141.7865,141.7865,143.0698,right,0,1.2777,,143.0699,144.0688,1,14,30,9,1,partial,1,images/Ex10.jpg,left,training,hard,1,,,,,
,,,,,5ec702d5d810c61532066427,001,32,female,british,college diploma,2024-03-05_22h21.58.117,CRL1h,2023.2.3,MacIntel,57.14285714,65e67470ae2fbf2172c317b2,65e79a9992c5dc8b5911a62d,,,,,,,,,,,144.069,1,145.0686,145.0686,146.2698,left,1,1.1942,,146.2699,147.2699,1,15,31,0,1,partial,1,images/Ex9.jpg,left,training,hard,1,,,,,
,,,,,5ec702d5d810c61532066427,001,32,female,british,college diploma,2024-03-05_22h21.58.117,CRL1h,2023.2.3,MacIntel,57.14285714,65e67470ae2fbf2172c317b2,65e79a9992c5dc8b5911a62d,,,,,,,,,,,147.2702,0.8,148.0701,148.0701,149.1531,left,1,1.0801,,149.1531,150.1524,2,0,32,9,1,partial,1,images/Ex10.jpg,left,training,hard,1,,,,,
,,,,,5ec702d5d810c61532066427,001,32,female,british,college diploma,2024-03-05_22h21.58.117,CRL1h,2023.2.3,MacIntel,57.14285714,65e67470ae2fbf2172c317b2,65e79a9992c5dc8b5911a62d,,,,,,,,,,,150.1526,1.4,151.5534,151.5534,152.503,right,1,0.9459,,152.503,153.503,2,1,33,6,1,partial,1,images/Ex15.jpg,right,training,hard,1,,,,,
,,,,,5ec702d5d810c61532066427,001,32,female,british,college diploma,2024-03-05_22h21.58.117,CRL1h,2023.2.3,MacIntel,57.14285714,65e67470ae2fbf2172c317b2,65e79a9992c5dc8b5911a62d,,,,,,,,,,,153.5032,0.6,154.1028,154.1028,155.1688,right,0,1.0616,,155.1688,156.1692,2,2,34,8,1,partial,1,images/Ex9.jpg,left,training,hard,1,,,,,
,,,,,5ec702d5d810c61532066427,001,32,female,british,college diploma,2024-03-05_22h21.58.117,CRL1h,2023.2.3,MacIntel,57.14285714,65e67470ae2fbf2172c317b2,65e79a9992c5dc8b5911a62d,,,,,,,,,,,156.1696,1.3,157.4702,157.4702,158.5196,right,0,1.0411,,158.5196,159.5198,2,3,35,11,1,partial,1,images/Ex12.jpg,left,training,hard,1,,,,,
,,,,,5ec702d5d810c61532066427,001,32,female,british,college diploma,2024-03-05_22h21.58.117,CRL1h,2023.2.3,MacIntel,57.14285714,65e67470ae2fbf2172c317b2,65e79a9992c5dc8b5911a62d,,,,,,,,,,,159.5203,1.4,160.9194,160.9194,161.5689,right,1,0.6418,,161.569,162.5697,2,4,36,15,1,partial,1,images/Ex16.jpg,right,training,hard,1,,,,,
,,,,,5ec702d5d810c61532066427,001,32,female,british,college diploma,2024-03-05_22h21.58.117,CRL1h,2023.2.3,MacIntel,57.14285714,65e67470ae2fbf2172c317b2,65e79a9992c5dc8b5911a62d,,,,,,,,,,,162.5701,0.7,163.2701,163.2701,163.9199,left,1,0.6407,,163.9199,164.9201,2,5,37,1,1,partial,1,images/Ex10.jpg,left,training,hard,1,,,,,
,,,,,5ec702d5d810c61532066427,001,32,female,british,college diploma,2024-03-05_22h21.58.117,CRL1h,2023.2.3,MacIntel,57.14285714,65e67470ae2fbf2172c317b2,65e79a9992c5dc8b5911a62d,,,,,,,,,,,164.9206,1.4,166.319,166.319,166.9367,left,0,0.6101,,166.9368,167.9368,2,6,38,12,1,partial,1,images/Ex13.jpg,right,training,hard,1,,,,,
,,,,,5ec702d5d810c61532066427,001,32,female,british,college diploma,2024-03-05_22h21.58.117,CRL1h,2023.2.3,MacIntel,57.14285714,65e67470ae2fbf2172c317b2,65e79a9992c5dc8b5911a62d,,,,,,,,,,,167.9372,1.3,169.2368,169.2368,170.269,right,1,1.0298,,170.269,171.2697,2,7,39,13,1,partial,1,images/Ex14.jpg,right,training,hard,1,,,,,
,,,,,5ec702d5d810c61532066427,001,32,female,british,college diploma,2024-03-05_22h21.58.117,CRL1h,2023.2.3,MacIntel,57.14285714,65e67470ae2fbf2172c317b2,65e79a9992c5dc8b5911a62d,,,,,,,,,,,171.27,1.2,172.4693,172.4693,173.3357,left,1,0.8592,,173.3357,174.3368,2,8,40,2,1,partial,1,images/Ex11.jpg,left,training,hard,1,,,,,
,,,,,5ec702d5d810c61532066427,001,32,female,british,college diploma,2024-03-05_22h21.58.117,CRL1h,2023.2.3,MacIntel,57.14285714,65e67470ae2fbf2172c317b2,65e79a9992c5dc8b5911a62d,,,,,,,,,,,174.3373,0.7,175.0368,175.0369,175.6194,right,1,0.5782,,175.6194,176.6201,2,9,41,7,1,partial,1,images/Ex16.jpg,right,training,hard,1,,,,,
,,,,,5ec702d5d810c61532066427,001,32,female,british,college diploma,2024-03-05_22h21.58.117,CRL1h,2023.2.3,MacIntel,57.14285714,65e67470ae2fbf2172c317b2,65e79a9992c5dc8b5911a62d,,,,,,,,,,,176.6206,1.3,177.9196,177.9196,178.6194,left,0,0.6908,,178.6194,179.6202,2,10,42,5,1,partial,1,images/Ex14.jpg,right,training,hard,1,,,,,
,,,,,5ec702d5d810c61532066427,001,32,female,british,college diploma,2024-03-05_22h21.58.117,CRL1h,2023.2.3,MacIntel,57.14285714,65e67470ae2fbf2172c317b2,65e79a9992c5dc8b5911a62d,,,,,,,,,,,179.6207,1.2,180.8196,180.8196,182.0533,right,0,1.2246,,182.0533,183.0526,2,11,43,10,1,partial,1,images/Ex11.jpg,left,training,hard,1,,,,,
,,,,,5ec702d5d810c61532066427,001,32,female,british,college diploma,2024-03-05_22h21.58.117,CRL1h,2023.2.3,MacIntel,57.14285714,65e67470ae2fbf2172c317b2,65e79a9992c5dc8b5911a62d,,,,,,,,,,,183.0529,0.8,183.8535,183.8535,184.8701,left,0,1.0077,,184.8702,185.87,2,12,44,14,1,partial,1,images/Ex15.jpg,right,training,hard,1,,,,,
,,,,,5ec702d5d810c61532066427,001,32,female,british,college diploma,2024-03-05_22h21.58.117,CRL1h,2023.2.3,MacIntel,57.14285714,65e67470ae2fbf2172c317b2,65e79a9992c5dc8b5911a62d,,,,,,,,,,,185.8704,0.9,186.7697,186.7697,188.0705,right,0,1.293,,188.0706,189.0701,2,13,45,3,1,partial,1,images/Ex12.jpg,left,training,hard,1,,,,,
,,,,,5ec702d5d810c61532066427,001,32,female,british,college diploma,2024-03-05_22h21.58.117,CRL1h,2023.2.3,MacIntel,57.14285714,65e67470ae2fbf2172c317b2,65e79a9992c5dc8b5911a62d,,,,,,,,,,,189.0706,0.5,189.5702,189.5702,190.5534,left,0,0.9743,,190.5534,191.5521,2,14,46,4,1,partial,1,images/Ex13.jpg,right,training,hard,1,,,,,
,,,,,5ec702d5d810c61532066427,001,32,female,british,college diploma,2024-03-05_22h21.58.117,CRL1h,2023.2.3,MacIntel,57.14285714,65e67470ae2fbf2172c317b2,65e79a9992c5dc8b5911a62d,,,,,,,,,,,191.5523,0.9,192.4528,192.4528,193.1858,left,1,0.7271,,193.1859,194.1868,2,15,47,0,1,partial,1,images/Ex9.jpg,left,training,hard,1,,,,,
,,,,,5ec702d5d810c61532066427,001,32,female,british,college diploma,2024-03-05_22h21.58.117,CRL1h,2023.2.3,MacIntel,57.14285714,65e67470ae2fbf2172c317b2,65e79a9992c5dc8b5911a62d,,,,,,,,,,,194.1873,0.9,195.0868,195.0869,196.0033,right,0,0.9118,,196.0033,197.0035,3,0,48,3,1,partial,1,images/Ex12.jpg,left,training,hard,1,,,,,
,,,,,5ec702d5d810c61532066427,001,32,female,british,college diploma,2024-03-05_22h21.58.117,CRL1h,2023.2.3,MacIntel,57.14285714,65e67470ae2fbf2172c317b2,65e79a9992c5dc8b5911a62d,,,,,,,,,,,197.004,1.2,198.2035,198.2036,199.0858,right,0,0.8802,,199.0858,200.0863,3,1,49,0,1,partial,1,images/Ex9.jpg,left,training,hard,1,,,,,
,,,,,5ec702d5d810c61532066427,001,32,female,british,college diploma,2024-03-05_22h21.58.117,CRL1h,2023.2.3,MacIntel,57.14285714,65e67470ae2fbf2172c317b2,65e79a9992c5dc8b5911a62d,,,,,,,,,,,200.0867,0.6,200.6865,200.6865,201.636,right,1,0.9424,,201.6361,202.6369,3,2,50,13,1,partial,1,images/Ex14.jpg,right,training,hard,1,,,,,
,,,,,5ec702d5d810c61532066427,001,32,female,british,college diploma,2024-03-05_22h21.58.117,CRL1h,2023.2.3,MacIntel,57.14285714,65e67470ae2fbf2172c317b2,65e79a9992c5dc8b5911a62d,,,,,,,,,,,202.6373,1.3,203.9369,203.937,205.3365,right,1,1.391,,205.3366,206.3362,3,3,51,6,1,partial,1,images/Ex15.jpg,right,training,hard,1,,,,,
,,,,,5ec702d5d810c61532066427,001,32,female,british,college diploma,2024-03-05_22h21.58.117,CRL1h,2023.2.3,MacIntel,57.14285714,65e67470ae2fbf2172c317b2,65e79a9992c5dc8b5911a62d,,,,,,,,,,,206.3367,0.6,206.9361,206.9361,208.3695,left,1,1.4263,,208.3696,209.3702,3,4,52,10,1,partial,1,images/Ex11.jpg,left,training,hard,1,,,,,
,,,,,5ec702d5d810c61532066427,001,32,female,british,college diploma,2024-03-05_22h21.58.117,CRL1h,2023.2.3,MacIntel,57.14285714,65e67470ae2fbf2172c317b2,65e79a9992c5dc8b5911a62d,,,,,,,,,,,209.3705,1.1,210.4702,210.4702,211.6865,right,0,1.2076,,211.6866,212.6864,3,5,53,1,1,partial,1,images/Ex10.jpg,left,training,hard,1,,,,,
,,,,,5ec702d5d810c61532066427,001,32,female,british,college diploma,2024-03-05_22h21.58.117,CRL1h,2023.2.3,MacIntel,57.14285714,65e67470ae2fbf2172c317b2,65e79a9992c5dc8b5911a62d,,,,,,,,,,,212.6868,0.6,213.2866,213.2866,214.4036,left,0,1.1087,,214.4036,215.4034,3,6,54,5,1,partial,1,images/Ex14.jpg,right,training,hard,1,,,,,
,,,,,5ec702d5d810c61532066427,001,32,female,british,college diploma,2024-03-05_22h21.58.117,CRL1h,2023.2.3,MacIntel,57.14285714,65e67470ae2fbf2172c317b2,65e79a9992c5dc8b5911a62d,,,,,,,,,,,215.4037,1,216.4035,216.4036,217.4867,left,0,1.0743,,217.4867,218.4868,3,7,55,4,1,partial,1,images/Ex13.jpg,right,training,hard,1,,,,,
,,,,,5ec702d5d810c61532066427,001,32,female,british,college diploma,2024-03-05_22h21.58.117,CRL1h,2023.2.3,MacIntel,57.14285714,65e67470ae2fbf2172c317b2,65e79a9992c5dc8b5911a62d,,,,,,,,,,,218.4874,1.3,219.7869,219.787,220.7034,right,0,0.9082,,220.7035,221.7034,3,8,56,8,1,partial,1,images/Ex9.jpg,left,training,hard,1,,,,,
,,,,,5ec702d5d810c61532066427,001,32,female,british,college diploma,2024-03-05_22h21.58.117,CRL1h,2023.2.3,MacIntel,57.14285714,65e67470ae2fbf2172c317b2,65e79a9992c5dc8b5911a62d,,,,,,,,,,,221.7037,0.6,222.3033,222.3033,222.6864,left,0,0.3751,,222.6864,223.6863,3,9,57,15,1,partial,1,images/Ex16.jpg,right,training,hard,1,,,,,
,,,,,5ec702d5d810c61532066427,001,32,female,british,college diploma,2024-03-05_22h21.58.117,CRL1h,2023.2.3,MacIntel,57.14285714,65e67470ae2fbf2172c317b2,65e79a9992c5dc8b5911a62d,,,,,,,,,,,223.6865,1.1,224.7869,224.787,226.0032,left,1,1.2086,,226.0033,227.0036,3,10,58,2,1,partial,1,images/Ex11.jpg,left,training,hard,1,,,,,
,,,,,5ec702d5d810c61532066427,001,32,female,british,college diploma,2024-03-05_22h21.58.117,CRL1h,2023.2.3,MacIntel,57.14285714,65e67470ae2fbf2172c317b2,65e79a9992c5dc8b5911a62d,,,,,,,,,,,227.004,1.1,228.1037,228.1037,228.8203,right,1,0.7111,,228.8204,229.8204,3,11,59,12,1,partial,1,images/Ex13.jpg,right,training,hard,1,,,,,
,,,,,5ec702d5d810c61532066427,001,32,female,british,college diploma,2024-03-05_22h21.58.117,CRL1h,2023.2.3,MacIntel,57.14285714,65e67470ae2fbf2172c317b2,65e79a9992c5dc8b5911a62d,,,,,,,,,,,229.8208,1,230.82,230.82,232.1028,left,1,1.2785,,232.1028,233.1037,3,12,60,11,1,partial,1,images/Ex12.jpg,left,training,hard,1,,,,,
,,,,,5ec702d5d810c61532066427,001,32,female,british,college diploma,2024-03-05_22h21.58.117,CRL1h,2023.2.3,MacIntel,57.14285714,65e67470ae2fbf2172c317b2,65e79a9992c5dc8b5911a62d,,,,,,,,,,,233.1041,0.8,233.9032,233.9032,234.6036,right,1,0.6953,,234.6037,235.6034,3,13,61,7,1,partial,1,images/Ex16.jpg,right,training,hard,1,,,,,
,,,,,5ec702d5d810c61532066427,001,32,female,british,college diploma,2024-03-05_22h21.58.117,CRL1h,2023.2.3,MacIntel,57.14285714,65e67470ae2fbf2172c317b2,65e79a9992c5dc8b5911a62d,,,,,,,,,,,235.6037,0.8,236.4033,236.4033,237.4202,right,1,1.0114,,237.4203,238.4199,3,14,62,14,1,partial,1,images/Ex15.jpg,right,training,hard,1,,,,,
,,,,,5ec702d5d810c61532066427,001,32,female,british,college diploma,2024-03-05_22h21.58.117,CRL1h,2023.2.3,MacIntel,57.14285714,65e67470ae2fbf2172c317b2,65e79a9992c5dc8b5911a62d,,,,,,,,,,,238.4201,0.8,239.2199,239.22,240.5703,left,1,1.3433,,240.5704,241.5703,3,15,63,9,1,partial,1,images/Ex10.jpg,left,training,hard,1,,,,,
,,,,,5ec702d5d810c61532066427,001,32,female,british,college diploma,2024-03-05_22h21.58.117,CRL1h,2023.2.3,MacIntel,57.14285714,65e67470ae2fbf2172c317b2,65e79a9992c5dc8b5911a62d,,,,,,,,,,,241.5708,1.4,242.97,242.97,243.8534,right,1,0.8746,,243.8534,244.8537,4,0,64,15,1,partial,1,images/Ex16.jpg,right,training,hard,1,,,,,
,,,,,5ec702d5d810c61532066427,001,32,female,british,college diploma,2024-03-05_22h21.58.117,CRL1h,2023.2.3,MacIntel,57.14285714,65e67470ae2fbf2172c317b2,65e79a9992c5dc8b5911a62d,,,,,,,,,,,244.8542,1.3,246.1533,246.1533,247.6201,right,1,1.4638,,247.6201,248.62,4,1,65,14,1,partial,1,images/Ex15.jpg,right,training,hard,1,,,,,
,,,,,5ec702d5d810c61532066427,001,32,female,british,college diploma,2024-03-05_22h21.58.117,CRL1h,2023.2.3,MacIntel,57.14285714,65e67470ae2fbf2172c317b2,65e79a9992c5dc8b5911a62d,,,,,,,,,,,248.6201,0.5,249.1202,249.1203,250.7363,right,0,1.6114,,250.7363,251.7358,4,2,66,9,1,partial,1,images/Ex10.jpg,left,training,hard,1,,,,,
,,,,,5ec702d5d810c61532066427,001,32,female,british,college diploma,2024-03-05_22h21.58.117,CRL1h,2023.2.3,MacIntel,57.14285714,65e67470ae2fbf2172c317b2,65e79a9992c5dc8b5911a62d,,,,,,,,,,,251.736,1.4,253.1371,253.1371,254.3708,left,1,1.2239,,254.3708,255.3702,4,3,67,3,1,partial,1,images/Ex12.jpg,left,training,hard,1,,,,,
,,,,,5ec702d5d810c61532066427,001,32,female,british,college diploma,2024-03-05_22h21.58.117,CRL1h,2023.2.3,MacIntel,57.14285714,65e67470ae2fbf2172c317b2,65e79a9992c5dc8b5911a62d,,,,,,,,,,,255.3707,0.6,255.9705,255.9705,257.3193,left,0,1.348,,257.3194,258.3203,4,4,68,12,1,partial,1,images/Ex13.jpg,right,training,hard,1,,,,,
,,,,,5ec702d5d810c61532066427,001,32,female,british,college diploma,2024-03-05_22h21.58.117,CRL1h,2023.2.3,MacIntel,57.14285714,65e67470ae2fbf2172c317b2,65e79a9992c5dc8b5911a62d,,,,,,,,,,,258.3208,1.4,259.7203,259.7203,260.5205,left,0,0.7927,,260.5206,261.5203,4,5,69,5,1,partial,1,images/Ex14.jpg,right,training,hard,1,,,,,
,,,,,5ec702d5d810c61532066427,001,32,female,british,college diploma,2024-03-05_22h21.58.117,CRL1h,2023.2.3,MacIntel,57.14285714,65e67470ae2fbf2172c317b2,65e79a9992c5dc8b5911a62d,,,,,,,,,,,261.5209,1.1,262.6203,262.6204,263.9538,right,0,1.3281,,263.9539,264.9538,4,6,70,1,1,partial,1,images/Ex10.jpg,left,training,hard,1,,,,,
,,,,,5ec702d5d810c61532066427,001,32,female,british,college diploma,2024-03-05_22h21.58.117,CRL1h,2023.2.3,MacIntel,57.14285714,65e67470ae2fbf2172c317b2,65e79a9992c5dc8b5911a62d,,,,,,,,,,,264.9542,1.1,266.0531,266.0532,267.9038,right,0,1.8415,,267.9038,268.904,4,7,71,0,1,partial,1,images/Ex9.jpg,left,training,hard,1,,,,,
,,,,,5ec702d5d810c61532066427,001,32,female,british,college diploma,2024-03-05_22h21.58.117,CRL1h,2023.2.3,MacIntel,57.14285714,65e67470ae2fbf2172c317b2,65e79a9992c5dc8b5911a62d,,,,,,,,,,,268.9044,0.6,269.5038,269.5038,270.3371,left,1,0.8255,,270.3372,271.3372,4,8,72,2,1,partial,1,images/Ex11.jpg,left,training,hard,1,,,,,
,,,,,5ec702d5d810c61532066427,001,32,female,british,college diploma,2024-03-05_22h21.58.117,CRL1h,2023.2.3,MacIntel,57.14285714,65e67470ae2fbf2172c317b2,65e79a9992c5dc8b5911a62d,,,,,,,,,,,271.3375,1,272.3371,272.3372,273.0532,left,0,0.7107,,273.0532,274.0539,4,9,73,6,1,partial,1,images/Ex15.jpg,right,training,hard,1,,,,,
,,,,,5ec702d5d810c61532066427,001,32,female,british,college diploma,2024-03-05_22h21.58.117,CRL1h,2023.2.3,MacIntel,57.14285714,65e67470ae2fbf2172c317b2,65e79a9992c5dc8b5911a62d,,,,,,,,,,,274.0543,1.4,275.4533,275.4534,276.0201,right,0,0.5635,,276.0201,277.0202,4,10,74,8,1,partial,1,images/Ex9.jpg,left,training,hard,1,,,,,
,,,,,5ec702d5d810c61532066427,001,32,female,british,college diploma,2024-03-05_22h21.58.117,CRL1h,2023.2.3,MacIntel,57.14285714,65e67470ae2fbf2172c317b2,65e79a9992c5dc8b5911a62d,,,,,,,,,,,277.0208,1.2,278.2199,278.2199,278.537,left,0,0.3093,,278.5371,279.5371,4,11,75,13,1,partial,1,images/Ex14.jpg,right,training,hard,1,,,,,
,,,,,5ec702d5d810c61532066427,001,32,female,british,college diploma,2024-03-05_22h21.58.117,CRL1h,2023.2.3,MacIntel,57.14285714,65e67470ae2fbf2172c317b2,65e79a9992c5dc8b5911a62d,,,,,,,,,,,279.5376,1.3,280.8372,280.8372,281.4705,right,1,0.6246,,281.4706,282.4699,4,12,76,7,1,partial,1,images/Ex16.jpg,right,training,hard,1,,,,,
,,,,,5ec702d5d810c61532066427,001,32,female,british,college diploma,2024-03-05_22h21.58.117,CRL1h,2023.2.3,MacIntel,57.14285714,65e67470ae2fbf2172c317b2,65e79a9992c5dc8b5911a62d,,,,,,,,,,,282.4701,0.9,283.3703,283.3703,284.6701,left,0,1.2918,,284.6701,285.6704,4,13,77,4,1,partial,1,images/Ex13.jpg,right,training,hard,1,,,,,
,,,,,5ec702d5d810c61532066427,001,32,female,british,college diploma,2024-03-05_22h21.58.117,CRL1h,2023.2.3,MacIntel,57.14285714,65e67470ae2fbf2172c317b2,65e79a9992c5dc8b5911a62d,,,,,,,,,,,285.6708,1.3,286.9693,286.9694,288.2705,right,0,1.2925,,288.2705,289.2704,4,14,78,11,1,partial,1,images/Ex12.jpg,left,training,hard,1,,,,,
,,,,,5ec702d5d810c61532066427,001,32,female,british,college diploma,2024-03-05_22h21.58.117,CRL1h,2023.2.3,MacIntel,57.14285714,65e67470ae2fbf2172c317b2,65e79a9992c5dc8b5911a62d,,,,,,,,,,,289.2709,0.7,289.9704,289.9704,290.8703,right,0,0.8919,,290.8703,291.87,4,15,79,10,1,partial,1,images/Ex11.jpg,left,training,hard,1,,,,,
,,,,,5ec702d5d810c61532066427,001,32,female,british,college diploma,2024-03-05_22h21.58.117,CRL1h,2023.2.3,MacIntel,57.14285714,65e67470ae2fbf2172c317b2,65e79a9992c5dc8b5911a62d,,,,,,,,,,,291.8704,1.4,293.2705,293.2705,295.1029,left,1,1.8249,,295.1029,296.104,5,0,80,9,1,partial,1,images/Ex10.jpg,left,training,hard,1,,,,,
,,,,,5ec702d5d810c61532066427,001,32,female,british,college diploma,2024-03-05_22h21.58.117,CRL1h,2023.2.3,MacIntel,57.14285714,65e67470ae2fbf2172c317b2,65e79a9992c5dc8b5911a62d,,,,,,,,,,,296.1142,1.2,297.3036,297.3036,298.3202,right,1,1.0088,,298.3202,299.3202,5,1,81,14,1,partial,1,images/Ex15.jpg,right,training,hard,1,,,,,
,,,,,5ec702d5d810c61532066427,001,32,female,british,college diploma,2024-03-05_22h21.58.117,CRL1h,2023.2.3,MacIntel,57.14285714,65e67470ae2fbf2172c317b2,65e79a9992c5dc8b5911a62d,,,,,,,,,,,299.3205,1.5,300.8202,300.8203,301.6365,left,1,0.8127,,301.6365,302.6369,5,2,82,2,1,partial,1,images/Ex11.jpg,left,training,hard,1,,,,,
,,,,,5ec702d5d810c61532066427,001,32,female,british,college diploma,2024-03-05_22h21.58.117,CRL1h,2023.2.3,MacIntel,57.14285714,65e67470ae2fbf2172c317b2,65e79a9992c5dc8b5911a62d,,,,,,,,,,,302.6372,0.7,303.3368,303.3369,304.087,left,0,0.7462,,304.087,305.0873,5,3,83,5,1,partial,1,images/Ex14.jpg,right,training,hard,1,,,,,
,,,,,5ec702d5d810c61532066427,001,32,female,british,college diploma,2024-03-05_22h21.58.117,CRL1h,2023.2.3,MacIntel,57.14285714,65e67470ae2fbf2172c317b2,65e79a9992c5dc8b5911a62d,,,,,,,,,,,305.0877,1.1,306.1872,306.1873,307.1704,left,1,0.9776,,307.1704,308.1703,5,4,84,10,1,partial,1,images/Ex11.jpg,left,training,hard,1,,,,,
,,,,,5ec702d5d810c61532066427,001,32,female,british,college diploma,2024-03-05_22h21.58.117,CRL1h,2023.2.3,MacIntel,57.14285714,65e67470ae2fbf2172c317b2,65e79a9992c5dc8b5911a62d,,,,,,,,,,,308.1707,1.1,309.2703,309.2703,310.1032,left,1,0.826,,310.1032,311.1039,5,5,85,1,1,partial,1,images/Ex10.jpg,left,training,hard,1,,,,,
,,,,,5ec702d5d810c61532066427,001,32,female,british,college diploma,2024-03-05_22h21.58.117,CRL1h,2023.2.3,MacIntel,57.14285714,65e67470ae2fbf2172c317b2,65e79a9992c5dc8b5911a62d,,,,,,,,,,,311.1043,1.4,312.5034,312.5034,313.22,right,1,0.7153,,313.2201,314.2203,5,6,86,15,1,partial,1,images/Ex16.jpg,right,training,hard,1,,,,,
,,,,,5ec702d5d810c61532066427,001,32,female,british,college diploma,2024-03-05_22h21.58.117,CRL1h,2023.2.3,MacIntel,57.14285714,65e67470ae2fbf2172c317b2,65e79a9992c5dc8b5911a62d,,,,,,,,,,,314.2207,0.9,315.1205,315.1206,317.9862,right,1,2.8594,,317.9863,318.9873,5,7,87,4,1,partial,1,images/Ex13.jpg,right,training,hard,1,,,,,
,,,,,5ec702d5d810c61532066427,001,32,female,british,college diploma,2024-03-05_22h21.58.117,CRL1h,2023.2.3,MacIntel,57.14285714,65e67470ae2fbf2172c317b2,65e79a9992c5dc8b5911a62d,,,,,,,,,,,318.9976,1.2,320.1872,320.1873,321.0039,right,1,0.8113,,321.004,322.0039,5,8,88,7,1,partial,1,images/Ex16.jpg,right,training,hard,1,,,,,
,,,,,5ec702d5d810c61532066427,001,32,female,british,college diploma,2024-03-05_22h21.58.117,CRL1h,2023.2.3,MacIntel,57.14285714,65e67470ae2fbf2172c317b2,65e79a9992c5dc8b5911a62d,,,,,,,,,,,322.0044,0.9,322.9039,322.904,323.5539,right,1,0.6426,,323.554,324.5539,5,9,89,12,1,partial,1,images/Ex13.jpg,right,training,hard,1,,,,,
,,,,,5ec702d5d810c61532066427,001,32,female,british,college diploma,2024-03-05_22h21.58.117,CRL1h,2023.2.3,MacIntel,57.14285714,65e67470ae2fbf2172c317b2,65e79a9992c5dc8b5911a62d,,,,,,,,,,,324.5544,0.6,325.153,325.1531,326.7037,left,0,1.5464,,326.7037,327.7039,5,10,90,6,1,partial,1,images/Ex15.jpg,right,training,hard,1,,,,,
,,,,,5ec702d5d810c61532066427,001,32,female,british,college diploma,2024-03-05_22h21.58.117,CRL1h,2023.2.3,MacIntel,57.14285714,65e67470ae2fbf2172c317b2,65e79a9992c5dc8b5911a62d,,,,,,,,,,,327.7043,0.6,328.304,328.304,329.2041,left,1,0.8905,,329.2041,330.2039,5,11,91,8,1,partial,1,images/Ex9.jpg,left,training,hard,1,,,,,
,,,,,5ec702d5d810c61532066427,001,32,female,british,college diploma,2024-03-05_22h21.58.117,CRL1h,2023.2.3,MacIntel,57.14285714,65e67470ae2fbf2172c317b2,65e79a9992c5dc8b5911a62d,,,,,,,,,,,330.2045,1.2,331.4029,331.403,333.1369,left,1,1.7289,,333.1369,334.1364,5,12,92,11,1,partial,1,images/Ex12.jpg,left,training,hard,1,,,,,
,,,,,5ec702d5d810c61532066427,001,32,female,british,college diploma,2024-03-05_22h21.58.117,CRL1h,2023.2.3,MacIntel,57.14285714,65e67470ae2fbf2172c317b2,65e79a9992c5dc8b5911a62d,,,,,,,,,,,334.1466,1.3,335.4373,335.4373,336.4705,left,1,1.0255,,336.4705,337.4697,5,13,93,3,1,partial,1,images/Ex12.jpg,left,training,hard,1,,,,,
,,,,,5ec702d5d810c61532066427,001,32,female,british,college diploma,2024-03-05_22h21.58.117,CRL1h,2023.2.3,MacIntel,57.14285714,65e67470ae2fbf2172c317b2,65e79a9992c5dc8b5911a62d,,,,,,,,,,,337.4702,0.9,338.37,338.3701,339.5031,right,1,1.1324,,339.5032,340.5026,5,14,94,13,1,partial,1,images/Ex14.jpg,right,training,hard,1,,,,,
,,,,,5ec702d5d810c61532066427,001,32,female,british,college diploma,2024-03-05_22h21.58.117,CRL1h,2023.2.3,MacIntel,57.14285714,65e67470ae2fbf2172c317b2,65e79a9992c5dc8b5911a62d,,,,,,,,,,,340.5028,0.9,341.4039,341.4039,342.2361,left,1,0.8285,,342.2361,343.2373,5,15,95,0,1,partial,1,images/Ex9.jpg,left,training,hard,1,,,,,
,,,,,5ec702d5d810c61532066427,001,32,female,british,college diploma,2024-03-05_22h21.58.117,CRL1h,2023.2.3,MacIntel,57.14285714,65e67470ae2fbf2172c317b2,65e79a9992c5dc8b5911a62d,,,,,,,,,,,343.2378,0.9,344.1368,344.1368,345.2703,right,0,1.1319,,345.2703,346.2704,6,0,96,9,1,partial,1,images/Ex10.jpg,left,training,hard,1,,,,,
,,,,,5ec702d5d810c61532066427,001,32,female,british,college diploma,2024-03-05_22h21.58.117,CRL1h,2023.2.3,MacIntel,57.14285714,65e67470ae2fbf2172c317b2,65e79a9992c5dc8b5911a62d,,,,,,,,,,,346.2708,1.2,347.4704,347.4704,348.2536,left,1,0.7758,,348.2537,349.253,6,1,97,10,1,partial,1,images/Ex11.jpg,left,training,hard,1,,,,,
,,,,,5ec702d5d810c61532066427,001,32,female,british,college diploma,2024-03-05_22h21.58.117,CRL1h,2023.2.3,MacIntel,57.14285714,65e67470ae2fbf2172c317b2,65e79a9992c5dc8b5911a62d,,,,,,,,,,,349.2533,1,350.2537,350.2538,351.1541,right,0,0.8914,,351.1543,352.1536,6,2,98,1,1,partial,1,images/Ex10.jpg,left,training,hard,1,,,,,
,,,,,5ec702d5d810c61532066427,001,32,female,british,college diploma,2024-03-05_22h21.58.117,CRL1h,2023.2.3,MacIntel,57.14285714,65e67470ae2fbf2172c317b2,65e79a9992c5dc8b5911a62d,,,,,,,,,,,352.1537,1.1,353.2541,353.2541,353.9537,left,1,0.695,,353.9537,354.954,6,3,99,2,1,partial,1,images/Ex11.jpg,left,training,hard,1,,,,,
,,,,,5ec702d5d810c61532066427,001,32,female,british,college diploma,2024-03-05_22h21.58.117,CRL1h,2023.2.3,MacIntel,57.14285714,65e67470ae2fbf2172c317b2,65e79a9992c5dc8b5911a62d,,,,,,,,,,,354.9545,0.9,355.854,355.8541,357.8871,left,0,2.0309,,357.8871,358.8873,6,4,100,4,1,partial,1,images/Ex13.jpg,right,training,hard,1,,,,,
,,,,,5ec702d5d810c61532066427,001,32,female,british,college diploma,2024-03-05_22h21.58.117,CRL1h,2023.2.3,MacIntel,57.14285714,65e67470ae2fbf2172c317b2,65e79a9992c5dc8b5911a62d,,,,,,,,,,,358.8976,1.2,360.0866,360.0866,360.8533,left,1,0.7578,,360.8534,361.8539,6,5,101,8,1,partial,1,images/Ex9.jpg,left,training,hard,1,,,,,
,,,,,5ec702d5d810c61532066427,001,32,female,british,college diploma,2024-03-05_22h21.58.117,CRL1h,2023.2.3,MacIntel,57.14285714,65e67470ae2fbf2172c317b2,65e79a9992c5dc8b5911a62d,,,,,,,,,,,361.8544,0.9,362.7539,362.754,363.3707,right,1,0.6073,,363.3707,364.3702,6,6,102,7,1,partial,1,images/Ex16.jpg,right,training,hard,1,,,,,
,,,,,5ec702d5d810c61532066427,001,32,female,british,college diploma,2024-03-05_22h21.58.117,CRL1h,2023.2.3,MacIntel,57.14285714,65e67470ae2fbf2172c317b2,65e79a9992c5dc8b5911a62d,,,,,,,,,,,364.3707,0.9,365.2703,365.2703,366.287,left,1,1.0128,,366.287,367.2867,6,7,103,3,1,partial,1,images/Ex12.jpg,left,training,hard,1,,,,,
,,,,,5ec702d5d810c61532066427,001,32,female,british,college diploma,2024-03-05_22h21.58.117,CRL1h,2023.2.3,MacIntel,57.14285714,65e67470ae2fbf2172c317b2,65e79a9992c5dc8b5911a62d,,,,,,,,,,,367.2871,1.5,368.7874,368.7874,369.804,right,1,1.0088,,369.804,370.804,6,8,104,14,1,partial,1,images/Ex15.jpg,right,training,hard,1,,,,,
,,,,,5ec702d5d810c61532066427,001,32,female,british,college diploma,2024-03-05_22h21.58.117,CRL1h,2023.2.3,MacIntel,57.14285714,65e67470ae2fbf2172c317b2,65e79a9992c5dc8b5911a62d,,,,,,,,,,,370.8044,0.8,371.604,371.6041,372.7201,right,1,1.1126,,372.7201,373.7204,6,9,105,5,1,partial,1,images/Ex14.jpg,right,training,hard,1,,,,,
,,,,,5ec702d5d810c61532066427,001,32,female,british,college diploma,2024-03-05_22h21.58.117,CRL1h,2023.2.3,MacIntel,57.14285714,65e67470ae2fbf2172c317b2,65e79a9992c5dc8b5911a62d,,,,,,,,,,,373.7206,1,374.7203,374.7204,375.9366,left,1,1.209,,375.9366,376.9366,6,10,106,11,1,partial,1,images/Ex12.jpg,left,training,hard,1,,,,,
,,,,,5ec702d5d810c61532066427,001,32,female,british,college diploma,2024-03-05_22h21.58.117,CRL1h,2023.2.3,MacIntel,57.14285714,65e67470ae2fbf2172c317b2,65e79a9992c5dc8b5911a62d,,,,,,,,,,,376.9371,1.4,378.3373,378.3373,379.6201,left,0,1.2737,,379.6201,380.6204,6,11,107,6,1,partial,1,images/Ex15.jpg,right,training,hard,1,,,,,
,,,,,5ec702d5d810c61532066427,001,32,female,british,college diploma,2024-03-05_22h21.58.117,CRL1h,2023.2.3,MacIntel,57.14285714,65e67470ae2fbf2172c317b2,65e79a9992c5dc8b5911a62d,,,,,,,,,,,380.6208,1.4,382.02,382.02,382.9033,left,1,0.8772,,382.9033,383.904,6,12,108,0,1,partial,1,images/Ex9.jpg,left,training,hard,1,,,,,
,,,,,5ec702d5d810c61532066427,001,32,female,british,college diploma,2024-03-05_22h21.58.117,CRL1h,2023.2.3,MacIntel,57.14285714,65e67470ae2fbf2172c317b2,65e79a9992c5dc8b5911a62d,,,,,,,,,,,383.9045,0.9,384.8037,384.8037,385.4205,right,1,0.6142,,385.4206,386.4208,6,13,109,15,1,partial,1,images/Ex16.jpg,right,training,hard,1,,,,,
,,,,,5ec702d5d810c61532066427,001,32,female,british,college diploma,2024-03-05_22h21.58.117,CRL1h,2023.2.3,MacIntel,57.14285714,65e67470ae2fbf2172c317b2,65e79a9992c5dc8b5911a62d,,,,,,,,,,,386.4212,1.1,387.5202,387.5202,388.5875,left,0,1.0588,,388.5876,389.5871,6,14,110,12,1,partial,1,images/Ex13.jpg,right,training,hard,1,,,,,
,,,,,5ec702d5d810c61532066427,001,32,female,british,college diploma,2024-03-05_22h21.58.117,CRL1h,2023.2.3,MacIntel,57.14285714,65e67470ae2fbf2172c317b2,65e79a9992c5dc8b5911a62d,,,,,,,,,,,389.5876,1.2,390.7873,390.7873,391.3543,right,1,0.5622,,391.3543,392.3541,6,15,111,13,1,partial,1,images/Ex14.jpg,right,training,hard,1,,,,,
,,,,,5ec702d5d810c61532066427,001,32,female,british,college diploma,2024-03-05_22h21.58.117,CRL1h,2023.2.3,MacIntel,57.14285714,65e67470ae2fbf2172c317b2,65e79a9992c5dc8b5911a62d,,,,,,,,,,,392.3545,1,393.3537,393.3537,394.2209,left,0,0.8598,,394.221,395.2208,7,0,112,6,1,partial,1,images/Ex15.jpg,right,training,hard,1,,,,,
,,,,,5ec702d5d810c61532066427,001,32,female,british,college diploma,2024-03-05_22h21.58.117,CRL1h,2023.2.3,MacIntel,57.14285714,65e67470ae2fbf2172c317b2,65e79a9992c5dc8b5911a62d,,,,,,,,,,,395.2213,1.1,396.3209,396.3209,397.0043,right,1,0.6749,,397.0044,398.004,7,1,113,14,1,partial,1,images/Ex15.jpg,right,training,hard,1,,,,,
,,,,,5ec702d5d810c61532066427,001,32,female,british,college diploma,2024-03-05_22h21.58.117,CRL1h,2023.2.3,MacIntel,57.14285714,65e67470ae2fbf2172c317b2,65e79a9992c5dc8b5911a62d,,,,,,,,,,,398.0044,1.2,399.2041,399.2041,399.753,right,1,0.5444,,399.7531,400.7537,7,2,114,7,1,partial,1,images/Ex16.jpg,right,training,hard,1,,,,,
,,,,,5ec702d5d810c61532066427,001,32,female,british,college diploma,2024-03-05_22h21.58.117,CRL1h,2023.2.3,MacIntel,57.14285714,65e67470ae2fbf2172c317b2,65e79a9992c5dc8b5911a62d,,,,,,,,,,,400.7539,1.4,402.1541,402.1541,403.3035,left,1,1.1463,,403.3035,404.3041,7,3,115,8,1,partial,1,images/Ex9.jpg,left,training,hard,1,,,,,
,,,,,5ec702d5d810c61532066427,001,32,female,british,college diploma,2024-03-05_22h21.58.117,CRL1h,2023.2.3,MacIntel,57.14285714,65e67470ae2fbf2172c317b2,65e79a9992c5dc8b5911a62d,,,,,,,,,,,404.3046,1.1,405.4041,405.4041,406.6205,left,1,1.2072,,406.6205,407.6208,7,4,116,3,1,partial,1,images/Ex12.jpg,left,training,hard,1,,,,,
,,,,,5ec702d5d810c61532066427,001,32,female,british,college diploma,2024-03-05_22h21.58.117,CRL1h,2023.2.3,MacIntel,57.14285714,65e67470ae2fbf2172c317b2,65e79a9992c5dc8b5911a62d,,,,,,,,,,,407.6213,0.7,408.3209,408.3209,409.454,left,1,1.1289,,409.454,410.4541,7,5,117,2,1,partial,1,images/Ex11.jpg,left,training,hard,1,,,,,
,,,,,5ec702d5d810c61532066427,001,32,female,british,college diploma,2024-03-05_22h21.58.117,CRL1h,2023.2.3,MacIntel,57.14285714,65e67470ae2fbf2172c317b2,65e79a9992c5dc8b5911a62d,,,,,,,,,,,410.4546,1.1,411.5539,411.554,412.1542,right,1,0.5917,,412.1542,413.1538,7,6,118,15,1,partial,1,images/Ex16.jpg,right,training,hard,1,,,,,
,,,,,5ec702d5d810c61532066427,001,32,female,british,college diploma,2024-03-05_22h21.58.117,CRL1h,2023.2.3,MacIntel,57.14285714,65e67470ae2fbf2172c317b2,65e79a9992c5dc8b5911a62d,,,,,,,,,,,413.1543,1.4,414.5541,414.5541,415.0204,right,1,0.463,,415.0204,416.0203,7,7,119,5,1,partial,1,images/Ex14.jpg,right,training,hard,1,,,,,
,,,,,5ec702d5d810c61532066427,001,32,female,british,college diploma,2024-03-05_22h21.58.117,CRL1h,2023.2.3,MacIntel,57.14285714,65e67470ae2fbf2172c317b2,65e79a9992c5dc8b5911a62d,,,,,,,,,,,416.0208,1.4,417.4208,417.4208,419.104,right,1,1.6743,,419.104,420.1028,7,8,120,4,1,partial,1,images/Ex13.jpg,right,training,hard,1,,,,,
,,,,,5ec702d5d810c61532066427,001,32,female,british,college diploma,2024-03-05_22h21.58.117,CRL1h,2023.2.3,MacIntel,57.14285714,65e67470ae2fbf2172c317b2,65e79a9992c5dc8b5911a62d,,,,,,,,,,,420.1102,0.7,420.8038,420.8038,422.0865,right,0,1.2811,,422.0865,423.0876,7,9,121,1,1,partial,1,images/Ex10.jpg,left,training,hard,1,,,,,
,,,,,5ec702d5d810c61532066427,001,32,female,british,college diploma,2024-03-05_22h21.58.117,CRL1h,2023.2.3,MacIntel,57.14285714,65e67470ae2fbf2172c317b2,65e79a9992c5dc8b5911a62d,,,,,,,,,,,423.088,0.8,423.8875,423.8876,425.02,left,1,1.1266,,425.02,426.0199,7,10,122,0,1,partial,1,images/Ex9.jpg,left,training,hard,1,,,,,
,,,,,5ec702d5d810c61532066427,001,32,female,british,college diploma,2024-03-05_22h21.58.117,CRL1h,2023.2.3,MacIntel,57.14285714,65e67470ae2fbf2172c317b2,65e79a9992c5dc8b5911a62d,,,,,,,,,,,426.0293,0.6,426.6209,426.6209,427.4543,right,1,0.8259,,427.4544,428.4542,7,11,123,13,1,partial,1,images/Ex14.jpg,right,training,hard,1,,,,,
,,,,,5ec702d5d810c61532066427,001,32,female,british,college diploma,2024-03-05_22h21.58.117,CRL1h,2023.2.3,MacIntel,57.14285714,65e67470ae2fbf2172c317b2,65e79a9992c5dc8b5911a62d,,,,,,,,,,,428.4548,0.7,429.1542,429.1542,430.8206,right,1,1.6574,,430.8207,431.8207,7,12,124,12,1,partial,1,images/Ex13.jpg,right,training,hard,1,,,,,
,,,,,5ec702d5d810c61532066427,001,32,female,british,college diploma,2024-03-05_22h21.58.117,CRL1h,2023.2.3,MacIntel,57.14285714,65e67470ae2fbf2172c317b2,65e79a9992c5dc8b5911a62d,,,,,,,,,,,431.821,1.5,433.3209,433.3209,434.3203,left,1,0.9976,,434.3203,435.3208,7,13,125,11,1,partial,1,images/Ex12.jpg,left,training,hard,1,,,,,
,,,,,5ec702d5d810c61532066427,001,32,female,british,college diploma,2024-03-05_22h21.58.117,CRL1h,2023.2.3,MacIntel,57.14285714,65e67470ae2fbf2172c317b2,65e79a9992c5dc8b5911a62d,,,,,,,,,,,435.3214,0.5,435.8209,435.821,437.0206,left,1,1.1949,,437.0206,438.0198,7,14,126,10,1,partial,1,images/Ex11.jpg,left,training,hard,1,,,,,
,,,,,5ec702d5d810c61532066427,001,32,female,british,college diploma,2024-03-05_22h21.58.117,CRL1h,2023.2.3,MacIntel,57.14285714,65e67470ae2fbf2172c317b2,65e79a9992c5dc8b5911a62d,,,,,,,,,,,438.0292,0.8,438.8208,438.8209,439.7869,left,1,0.9577,,439.787,440.7875,7,15,127,9,1,partial,1,images/Ex10.jpg,left,training,hard,1,,,,,
,,,,,5ec702d5d810c61532066427,001,32,female,british,college diploma,2024-03-05_22h21.58.117,CRL1h,2023.2.3,MacIntel,57.14285714,65e67470ae2fbf2172c317b2,65e79a9992c5dc8b5911a62d,,,,,,,,,,,440.7931,1.3,442.0866,442.0866,442.7707,right,1,0.6801,,442.7707,443.7709,0,0,0,15,1,partial,2,images/Ex16.jpg,right,nonreversed,hard,1,,,,,
,,,,,5ec702d5d810c61532066427,001,32,female,british,college diploma,2024-03-05_22h21.58.117,CRL1h,2023.2.3,MacIntel,57.14285714,65e67470ae2fbf2172c317b2,65e79a9992c5dc8b5911a62d,,,,,,,,,,,443.7714,1.3,445.0699,445.07,445.8541,right,0,0.7767,,445.8541,446.8542,0,1,1,5,1,partial,2,images/Ex14.jpg,left,reversed,hard,1,,,,,
,,,,,5ec702d5d810c61532066427,001,32,female,british,college diploma,2024-03-05_22h21.58.117,CRL1h,2023.2.3,MacIntel,57.14285714,65e67470ae2fbf2172c317b2,65e79a9992c5dc8b5911a62d,,,,,,,,,,,446.8546,0.8,447.6535,447.6535,448.4532,left,0,0.7988,,448.4532,449.4543,0,2,2,14,1,partial,2,images/Ex15.jpg,right,nonreversed,hard,1,,,,,
,,,,,5ec702d5d810c61532066427,001,32,female,british,college diploma,2024-03-05_22h21.58.117,CRL1h,2023.2.3,MacIntel,57.14285714,65e67470ae2fbf2172c317b2,65e79a9992c5dc8b5911a62d,,,,,,,,,,,449.4547,1.1,450.5543,450.5543,451.2373,left,0,0.6742,,451.2373,452.2376,0,3,3,10,1,partial,2,images/Ex11.jpg,right,reversed,hard,1,,,,,
,,,,,5ec702d5d810c61532066427,001,32,female,british,college diploma,2024-03-05_22h21.58.117,CRL1h,2023.2.3,MacIntel,57.14285714,65e67470ae2fbf2172c317b2,65e79a9992c5dc8b5911a62d,,,,,,,,,,,452.2379,0.5,452.7376,452.7376,453.52,right,0,0.7802,,453.5201,454.5209,0,4,4,12,1,partial,2,images/Ex13.jpg,left,reversed,hard,1,,,,,
,,,,,5ec702d5d810c61532066427,001,32,female,british,college diploma,2024-03-05_22h21.58.117,CRL1h,2023.2.3,MacIntel,57.14285714,65e67470ae2fbf2172c317b2,65e79a9992c5dc8b5911a62d,,,,,,,,,,,454.5213,0.9,455.4209,455.4209,457.7376,left,1,2.3091,,457.7377,458.7375,0,5,5,1,1,partial,2,images/Ex10.jpg,left,nonreversed,hard,1,,,,,
,,,,,5ec702d5d810c61532066427,001,32,female,british,college diploma,2024-03-05_22h21.58.117,CRL1h,2023.2.3,MacIntel,57.14285714,65e67470ae2fbf2172c317b2,65e79a9992c5dc8b5911a62d,,,,,,,,,,,458.747,1.2,459.9376,459.9376,462.1868,left,0,2.2417,,462.1868,463.1872,0,6,6,3,1,partial,2,images/Ex12.jpg,right,reversed,hard,1,,,,,
,,,,,5ec702d5d810c61532066427,001,32,female,british,college diploma,2024-03-05_22h21.58.117,CRL1h,2023.2.3,MacIntel,57.14285714,65e67470ae2fbf2172c317b2,65e79a9992c5dc8b5911a62d,,,,,,,,,,,463.1966,1.3,464.4875,464.4876,465.6876,left,0,1.1907,,465.6876,466.6876,0,7,7,6,1,partial,2,images/Ex15.jpg,right,nonreversed,hard,1,,,,,
,,,,,5ec702d5d810c61532066427,001,32,female,british,college diploma,2024-03-05_22h21.58.117,CRL1h,2023.2.3,MacIntel,57.14285714,65e67470ae2fbf2172c317b2,65e79a9992c5dc8b5911a62d,,,,,,,,,,,466.6881,0.9,467.5876,467.5876,468.4372,left,1,0.8423,,468.4372,469.4372,0,8,8,8,1,partial,2,images/Ex9.jpg,left,nonreversed,hard,1,,,,,
,,,,,5ec702d5d810c61532066427,001,32,female,british,college diploma,2024-03-05_22h21.58.117,CRL1h,2023.2.3,MacIntel,57.14285714,65e67470ae2fbf2172c317b2,65e79a9992c5dc8b5911a62d,,,,,,,,,,,469.4373,0.5,469.9376,469.9376,470.5199,right,1,0.5757,,470.5199,471.5197,0,9,9,7,1,partial,2,images/Ex16.jpg,right,nonreversed,hard,1,,,,,
,,,,,5ec702d5d810c61532066427,001,32,female,british,college diploma,2024-03-05_22h21.58.117,CRL1h,2023.2.3,MacIntel,57.14285714,65e67470ae2fbf2172c317b2,65e79a9992c5dc8b5911a62d,,,,,,,,,,,471.52,0.9,472.421,472.421,473.204,left,1,0.7752,,473.204,474.2043,0,10,10,0,1,partial,2,images/Ex9.jpg,left,nonreversed,hard,1,,,,,
,,,,,5ec702d5d810c61532066427,001,32,female,british,college diploma,2024-03-05_22h21.58.117,CRL1h,2023.2.3,MacIntel,57.14285714,65e67470ae2fbf2172c317b2,65e79a9992c5dc8b5911a62d,,,,,,,,,,,474.2047,1.2,475.4034,475.4035,476.1542,right,0,0.7417,,476.1542,477.1543,0,11,11,13,1,partial,2,images/Ex14.jpg,left,reversed,hard,1,,,,,
,,,,,5ec702d5d810c61532066427,001,32,female,british,college diploma,2024-03-05_22h21.58.117,CRL1h,2023.2.3,MacIntel,57.14285714,65e67470ae2fbf2172c317b2,65e79a9992c5dc8b5911a62d,,,,,,,,,,,477.1547,0.7,477.8535,477.8536,478.7366,right,0,0.8785,,478.7366,479.7379,0,12,12,4,1,partial,2,images/Ex13.jpg,left,reversed,hard,1,,,,,
,,,,,5ec702d5d810c61532066427,001,32,female,british,college diploma,2024-03-05_22h21.58.117,CRL1h,2023.2.3,MacIntel,57.14285714,65e67470ae2fbf2172c317b2,65e79a9992c5dc8b5911a62d,,,,,,,,,,,479.7383,0.7,480.4369,480.4369,481.5212,left,0,1.0758,,481.5212,482.5206,0,13,13,11,1,partial,2,images/Ex12.jpg,right,reversed,hard,1,,,,,
,,,,,5ec702d5d810c61532066427,001,32,female,british,college diploma,2024-03-05_22h21.58.117,CRL1h,2023.2.3,MacIntel,57.14285714,65e67470ae2fbf2172c317b2,65e79a9992c5dc8b5911a62d,,,,,,,,,,,482.5211,0.9,483.4209,483.4209,484.5868,right,0,1.1587,,484.5868,485.5876,0,14,14,9,1,partial,2,images/Ex10.jpg,left,nonreversed,hard,1,,,,,
,,,,,5ec702d5d810c61532066427,001,32,female,british,college diploma,2024-03-05_22h21.58.117,CRL1h,2023.2.3,MacIntel,57.14285714,65e67470ae2fbf2172c317b2,65e79a9992c5dc8b5911a62d,,,,,,,,,,,485.588,1,486.5876,486.5876,487.703,left,0,1.1073,,487.7031,488.7037,0,15,15,2,1,partial,2,images/Ex11.jpg,right,reversed,hard,1,,,,,
,,,,,5ec702d5d810c61532066427,001,32,female,british,college diploma,2024-03-05_22h21.58.117,CRL1h,2023.2.3,MacIntel,57.14285714,65e67470ae2fbf2172c317b2,65e79a9992c5dc8b5911a62d,,,,,,,,,,,488.704,1.4,490.1043,490.1044,491.5207,right,1,1.4123,,491.5207,492.521,1,0,16,3,1,partial,2,images/Ex12.jpg,right,reversed,hard,1,,,,,
,,,,,5ec702d5d810c61532066427,001,32,female,british,college diploma,2024-03-05_22h21.58.117,CRL1h,2023.2.3,MacIntel,57.14285714,65e67470ae2fbf2172c317b2,65e79a9992c5dc8b5911a62d,,,,,,,,,,,492.5215,0.6,493.1207,493.1207,493.6378,right,1,0.5089,,493.6379,494.6374,1,1,17,15,1,partial,2,images/Ex16.jpg,right,nonreversed,hard,1,,,,,
,,,,,5ec702d5d810c61532066427,001,32,female,british,college diploma,2024-03-05_22h21.58.117,CRL1h,2023.2.3,MacIntel,57.14285714,65e67470ae2fbf2172c317b2,65e79a9992c5dc8b5911a62d,,,,,,,,,,,494.6378,0.7,495.3376,495.3377,496.3045,left,0,0.958,,496.3045,497.3043,1,2,18,14,1,partial,2,images/Ex15.jpg,right,nonreversed,hard,1,,,,,
,,,,,5ec702d5d810c61532066427,001,32,female,british,college diploma,2024-03-05_22h21.58.117,CRL1h,2023.2.3,MacIntel,57.14285714,65e67470ae2fbf2172c317b2,65e79a9992c5dc8b5911a62d,,,,,,,,,,,497.3048,0.9,498.2043,498.2043,498.8534,right,1,0.642,,498.8534,499.8539,1,3,19,7,1,partial,2,images/Ex16.jpg,right,nonreversed,hard,1,,,,,
,,,,,5ec702d5d810c61532066427,001,32,female,british,college diploma,2024-03-05_22h21.58.117,CRL1h,2023.2.3,MacIntel,57.14285714,65e67470ae2fbf2172c317b2,65e79a9992c5dc8b5911a62d,,,,,,,,,,,499.8542,1.5,501.3542,501.3542,502.7034,left,1,1.3475,,502.7034,503.7043,1,4,20,0,1,partial,2,images/Ex9.jpg,left,nonreversed,hard,1,,,,,
,,,,,5ec702d5d810c61532066427,001,32,female,british,college diploma,2024-03-05_22h21.58.117,CRL1h,2023.2.3,MacIntel,57.14285714,65e67470ae2fbf2172c317b2,65e79a9992c5dc8b5911a62d,,,,,,,,,,,503.7048,1.4,505.1042,505.1042,506.0704,left,0,0.9602,,506.0704,507.071,1,5,21,11,1,partial,2,images/Ex12.jpg,right,reversed,hard,1,,,,,
,,,,,5ec702d5d810c61532066427,001,32,female,british,college diploma,2024-03-05_22h21.58.117,CRL1h,2023.2.3,MacIntel,57.14285714,65e67470ae2fbf2172c317b2,65e79a9992c5dc8b5911a62d,,,,,,,,,,,507.0714,0.7,507.7699,507.77,509.1541,left,0,1.3779,,509.1541,510.1539,1,6,22,2,1,partial,2,images/Ex11.jpg,right,reversed,hard,1,,,,,
,,,,,5ec702d5d810c61532066427,001,32,female,british,college diploma,2024-03-05_22h21.58.117,CRL1h,2023.2.3,MacIntel,57.14285714,65e67470ae2fbf2172c317b2,65e79a9992c5dc8b5911a62d,,,,,,,,,,,510.1609,0.8,510.9534,510.9534,511.6046,right,1,0.6423,,511.6046,512.6043,1,7,23,10,1,partial,2,images/Ex11.jpg,right,reversed,hard,1,,,,,
,,,,,5ec702d5d810c61532066427,001,32,female,british,college diploma,2024-03-05_22h21.58.117,CRL1h,2023.2.3,MacIntel,57.14285714,65e67470ae2fbf2172c317b2,65e79a9992c5dc8b5911a62d,,,,,,,,,,,512.6045,1.2,513.8031,513.8031,515.321,left,1,1.513,,515.321,516.3202,1,8,24,9,1,partial,2,images/Ex10.jpg,left,nonreversed,hard,1,,,,,
,,,,,5ec702d5d810c61532066427,001,32,female,british,college diploma,2024-03-05_22h21.58.117,CRL1h,2023.2.3,MacIntel,57.14285714,65e67470ae2fbf2172c317b2,65e79a9992c5dc8b5911a62d,,,,,,,,,,,516.33,0.7,517.0209,517.021,518.6374,left,1,1.6122,,518.6375,519.6368,1,9,25,12,1,partial,2,images/Ex13.jpg,left,reversed,hard,1,,,,,
,,,,,5ec702d5d810c61532066427,001,32,female,british,college diploma,2024-03-05_22h21.58.117,CRL1h,2023.2.3,MacIntel,57.14285714,65e67470ae2fbf2172c317b2,65e79a9992c5dc8b5911a62d,,,,,,,,,,,519.6371,0.7,520.3377,520.3377,521.2378,left,1,0.8913,,521.2379,522.2374,1,10,26,5,1,partial,2,images/Ex14.jpg,left,reversed,hard,1,,,,,
,,,,,5ec702d5d810c61532066427,001,32,female,british,college diploma,2024-03-05_22h21.58.117,CRL1h,2023.2.3,MacIntel,57.14285714,65e67470ae2fbf2172c317b2,65e79a9992c5dc8b5911a62d,,,,,,,,,,,522.2377,0.8,523.0377,523.0378,524.3877,left,0,1.3422,,524.3877,525.3874,1,11,27,6,1,partial,2,images/Ex15.jpg,right,nonreversed,hard,1,,,,,
,,,,,5ec702d5d810c61532066427,001,32,female,british,college diploma,2024-03-05_22h21.58.117,CRL1h,2023.2.3,MacIntel,57.14285714,65e67470ae2fbf2172c317b2,65e79a9992c5dc8b5911a62d,,,,,,,,,,,525.3876,1.2,526.5877,526.5877,527.4209,left,1,0.8289,,527.421,528.421,1,12,28,4,1,partial,2,images/Ex13.jpg,left,reversed,hard,1,,,,,
,,,,,5ec702d5d810c61532066427,001,32,female,british,college diploma,2024-03-05_22h21.58.117,CRL1h,2023.2.3,MacIntel,57.14285714,65e67470ae2fbf2172c317b2,65e79a9992c5dc8b5911a62d,,,,,,,,,,,528.4215,0.7,529.121,529.1211,529.9879,left,1,0.8576,,529.988,530.9863,1,13,29,8,1,partial,2,images/Ex9.jpg,left,nonreversed,hard,1,,,,,
,,,,,5ec702d5d810c61532066427,001,32,female,british,college diploma,2024-03-05_22h21.58.117,CRL1h,2023.2.3,MacIntel,57.14285714,65e67470ae2fbf2172c317b2,65e79a9992c5dc8b5911a62d,,,,,,,,,,,530.9866,1.2,532.1877,532.1877,533.2878,right,0,1.0902,,533.2879,534.2874,1,14,30,1,1,partial,2,images/Ex10.jpg,left,nonreversed,hard,1,,,,,
,,,,,5ec702d5d810c61532066427,001,32,female,british,college diploma,2024-03-05_22h21.58.117,CRL1h,2023.2.3,MacIntel,57.14285714,65e67470ae2fbf2172c317b2,65e79a9992c5dc8b5911a62d,,,,,,,,,,,534.2878,1.2,535.4875,535.4876,536.1713,right,0,0.6751,,536.1713,537.171,1,15,31,13,1,partial,2,images/Ex14.jpg,left,reversed,hard,1,,,,,
,,,,,5ec702d5d810c61532066427,001,32,female,british,college diploma,2024-03-05_22h21.58.117,CRL1h,2023.2.3,MacIntel,57.14285714,65e67470ae2fbf2172c317b2,65e79a9992c5dc8b5911a62d,,,,,,,,,,,537.1715,1.2,538.3712,538.3712,539.5698,right,1,1.1977,,539.5698,540.5701,2,0,32,10,1,partial,2,images/Ex11.jpg,right,reversed,hard,1,,,,,
,,,,,5ec702d5d810c61532066427,001,32,female,british,college diploma,2024-03-05_22h21.58.117,CRL1h,2023.2.3,MacIntel,57.14285714,65e67470ae2fbf2172c317b2,65e79a9992c5dc8b5911a62d,,,,,,,,,,,540.5705,1.1,541.6706,541.6707,542.3878,left,1,0.7096,,542.3879,543.3866,2,1,33,12,1,partial,2,images/Ex13.jpg,left,reversed,hard,1,,,,,
,,,,,5ec702d5d810c61532066427,001,32,female,british,college diploma,2024-03-05_22h21.58.117,CRL1h,2023.2.3,MacIntel,57.14285714,65e67470ae2fbf2172c317b2,65e79a9992c5dc8b5911a62d,,,,,,,,,,,543.387,0.8,544.1877,544.1877,544.9373,left,1,0.7445,,544.9373,545.9364,2,2,34,4,1,partial,2,images/Ex13.jpg,left,reversed,hard,1,,,,,
,,,,,5ec702d5d810c61532066427,001,32,female,british,college diploma,2024-03-05_22h21.58.117,CRL1h,2023.2.3,MacIntel,57.14285714,65e67470ae2fbf2172c317b2,65e79a9992c5dc8b5911a62d,,,,,,,,,,,545.9365,1.4,547.3376,547.3376,548.1373,left,1,0.7911,,548.1373,549.1366,2,3,35,9,1,partial,2,images/Ex10.jpg,left,nonreversed,hard,1,,,,,
,,,,,5ec702d5d810c61532066427,001,32,female,british,college diploma,2024-03-05_22h21.58.117,CRL1h,2023.2.3,MacIntel,57.14285714,65e67470ae2fbf2172c317b2,65e79a9992c5dc8b5911a62d,,,,,,,,,,,549.1369,0.9,550.0379,550.0379,550.938,left,1,0.89,,550.938,551.9375,2,4,36,0,1,partial,2,images/Ex9.jpg,left,nonreversed,hard,1,,,,,
,,,,,5ec702d5d810c61532066427,001,32,female,british,college diploma,2024-03-05_22h21.58.117,CRL1h,2023.2.3,MacIntel,57.14285714,65e67470ae2fbf2172c317b2,65e79a9992c5dc8b5911a62d,,,,,,,,,,,551.9378,1,552.9377,552.9378,553.4878,right,1,0.5424,,553.4879,554.4878,2,5,37,15,1,partial,2,images/Ex16.jpg,right,nonreversed,hard,1,,,,,
,,,,,5ec702d5d810c61532066427,001,32,female,british,college diploma,2024-03-05_22h21.58.117,CRL1h,2023.2.3,MacIntel,57.14285714,65e67470ae2fbf2172c317b2,65e79a9992c5dc8b5911a62d,,,,,,,,,,,554.4883,0.8,555.2877,555.2878,556.087,left,1,0.7967,,556.087,557.0877,2,6,38,1,1,partial,2,images/Ex10.jpg,left,nonreversed,hard,1,,,,,
,,,,,5ec702d5d810c61532066427,001,32,female,british,college diploma,2024-03-05_22h21.58.117,CRL1h,2023.2.3,MacIntel,57.14285714,65e67470ae2fbf2172c317b2,65e79a9992c5dc8b5911a62d,,,,,,,,,,,557.0879,0.7,557.7877,557.7878,558.7213,left,1,0.9278,,558.7213,559.7211,2,7,39,13,1,partial,2,images/Ex14.jpg,left,reversed,hard,1,,,,,
,,,,,5ec702d5d810c61532066427,001,32,female,british,college diploma,2024-03-05_22h21.58.117,CRL1h,2023.2.3,MacIntel,57.14285714,65e67470ae2fbf2172c317b2,65e79a9992c5dc8b5911a62d,,,,,,,,,,,559.7216,1,560.7211,560.7212,562.5208,left,0,1.794,,562.5208,563.5211,2,8,40,3,1,partial,2,images/Ex12.jpg,right,reversed,hard,1,,,,,
,,,,,5ec702d5d810c61532066427,001,32,female,british,college diploma,2024-03-05_22h21.58.117,CRL1h,2023.2.3,MacIntel,57.14285714,65e67470ae2fbf2172c317b2,65e79a9992c5dc8b5911a62d,,,,,,,,,,,563.5216,0.9,564.4201,564.4201,565.1205,left,1,0.6944,,565.1206,566.1202,2,9,41,8,1,partial,2,images/Ex9.jpg,left,nonreversed,hard,1,,,,,
,,,,,5ec702d5d810c61532066427,001,32,female,british,college diploma,2024-03-05_22h21.58.117,CRL1h,2023.2.3,MacIntel,57.14285714,65e67470ae2fbf2172c317b2,65e79a9992c5dc8b5911a62d,,,,,,,,,,,566.1205,1,567.1211,567.1211,568.071,left,0,0.9453,,568.071,569.0711,2,10,42,14,1,partial,2,images/Ex15.jpg,right,nonreversed,hard,1,,,,,
,,,,,5ec702d5d810c61532066427,001,32,female,british,college diploma,2024-03-05_22h21.58.117,CRL1h,2023.2.3,MacIntel,57.14285714,65e67470ae2fbf2172c317b2,65e79a9992c5dc8b5911a62d,,,,,,,,,,,569.0715,1.3,570.3705,570.3705,571.3366,right,1,0.9582,,571.3366,572.3378,2,11,43,6,1,partial,2,images/Ex15.jpg,right,nonreversed,hard,1,,,,,
,,,,,5ec702d5d810c61532066427,001,32,female,british,college diploma,2024-03-05_22h21.58.117,CRL1h,2023.2.3,MacIntel,57.14285714,65e67470ae2fbf2172c317b2,65e79a9992c5dc8b5911a62d,,,,,,,,,,,572.3383,0.6,572.9377,572.9377,573.6874,right,1,0.7409,,573.6875,574.6878,2,12,44,11,1,partial,2,images/Ex12.jpg,right,reversed,hard,1,,,,,
,,,,,5ec702d5d810c61532066427,001,32,female,british,college diploma,2024-03-05_22h21.58.117,CRL1h,2023.2.3,MacIntel,57.14285714,65e67470ae2fbf2172c317b2,65e79a9992c5dc8b5911a62d,,,,,,,,,,,574.6881,1.5,576.1878,576.1878,577.8699,left,1,1.6747,,577.87,578.8701,2,13,45,5,1,partial,2,images/Ex14.jpg,left,reversed,hard,1,,,,,
,,,,,5ec702d5d810c61532066427,001,32,female,british,college diploma,2024-03-05_22h21.58.117,CRL1h,2023.2.3,MacIntel,57.14285714,65e67470ae2fbf2172c317b2,65e79a9992c5dc8b5911a62d,,,,,,,,,,,578.8703,0.7,579.5708,579.5709,580.1708,right,1,0.5959,,580.1708,581.1705,2,14,46,7,1,partial,2,images/Ex16.jpg,right,nonreversed,hard,1,,,,,
,,,,,5ec702d5d810c61532066427,001,32,female,british,college diploma,2024-03-05_22h21.58.117,CRL1h,2023.2.3,MacIntel,57.14285714,65e67470ae2fbf2172c317b2,65e79a9992c5dc8b5911a62d,,,,,,,,,,,581.1708,1.3,582.4703,582.4704,583.621,right,1,1.1453,,583.621,584.6213,2,15,47,2,1,partial,2,images/Ex11.jpg,right,reversed,hard,1,,,,,
,,,,,5ec702d5d810c61532066427,001,32,female,british,college diploma,2024-03-05_22h21.58.117,CRL1h,2023.2.3,MacIntel,57.14285714,65e67470ae2fbf2172c317b2,65e79a9992c5dc8b5911a62d,,,,,,,,,,,584.6217,0.7,585.3211,585.3211,586.171,left,1,0.842,,586.1711,587.1709,3,0,48,0,1,partial,2,images/Ex9.jpg,left,nonreversed,hard,1,,,,,
,,,,,5ec702d5d810c61532066427,001,32,female,british,college diploma,2024-03-05_22h21.58.117,CRL1h,2023.2.3,MacIntel,57.14285714,65e67470ae2fbf2172c317b2,65e79a9992c5dc8b5911a62d,,,,,,,,,,,587.1712,1,588.171,588.171,588.9702,left,0,0.7932,,588.9703,589.9712,3,1,49,2,1,partial,2,images/Ex11.jpg,right,reversed,hard,1,,,,,
,,,,,5ec702d5d810c61532066427,001,32,female,british,college diploma,2024-03-05_22h21.58.117,CRL1h,2023.2.3,MacIntel,57.14285714,65e67470ae2fbf2172c317b2,65e79a9992c5dc8b5911a62d,,,,,,,,,,,589.9718,0.5,590.4711,590.4712,591.0042,right,1,0.5287,,591.0042,592.0045,3,2,50,7,1,partial,2,images/Ex16.jpg,right,nonreversed,hard,1,,,,,
,,,,,5ec702d5d810c61532066427,001,32,female,british,college diploma,2024-03-05_22h21.58.117,CRL1h,2023.2.3,MacIntel,57.14285714,65e67470ae2fbf2172c317b2,65e79a9992c5dc8b5911a62d,,,,,,,,,,,592.0048,1,593.0036,593.0036,594.1208,left,1,1.1119,,594.1208,595.1211,3,3,51,9,1,partial,2,images/Ex10.jpg,left,nonreversed,hard,1,,,,,
,,,,,5ec702d5d810c61532066427,001,32,female,british,college diploma,2024-03-05_22h21.58.117,CRL1h,2023.2.3,MacIntel,57.14285714,65e67470ae2fbf2172c317b2,65e79a9992c5dc8b5911a62d,,,,,,,,,,,595.1216,0.7,595.8211,595.8212,596.5041,left,1,0.6807,,596.5042,597.5045,3,4,52,5,1,partial,2,images/Ex14.jpg,left,reversed,hard,1,,,,,
,,,,,5ec702d5d810c61532066427,001,32,female,british,college diploma,2024-03-05_22h21.58.117,CRL1h,2023.2.3,MacIntel,57.14285714,65e67470ae2fbf2172c317b2,65e79a9992c5dc8b5911a62d,,,,,,,,,,,597.5048,0.8,598.3045,598.3045,599.821,left,0,1.5089,,599.821,600.8206,3,5,53,6,1,partial,2,images/Ex15.jpg,right,nonreversed,hard,1,,,,,
,,,,,5ec702d5d810c61532066427,001,32,female,british,college diploma,2024-03-05_22h21.58.117,CRL1h,2023.2.3,MacIntel,57.14285714,65e67470ae2fbf2172c317b2,65e79a9992c5dc8b5911a62d,,,,,,,,,,,600.8211,1.1,601.9209,601.9209,602.6209,left,1,0.6917,,602.621,603.6202,3,6,54,8,1,partial,2,images/Ex9.jpg,left,nonreversed,hard,1,,,,,
,,,,,5ec702d5d810c61532066427,001,32,female,british,college diploma,2024-03-05_22h21.58.117,CRL1h,2023.2.3,MacIntel,57.14285714,65e67470ae2fbf2172c317b2,65e79a9992c5dc8b5911a62d,,,,,,,,,,,603.6205,0.8,604.4209,604.421,605.1206,left,1,0.6926,,605.1207,606.1202,3,7,55,13,1,partial,2,images/Ex14.jpg,left,reversed,hard,1,,,,,
,,,,,5ec702d5d810c61532066427,001,32,female,british,college diploma,2024-03-05_22h21.58.117,CRL1h,2023.2.3,MacIntel,57.14285714,65e67470ae2fbf2172c317b2,65e79a9992c5dc8b5911a62d,,,,,,,,,,,606.1207,1,607.1211,607.1212,607.9709,left,1,0.8472,,607.971,608.9711,3,8,56,12,1,partial,2,images/Ex13.jpg,left,reversed,hard,1,,,,,
,,,,,5ec702d5d810c61532066427,001,32,female,british,college diploma,2024-03-05_22h21.58.117,CRL1h,2023.2.3,MacIntel,57.14285714,65e67470ae2fbf2172c317b2,65e79a9992c5dc8b5911a62d,,,,,,,,,,,608.9716,1.1,610.0712,610.0712,610.7036,right,1,0.63,,610.7036,611.7033,3,9,57,15,1,partial,2,images/Ex16.jpg,right,nonreversed,hard,1,,,,,
,,,,,5ec702d5d810c61532066427,001,32,female,british,college diploma,2024-03-05_22h21.58.117,CRL1h,2023.2.3,MacIntel,57.14285714,65e67470ae2fbf2172c317b2,65e79a9992c5dc8b5911a62d,,,,,,,,,,,611.7034,0.5,612.2041,612.2041,613.0366,left,1,0.8262,,613.0366,614.0376,3,10,58,1,1,partial,2,images/Ex10.jpg,left,nonreversed,hard,1,,,,,
,,,,,5ec702d5d810c61532066427,001,32,female,british,college diploma,2024-03-05_22h21.58.117,CRL1h,2023.2.3,MacIntel,57.14285714,65e67470ae2fbf2172c317b2,65e79a9992c5dc8b5911a62d,,,,,,,,,,,614.038,0.8,614.8378,614.8379,615.5042,left,1,0.6583,,615.5042,616.5046,3,11,59,4,1,partial,2,images/Ex13.jpg,left,reversed,hard,1,,,,,
,,,,,5ec702d5d810c61532066427,001,32,female,british,college diploma,2024-03-05_22h21.58.117,CRL1h,2023.2.3,MacIntel,57.14285714,65e67470ae2fbf2172c317b2,65e79a9992c5dc8b5911a62d,,,,,,,,,,,616.5049,0.6,617.1045,617.1046,617.588,right,1,0.4744,,617.588,618.5879,3,12,60,14,1,partial,2,images/Ex15.jpg,right,nonreversed,hard,1,,,,,
,,,,,5ec702d5d810c61532066427,001,32,female,british,college diploma,2024-03-05_22h21.58.117,CRL1h,2023.2.3,MacIntel,57.14285714,65e67470ae2fbf2172c317b2,65e79a9992c5dc8b5911a62d,,,,,,,,,,,618.5883,1.2,619.7868,619.7868,621.3547,right,1,1.5592,,621.3548,622.3546,3,13,61,3,1,partial,2,images/Ex12.jpg,right,reversed,hard,1,,,,,
,,,,,5ec702d5d810c61532066427,001,32,female,british,college diploma,2024-03-05_22h21.58.117,CRL1h,2023.2.3,MacIntel,57.14285714,65e67470ae2fbf2172c317b2,65e79a9992c5dc8b5911a62d,,,,,,,,,,,622.3651,0.5,622.8541,622.8541,624.4879,right,1,1.6289,,624.4879,625.4878,3,14,62,10,1,partial,2,images/Ex11.jpg,right,reversed,hard,1,,,,,
,,,,,5ec702d5d810c61532066427,001,32,female,british,college diploma,2024-03-05_22h21.58.117,CRL1h,2023.2.3,MacIntel,57.14285714,65e67470ae2fbf2172c317b2,65e79a9992c5dc8b5911a62d,,,,,,,,,,,625.4881,0.9,626.3875,626.3876,627.0704,right,1,0.6791,,627.0704,628.0706,3,15,63,11,1,partial,2,images/Ex12.jpg,right,reversed,hard,1,,,,,
,,,,,5ec702d5d810c61532066427,001,32,female,british,college diploma,2024-03-05_22h21.58.117,CRL1h,2023.2.3,MacIntel,57.14285714,65e67470ae2fbf2172c317b2,65e79a9992c5dc8b5911a62d,,,,,,628.0711,644.8876,space,16.7988,,644.8992,1.2,646.0877,646.0878,647.9548,left,1,1.8582,,647.9548,648.9535,0,0,0,9,1,total,1,images/Ex2.jpg,left,training,hard,1,,,,,
,,,,,5ec702d5d810c61532066427,001,32,female,british,college diploma,2024-03-05_22h21.58.117,CRL1h,2023.2.3,MacIntel,57.14285714,65e67470ae2fbf2172c317b2,65e79a9992c5dc8b5911a62d,,,,,,,,,,,648.9619,1,649.9546,649.9546,650.6212,right,1,0.6584,,650.6212,651.6213,0,1,1,6,1,total,1,images/Ex7.jpg,right,training,hard,1,,,,,
,,,,,5ec702d5d810c61532066427,001,32,female,british,college diploma,2024-03-05_22h21.58.117,CRL1h,2023.2.3,MacIntel,57.14285714,65e67470ae2fbf2172c317b2,65e79a9992c5dc8b5911a62d,,,,,,,,,,,651.6217,1.5,653.1213,653.1213,653.7379,left,1,0.608,,653.7379,654.7379,0,2,2,11,1,total,1,images/Ex4.jpg,left,training,hard,1,,,,,
,,,,,5ec702d5d810c61532066427,001,32,female,british,college diploma,2024-03-05_22h21.58.117,CRL1h,2023.2.3,MacIntel,57.14285714,65e67470ae2fbf2172c317b2,65e79a9992c5dc8b5911a62d,,,,,,,,,,,654.7383,1.1,655.8379,655.8379,656.4544,right,1,0.6075,,656.4545,657.4541,0,3,3,15,1,total,1,images/Ex8.jpg,right,training,hard,1,,,,,
,,,,,5ec702d5d810c61532066427,001,32,female,british,college diploma,2024-03-05_22h21.58.117,CRL1h,2023.2.3,MacIntel,57.14285714,65e67470ae2fbf2172c317b2,65e79a9992c5dc8b5911a62d,,,,,,,,,,,657.4544,1.1,658.5544,658.5544,659.3201,left,1,0.7628,,659.3201,660.3202,0,4,4,0,1,total,1,images/Ex1.jpg,left,training,hard,1,,,,,
,,,,,5ec702d5d810c61532066427,001,32,female,british,college diploma,2024-03-05_22h21.58.117,CRL1h,2023.2.3,MacIntel,57.14285714,65e67470ae2fbf2172c317b2,65e79a9992c5dc8b5911a62d,,,,,,,,,,,660.3205,0.6,660.9204,660.9205,661.9867,right,1,1.058,,661.9867,662.9879,0,5,5,12,1,total,1,images/Ex5.jpg,right,training,hard,1,,,,,
,,,,,5ec702d5d810c61532066427,001,32,female,british,college diploma,2024-03-05_22h21.58.117,CRL1h,2023.2.3,MacIntel,57.14285714,65e67470ae2fbf2172c317b2,65e79a9992c5dc8b5911a62d,,,,,,,,,,,662.9884,0.5,663.4879,663.488,664.2376,right,1,0.7465,,664.2376,665.2373,0,6,6,13,1,total,1,images/Ex6.jpg,right,training,hard,1,,,,,
,,,,,5ec702d5d810c61532066427,001,32,female,british,college diploma,2024-03-05_22h21.58.117,CRL1h,2023.2.3,MacIntel,57.14285714,65e67470ae2fbf2172c317b2,65e79a9992c5dc8b5911a62d,,,,,,,,,,,665.2375,0.9,666.1375,666.1376,666.7378,left,0,0.5916,,666.7378,667.737,0,7,7,7,1,total,1,images/Ex8.jpg,right,training,hard,1,,,,,
,,,,,5ec702d5d810c61532066427,001,32,female,british,college diploma,2024-03-05_22h21.58.117,CRL1h,2023.2.3,MacIntel,57.14285714,65e67470ae2fbf2172c317b2,65e79a9992c5dc8b5911a62d,,,,,,,,,,,667.7374,0.8,668.538,668.538,669.3881,right,0,0.843,,669.3881,670.388,0,8,8,3,1,total,1,images/Ex4.jpg,left,training,hard,1,,,,,
,,,,,5ec702d5d810c61532066427,001,32,female,british,college diploma,2024-03-05_22h21.58.117,CRL1h,2023.2.3,MacIntel,57.14285714,65e67470ae2fbf2172c317b2,65e79a9992c5dc8b5911a62d,,,,,,,,,,,670.3884,0.8,671.1876,671.1876,672.0043,right,1,0.8149,,672.0043,673.0046,0,9,9,5,1,total,1,images/Ex6.jpg,right,training,hard,1,,,,,
,,,,,5ec702d5d810c61532066427,001,32,female,british,college diploma,2024-03-05_22h21.58.117,CRL1h,2023.2.3,MacIntel,57.14285714,65e67470ae2fbf2172c317b2,65e79a9992c5dc8b5911a62d,,,,,,,,,,,673.0051,1.2,674.2046,674.2047,674.9547,left,1,0.745,,674.9547,675.9547,0,10,10,10,1,total,1,images/Ex3.jpg,left,training,hard,1,,,,,
,,,,,5ec702d5d810c61532066427,001,32,female,british,college diploma,2024-03-05_22h21.58.117,CRL1h,2023.2.3,MacIntel,57.14285714,65e67470ae2fbf2172c317b2,65e79a9992c5dc8b5911a62d,,,,,,,,,,,675.9553,0.5,676.4537,676.4537,677.0545,left,1,0.5936,,677.0545,678.0546,0,11,11,2,1,total,1,images/Ex3.jpg,left,training,hard,1,,,,,
,,,,,5ec702d5d810c61532066427,001,32,female,british,college diploma,2024-03-05_22h21.58.117,CRL1h,2023.2.3,MacIntel,57.14285714,65e67470ae2fbf2172c317b2,65e79a9992c5dc8b5911a62d,,,,,,,,,,,678.0549,0.6,678.6546,678.6547,679.404,right,1,0.7417,,679.404,680.4047,0,12,12,14,1,total,1,images/Ex7.jpg,right,training,hard,1,,,,,
,,,,,5ec702d5d810c61532066427,001,32,female,british,college diploma,2024-03-05_22h21.58.117,CRL1h,2023.2.3,MacIntel,57.14285714,65e67470ae2fbf2172c317b2,65e79a9992c5dc8b5911a62d,,,,,,,,,,,680.4051,0.8,681.2038,681.2038,682.487,left,1,1.2789,,682.4871,683.4869,0,13,13,1,1,total,1,images/Ex2.jpg,left,training,hard,1,,,,,
,,,,,5ec702d5d810c61532066427,001,32,female,british,college diploma,2024-03-05_22h21.58.117,CRL1h,2023.2.3,MacIntel,57.14285714,65e67470ae2fbf2172c317b2,65e79a9992c5dc8b5911a62d,,,,,,,,,,,683.4873,0.7,684.188,684.188,684.8882,right,0,0.6906,,684.8883,685.8881,0,14,14,8,1,total,1,images/Ex1.jpg,left,training,hard,1,,,,,
,,,,,5ec702d5d810c61532066427,001,32,female,british,college diploma,2024-03-05_22h21.58.117,CRL1h,2023.2.3,MacIntel,57.14285714,65e67470ae2fbf2172c317b2,65e79a9992c5dc8b5911a62d,,,,,,,,,,,685.8885,1.4,687.2883,687.2883,688.1375,left,0,0.8408,,688.1375,689.1377,0,15,15,4,1,total,1,images/Ex5.jpg,right,training,hard,1,,,,,
,,,,,5ec702d5d810c61532066427,001,32,female,british,college diploma,2024-03-05_22h21.58.117,CRL1h,2023.2.3,MacIntel,57.14285714,65e67470ae2fbf2172c317b2,65e79a9992c5dc8b5911a62d,,,,,,,,,,,689.1379,0.9,690.038,690.038,691.254,right,1,1.2075,,691.254,692.2535,1,0,16,6,1,total,1,images/Ex7.jpg,right,training,hard,1,,,,,
,,,,,5ec702d5d810c61532066427,001,32,female,british,college diploma,2024-03-05_22h21.58.117,CRL1h,2023.2.3,MacIntel,57.14285714,65e67470ae2fbf2172c317b2,65e79a9992c5dc8b5911a62d,,,,,,,,,,,692.2537,1.4,693.6536,693.6536,695.7217,left,1,2.0601,,695.7218,696.7213,1,1,17,3,1,total,1,images/Ex4.jpg,left,training,hard,1,,,,,
,,,,,5ec702d5d810c61532066427,001,32,female,british,college diploma,2024-03-05_22h21.58.117,CRL1h,2023.2.3,MacIntel,57.14285714,65e67470ae2fbf2172c317b2,65e79a9992c5dc8b5911a62d,,,,,,,,,,,696.7218,0.6,697.3213,697.3214,698.7382,left,0,1.4077,,698.7383,699.7371,1,2,18,12,1,total,1,images/Ex5.jpg,right,training,hard,1,,,,,
,,,,,5ec702d5d810c61532066427,001,32,female,british,college diploma,2024-03-05_22h21.58.117,CRL1h,2023.2.3,MacIntel,57.14285714,65e67470ae2fbf2172c317b2,65e79a9992c5dc8b5911a62d,,,,,,,,,,,699.7374,0.6,700.3376,700.3377,702.005,right,0,1.6614,,702.005,703.0047,1,3,19,11,1,total,1,images/Ex4.jpg,left,training,hard,1,,,,,
,,,,,5ec702d5d810c61532066427,001,32,female,british,college diploma,2024-03-05_22h21.58.117,CRL1h,2023.2.3,MacIntel,57.14285714,65e67470ae2fbf2172c317b2,65e79a9992c5dc8b5911a62d,,,,,,,,,,,703.0154,1.5,704.5038,704.5038,705.2206,right,0,0.7088,,705.2206,706.2208,1,4,20,2,1,total,1,images/Ex3.jpg,left,training,hard,1,,,,,
,,,,,5ec702d5d810c61532066427,001,32,female,british,college diploma,2024-03-05_22h21.58.117,CRL1h,2023.2.3,MacIntel,57.14285714,65e67470ae2fbf2172c317b2,65e79a9992c5dc8b5911a62d,,,,,,,,,,,706.2211,1.2,707.4209,707.4209,708.1045,left,1,0.6763,,708.1046,709.1044,1,5,21,0,1,total,1,images/Ex1.jpg,left,training,hard,1,,,,,
,,,,,5ec702d5d810c61532066427,001,32,female,british,college diploma,2024-03-05_22h21.58.117,CRL1h,2023.2.3,MacIntel,57.14285714,65e67470ae2fbf2172c317b2,65e79a9992c5dc8b5911a62d,,,,,,,,,,,709.1048,1.1,710.2045,710.2045,710.6712,right,1,0.4619,,710.6712,711.6707,1,6,22,14,1,total,1,images/Ex7.jpg,right,training,hard,1,,,,,
,,,,,5ec702d5d810c61532066427,001,32,female,british,college diploma,2024-03-05_22h21.58.117,CRL1h,2023.2.3,MacIntel,57.14285714,65e67470ae2fbf2172c317b2,65e79a9992c5dc8b5911a62d,,,,,,,,,,,711.671,1.5,713.1702,713.1702,713.9541,left,0,0.7822,,713.9541,714.9545,1,7,23,5,1,total,1,images/Ex6.jpg,right,training,hard,1,,,,,
,,,,,5ec702d5d810c61532066427,001,32,female,british,college diploma,2024-03-05_22h21.58.117,CRL1h,2023.2.3,MacIntel,57.14285714,65e67470ae2fbf2172c317b2,65e79a9992c5dc8b5911a62d,,,,,,,,,,,714.9548,0.9,715.8544,715.8544,716.9879,left,1,1.125,,716.9879,717.9877,1,8,24,1,1,total,1,images/Ex2.jpg,left,training,hard,1,,,,,
,,,,,5ec702d5d810c61532066427,001,32,female,british,college diploma,2024-03-05_22h21.58.117,CRL1h,2023.2.3,MacIntel,57.14285714,65e67470ae2fbf2172c317b2,65e79a9992c5dc8b5911a62d,,,,,,,,,,,717.9881,1.3,719.2877,719.2877,720.0712,right,0,0.7747,,720.0712,721.071,1,9,25,10,1,total,1,images/Ex3.jpg,left,training,hard,1,,,,,
,,,,,5ec702d5d810c61532066427,001,32,female,british,college diploma,2024-03-05_22h21.58.117,CRL1h,2023.2.3,MacIntel,57.14285714,65e67470ae2fbf2172c317b2,65e79a9992c5dc8b5911a62d,,,,,,,,,,,721.0713,1.3,722.3702,722.3702,723.0377,left,1,0.6625,,723.0378,724.0371,1,10,26,8,1,total,1,images/Ex1.jpg,left,training,hard,1,,,,,
,,,,,5ec702d5d810c61532066427,001,32,female,british,college diploma,2024-03-05_22h21.58.117,CRL1h,2023.2.3,MacIntel,57.14285714,65e67470ae2fbf2172c317b2,65e79a9992c5dc8b5911a62d,,,,,,,,,,,724.0376,0.5,724.5373,724.5373,725.2211,left,1,0.675,,725.2212,726.2213,1,11,27,9,1,total,1,images/Ex2.jpg,left,training,hard,1,,,,,
,,,,,5ec702d5d810c61532066427,001,32,female,british,college diploma,2024-03-05_22h21.58.117,CRL1h,2023.2.3,MacIntel,57.14285714,65e67470ae2fbf2172c317b2,65e79a9992c5dc8b5911a62d,,,,,,,,,,,726.2217,0.9,727.1209,727.1209,727.688,left,0,0.5595,,727.6881,728.688,1,12,28,13,1,total,1,images/Ex6.jpg,right,training,hard,1,,,,,
,,,,,5ec702d5d810c61532066427,001,32,female,british,college diploma,2024-03-05_22h21.58.117,CRL1h,2023.2.3,MacIntel,57.14285714,65e67470ae2fbf2172c317b2,65e79a9992c5dc8b5911a62d,,,,,,,,,,,728.6885,0.8,729.488,729.4881,730.1545,right,1,0.6616,,730.1545,731.1547,1,13,29,4,1,total,1,images/Ex5.jpg,right,training,hard,1,,,,,
,,,,,5ec702d5d810c61532066427,001,32,female,british,college diploma,2024-03-05_22h21.58.117,CRL1h,2023.2.3,MacIntel,57.14285714,65e67470ae2fbf2172c317b2,65e79a9992c5dc8b5911a62d,,,,,,,,,,,731.155,1.1,732.2548,732.2549,732.9038,right,1,0.6465,,732.9038,733.9048,1,14,30,15,1,total,1,images/Ex8.jpg,right,training,hard,1,,,,,
,,,,,5ec702d5d810c61532066427,001,32,female,british,college diploma,2024-03-05_22h21.58.117,CRL1h,2023.2.3,MacIntel,57.14285714,65e67470ae2fbf2172c317b2,65e79a9992c5dc8b5911a62d,,,,,,,,,,,733.9052,0.6,734.5043,734.5044,734.988,right,1,0.4768,,734.988,735.9876,1,15,31,7,1,total,1,images/Ex8.jpg,right,training,hard,1,,,,,
,,,,,5ec702d5d810c61532066427,001,32,female,british,college diploma,2024-03-05_22h21.58.117,CRL1h,2023.2.3,MacIntel,57.14285714,65e67470ae2fbf2172c317b2,65e79a9992c5dc8b5911a62d,,,,,,,,,,,735.9879,0.9,736.8871,736.8872,737.7035,right,0,0.8076,,737.7035,738.7047,2,0,32,11,1,total,1,images/Ex4.jpg,left,training,hard,1,,,,,
,,,,,5ec702d5d810c61532066427,001,32,female,british,college diploma,2024-03-05_22h21.58.117,CRL1h,2023.2.3,MacIntel,57.14285714,65e67470ae2fbf2172c317b2,65e79a9992c5dc8b5911a62d,,,,,,,,,,,738.7052,1,739.7048,739.7048,740.3878,right,0,0.6768,,740.3879,741.3881,2,1,33,10,1,total,1,images/Ex3.jpg,left,training,hard,1,,,,,
,,,,,5ec702d5d810c61532066427,001,32,female,british,college diploma,2024-03-05_22h21.58.117,CRL1h,2023.2.3,MacIntel,57.14285714,65e67470ae2fbf2172c317b2,65e79a9992c5dc8b5911a62d,,,,,,,,,,,741.3886,1.4,742.787,742.7871,743.7549,left,0,0.9604,,743.7549,744.7541,2,2,34,5,1,total,1,images/Ex6.jpg,right,training,hard,1,,,,,
,,,,,5ec702d5d810c61532066427,001,32,female,british,college diploma,2024-03-05_22h21.58.117,CRL1h,2023.2.3,MacIntel,57.14285714,65e67470ae2fbf2172c317b2,65e79a9992c5dc8b5911a62d,,,,,,,,,,,744.7545,0.8,745.5547,745.5547,746.4881,right,1,0.9257,,746.4881,747.4878,2,3,35,7,1,total,1,images/Ex8.jpg,right,training,hard,1,,,,,
,,,,,5ec702d5d810c61532066427,001,32,female,british,college diploma,2024-03-05_22h21.58.117,CRL1h,2023.2.3,MacIntel,57.14285714,65e67470ae2fbf2172c317b2,65e79a9992c5dc8b5911a62d,,,,,,,,,,,747.4881,0.6,748.0881,748.0882,748.6883,right,1,0.5927,,748.6884,749.6883,2,4,36,6,1,total,1,images/Ex7.jpg,right,training,hard,1,,,,,
,,,,,5ec702d5d810c61532066427,001,32,female,british,college diploma,2024-03-05_22h21.58.117,CRL1h,2023.2.3,MacIntel,57.14285714,65e67470ae2fbf2172c317b2,65e79a9992c5dc8b5911a62d,,,,,,,,,,,749.6887,0.9,750.5877,750.5877,751.7879,left,1,1.1933,,751.788,752.7877,2,5,37,3,1,total,1,images/Ex4.jpg,left,training,hard,1,,,,,
,,,,,5ec702d5d810c61532066427,001,32,female,british,college diploma,2024-03-05_22h21.58.117,CRL1h,2023.2.3,MacIntel,57.14285714,65e67470ae2fbf2172c317b2,65e79a9992c5dc8b5911a62d,,,,,,,,,,,752.788,0.9,753.687,753.687,754.371,right,1,0.6768,,754.371,755.3715,2,6,38,14,1,total,1,images/Ex7.jpg,right,training,hard,1,,,,,
,,,,,5ec702d5d810c61532066427,001,32,female,british,college diploma,2024-03-05_22h21.58.117,CRL1h,2023.2.3,MacIntel,57.14285714,65e67470ae2fbf2172c317b2,65e79a9992c5dc8b5911a62d,,,,,,,,,,,755.372,1,756.3715,756.3715,756.9713,right,1,0.5959,,756.9713,757.9715,2,7,39,12,1,total,1,images/Ex5.jpg,right,training,hard,1,,,,,
,,,,,5ec702d5d810c61532066427,001,32,female,british,college diploma,2024-03-05_22h21.58.117,CRL1h,2023.2.3,MacIntel,57.14285714,65e67470ae2fbf2172c317b2,65e79a9992c5dc8b5911a62d,,,,,,,,,,,757.972,0.9,758.8715,758.8715,759.5046,left,1,0.6255,,759.5047,760.5048,2,8,40,1,1,total,1,images/Ex2.jpg,left,training,hard,1,,,,,
,,,,,5ec702d5d810c61532066427,001,32,female,british,college diploma,2024-03-05_22h21.58.117,CRL1h,2023.2.3,MacIntel,57.14285714,65e67470ae2fbf2172c317b2,65e79a9992c5dc8b5911a62d,,,,,,,,,,,760.5053,0.8,761.3036,761.3036,762.0379,left,1,0.7306,,762.0379,763.0377,2,9,41,9,1,total,1,images/Ex2.jpg,left,training,hard,1,,,,,
,,,,,5ec702d5d810c61532066427,001,32,female,british,college diploma,2024-03-05_22h21.58.117,CRL1h,2023.2.3,MacIntel,57.14285714,65e67470ae2fbf2172c317b2,65e79a9992c5dc8b5911a62d,,,,,,,,,,,763.0378,1.1,764.1381,764.1382,765.4373,left,1,1.2924,,765.4374,766.4382,2,10,42,8,1,total,1,images/Ex1.jpg,left,training,hard,1,,,,,
,,,,,5ec702d5d810c61532066427,001,32,female,british,college diploma,2024-03-05_22h21.58.117,CRL1h,2023.2.3,MacIntel,57.14285714,65e67470ae2fbf2172c317b2,65e79a9992c5dc8b5911a62d,,,,,,,,,,,766.4387,0.8,767.2367,767.2368,768.9042,right,1,1.6654,,768.9042,769.9048,2,11,43,4,1,total,1,images/Ex5.jpg,right,training,hard,1,,,,,
,,,,,5ec702d5d810c61532066427,001,32,female,british,college diploma,2024-03-05_22h21.58.117,CRL1h,2023.2.3,MacIntel,57.14285714,65e67470ae2fbf2172c317b2,65e79a9992c5dc8b5911a62d,,,,,,,,,,,769.9053,0.9,770.8049,770.8049,771.6706,right,1,0.8645,,771.6706,772.6715,2,12,44,15,1,total,1,images/Ex8.jpg,right,training,hard,1,,,,,
,,,,,5ec702d5d810c61532066427,001,32,female,british,college diploma,2024-03-05_22h21.58.117,CRL1h,2023.2.3,MacIntel,57.14285714,65e67470ae2fbf2172c317b2,65e79a9992c5dc8b5911a62d,,,,,,,,,,,772.6719,0.7,773.3715,773.3715,775.1541,right,0,1.7815,,775.1541,776.1548,2,13,45,2,1,total,1,images/Ex3.jpg,left,training,hard,1,,,,,
,,,,,5ec702d5d810c61532066427,001,32,female,british,college diploma,2024-03-05_22h21.58.117,CRL1h,2023.2.3,MacIntel,57.14285714,65e67470ae2fbf2172c317b2,65e79a9992c5dc8b5911a62d,,,,,,,,,,,776.1553,0.6,776.7542,776.7543,777.7546,left,0,0.9965,,777.7546,778.7548,2,14,46,13,1,total,1,images/Ex6.jpg,right,training,hard,1,,,,,
,,,,,5ec702d5d810c61532066427,001,32,female,british,college diploma,2024-03-05_22h21.58.117,CRL1h,2023.2.3,MacIntel,57.14285714,65e67470ae2fbf2172c317b2,65e79a9992c5dc8b5911a62d,,,,,,,,,,,778.7553,1.1,779.8548,779.8548,780.6711,left,1,0.8084,,780.6711,781.6713,2,15,47,0,1,total,1,images/Ex1.jpg,left,training,hard,1,,,,,
,,,,,5ec702d5d810c61532066427,001,32,female,british,college diploma,2024-03-05_22h21.58.117,CRL1h,2023.2.3,MacIntel,57.14285714,65e67470ae2fbf2172c317b2,65e79a9992c5dc8b5911a62d,,,,,,,,,,,781.6716,0.6,782.271,782.2711,782.9548,left,0,0.676,,782.9548,783.9548,3,0,48,5,1,total,1,images/Ex6.jpg,right,training,hard,1,,,,,
,,,,,5ec702d5d810c61532066427,001,32,female,british,college diploma,2024-03-05_22h21.58.117,CRL1h,2023.2.3,MacIntel,57.14285714,65e67470ae2fbf2172c317b2,65e79a9992c5dc8b5911a62d,,,,,,,,,,,783.9553,0.6,784.555,784.5551,785.1713,left,1,0.6097,,785.1714,786.1715,3,1,49,9,1,total,1,images/Ex2.jpg,left,training,hard,1,,,,,
,,,,,5ec702d5d810c61532066427,001,32,female,british,college diploma,2024-03-05_22h21.58.117,CRL1h,2023.2.3,MacIntel,57.14285714,65e67470ae2fbf2172c317b2,65e79a9992c5dc8b5911a62d,,,,,,,,,,,786.1721,0.5,786.6715,786.6716,787.8207,left,1,1.1417,,787.8207,788.8214,3,2,50,10,1,total,1,images/Ex3.jpg,left,training,hard,1,,,,,
,,,,,5ec702d5d810c61532066427,001,32,female,british,college diploma,2024-03-05_22h21.58.117,CRL1h,2023.2.3,MacIntel,57.14285714,65e67470ae2fbf2172c317b2,65e79a9992c5dc8b5911a62d,,,,,,,,,,,788.8216,0.8,789.6215,789.6216,790.3547,left,1,0.7279,,790.3547,791.3549,3,3,51,8,1,total,1,images/Ex1.jpg,left,training,hard,1,,,,,
,,,,,5ec702d5d810c61532066427,001,32,female,british,college diploma,2024-03-05_22h21.58.117,CRL1h,2023.2.3,MacIntel,57.14285714,65e67470ae2fbf2172c317b2,65e79a9992c5dc8b5911a62d,,,,,,,,,,,791.3554,0.6,791.954,791.9541,792.7714,right,1,0.8092,,792.7715,793.7714,3,4,52,12,1,total,1,images/Ex5.jpg,right,training,hard,1,,,,,
,,,,,5ec702d5d810c61532066427,001,32,female,british,college diploma,2024-03-05_22h21.58.117,CRL1h,2023.2.3,MacIntel,57.14285714,65e67470ae2fbf2172c317b2,65e79a9992c5dc8b5911a62d,,,,,,,,,,,793.772,1.1,794.8713,794.8713,796.1704,right,1,1.2967,,796.1705,797.1716,3,5,53,13,1,total,1,images/Ex6.jpg,right,training,hard,1,,,,,
,,,,,5ec702d5d810c61532066427,001,32,female,british,college diploma,2024-03-05_22h21.58.117,CRL1h,2023.2.3,MacIntel,57.14285714,65e67470ae2fbf2172c317b2,65e79a9992c5dc8b5911a62d,,,,,,,,,,,797.1822,1,798.1715,798.1716,799.0718,right,1,0.8907,,799.0719,800.0708,3,6,54,14,1,total,1,images/Ex7.jpg,right,training,hard,1,,,,,
,,,,,5ec702d5d810c61532066427,001,32,female,british,college diploma,2024-03-05_22h21.58.117,CRL1h,2023.2.3,MacIntel,57.14285714,65e67470ae2fbf2172c317b2,65e79a9992c5dc8b5911a62d,,,,,,,,,,,800.0712,0.7,800.7717,800.7718,801.8549,left,1,1.0762,,801.8549,802.8548,3,7,55,0,1,total,1,images/Ex1.jpg,left,training,hard,1,,,,,
,,,,,5ec702d5d810c61532066427,001,32,female,british,college diploma,2024-03-05_22h21.58.117,CRL1h,2023.2.3,MacIntel,57.14285714,65e67470ae2fbf2172c317b2,65e79a9992c5dc8b5911a62d,,,,,,,,,,,802.8553,1.3,804.1546,804.1546,804.8386,right,1,0.6749,,804.8387,805.8384,3,8,56,6,1,total,1,images/Ex7.jpg,right,training,hard,1,,,,,
,,,,,5ec702d5d810c61532066427,001,32,female,british,college diploma,2024-03-05_22h21.58.117,CRL1h,2023.2.3,MacIntel,57.14285714,65e67470ae2fbf2172c317b2,65e79a9992c5dc8b5911a62d,,,,,,,,,,,805.8388,1.5,807.3372,807.3372,808.4373,left,1,1.0966,,808.4373,809.4383,3,9,57,11,1,total,1,images/Ex4.jpg,left,training,hard,1,,,,,
,,,,,5ec702d5d810c61532066427,001,32,female,british,college diploma,2024-03-05_22h21.58.117,CRL1h,2023.2.3,MacIntel,57.14285714,65e67470ae2fbf2172c317b2,65e79a9992c5dc8b5911a62d,,,,,,,,,,,809.4387,1.3,810.7383,810.7383,812.3879,right,0,1.6417,,812.388,813.3883,3,10,58,2,1,total,1,images/Ex3.jpg,left,training,hard,1,,,,,
,,,,,5ec702d5d810c61532066427,001,32,female,british,college diploma,2024-03-05_22h21.58.117,CRL1h,2023.2.3,MacIntel,57.14285714,65e67470ae2fbf2172c317b2,65e79a9992c5dc8b5911a62d,,,,,,,,,,,813.3985,1.5,814.8882,814.8883,815.6875,left,1,0.793,,815.6876,816.6883,3,11,59,1,1,total,1,images/Ex2.jpg,left,training,hard,1,,,,,
,,,,,5ec702d5d810c61532066427,001,32,female,british,college diploma,2024-03-05_22h21.58.117,CRL1h,2023.2.3,MacIntel,57.14285714,65e67470ae2fbf2172c317b2,65e79a9992c5dc8b5911a62d,,,,,,,,,,,816.6887,0.7,817.3882,817.3882,818.3049,right,1,0.912,,818.3049,819.3049,3,12,60,15,1,total,1,images/Ex8.jpg,right,training,hard,1,,,,,
,,,,,5ec702d5d810c61532066427,001,32,female,british,college diploma,2024-03-05_22h21.58.117,CRL1h,2023.2.3,MacIntel,57.14285714,65e67470ae2fbf2172c317b2,65e79a9992c5dc8b5911a62d,,,,,,,,,,,819.3055,0.9,820.2049,820.205,821.5717,left,1,1.3588,,821.5718,822.5717,3,13,61,3,1,total,1,images/Ex4.jpg,left,training,hard,1,,,,,
,,,,,5ec702d5d810c61532066427,001,32,female,british,college diploma,2024-03-05_22h21.58.117,CRL1h,2023.2.3,MacIntel,57.14285714,65e67470ae2fbf2172c317b2,65e79a9992c5dc8b5911a62d,,,,,,,,,,,822.5721,1,823.5716,823.5717,824.5214,right,1,0.9463,,824.5214,825.5213,3,14,62,4,1,total,1,images/Ex5.jpg,right,training,hard,1,,,,,
,,,,,5ec702d5d810c61532066427,001,32,female,british,college diploma,2024-03-05_22h21.58.117,CRL1h,2023.2.3,MacIntel,57.14285714,65e67470ae2fbf2172c317b2,65e79a9992c5dc8b5911a62d,,,,,,,,,,,825.5215,0.6,826.1213,826.1213,826.9705,right,1,0.8414,,826.9705,827.9716,3,15,63,7,1,total,1,images/Ex8.jpg,right,training,hard,1,,,,,
,,,,,5ec702d5d810c61532066427,001,32,female,british,college diploma,2024-03-05_22h21.58.117,CRL1h,2023.2.3,MacIntel,57.14285714,65e67470ae2fbf2172c317b2,65e79a9992c5dc8b5911a62d,,,,,,,,,,,827.9721,1,828.9716,828.9717,829.5551,right,1,0.5757,,829.5552,830.5549,4,0,64,15,1,total,1,images/Ex8.jpg,right,training,hard,1,,,,,
,,,,,5ec702d5d810c61532066427,001,32,female,british,college diploma,2024-03-05_22h21.58.117,CRL1h,2023.2.3,MacIntel,57.14285714,65e67470ae2fbf2172c317b2,65e79a9992c5dc8b5911a62d,,,,,,,,,,,830.5555,0.7,831.2549,831.2549,832.1877,right,1,0.9262,,832.1878,833.1879,4,1,65,6,1,total,1,images/Ex7.jpg,right,training,hard,1,,,,,
,,,,,5ec702d5d810c61532066427,001,32,female,british,college diploma,2024-03-05_22h21.58.117,CRL1h,2023.2.3,MacIntel,57.14285714,65e67470ae2fbf2172c317b2,65e79a9992c5dc8b5911a62d,,,,,,,,,,,833.1881,1.3,834.4879,834.4879,837.8209,right,0,3.3308,,837.8209,838.8211,4,2,66,10,1,total,1,images/Ex3.jpg,left,training,hard,1,,,,,
,,,,,5ec702d5d810c61532066427,001,32,female,british,college diploma,2024-03-05_22h21.58.117,CRL1h,2023.2.3,MacIntel,57.14285714,65e67470ae2fbf2172c317b2,65e79a9992c5dc8b5911a62d,,,,,,,,,,,838.8287,0.8,839.6217,839.6217,840.8214,left,0,1.1921,,840.8214,841.8215,4,3,67,5,1,total,1,images/Ex6.jpg,right,training,hard,1,,,,,
,,,,,5ec702d5d810c61532066427,001,32,female,british,college diploma,2024-03-05_22h21.58.117,CRL1h,2023.2.3,MacIntel,57.14285714,65e67470ae2fbf2172c317b2,65e79a9992c5dc8b5911a62d,,,,,,,,,,,841.8219,1.2,843.0217,843.0217,844.3704,right,1,1.3429,,844.3705,845.3711,4,4,68,7,1,total,1,images/Ex8.jpg,right,training,hard,1,,,,,
,,,,,5ec702d5d810c61532066427,001,32,female,british,college diploma,2024-03-05_22h21.58.117,CRL1h,2023.2.3,MacIntel,57.14285714,65e67470ae2fbf2172c317b2,65e79a9992c5dc8b5911a62d,,,,,,,,,,,845.3802,1.5,846.8709,846.8709,847.7718,right,1,0.8921,,847.7719,848.7717,4,5,69,12,1,total,1,images/Ex5.jpg,right,training,hard,1,,,,,
,,,,,5ec702d5d810c61532066427,001,32,female,british,college diploma,2024-03-05_22h21.58.117,CRL1h,2023.2.3,MacIntel,57.14285714,65e67470ae2fbf2172c317b2,65e79a9992c5dc8b5911a62d,,,,,,,,,,,848.7721,1.2,849.9718,849.9718,850.6219,right,1,0.6419,,850.6219,851.6215,4,6,70,14,1,total,1,images/Ex7.jpg,right,training,hard,1,,,,,
,,,,,5ec702d5d810c61532066427,001,32,female,british,college diploma,2024-03-05_22h21.58.117,CRL1h,2023.2.3,MacIntel,57.14285714,65e67470ae2fbf2172c317b2,65e79a9992c5dc8b5911a62d,,,,,,,,,,,851.6219,1.1,852.7209,852.7209,853.8552,right,1,1.1256,,853.8552,854.8551,4,7,71,13,1,total,1,images/Ex6.jpg,right,training,hard,1,,,,,
,,,,,5ec702d5d810c61532066427,001,32,female,british,college diploma,2024-03-05_22h21.58.117,CRL1h,2023.2.3,MacIntel,57.14285714,65e67470ae2fbf2172c317b2,65e79a9992c5dc8b5911a62d,,,,,,,,,,,854.8555,0.9,855.754,855.754,856.6048,left,1,0.8458,,856.6048,857.605,4,8,72,0,1,total,1,images/Ex1.jpg,left,training,hard,1,,,,,
,,,,,5ec702d5d810c61532066427,001,32,female,british,college diploma,2024-03-05_22h21.58.117,CRL1h,2023.2.3,MacIntel,57.14285714,65e67470ae2fbf2172c317b2,65e79a9992c5dc8b5911a62d,,,,,,,,,,,857.6055,1.5,859.105,859.105,860.2045,left,1,1.0958,,860.2045,861.205,4,9,73,2,1,total,1,images/Ex3.jpg,left,training,hard,1,,,,,
,,,,,5ec702d5d810c61532066427,001,32,female,british,college diploma,2024-03-05_22h21.58.117,CRL1h,2023.2.3,MacIntel,57.14285714,65e67470ae2fbf2172c317b2,65e79a9992c5dc8b5911a62d,,,,,,,,,,,861.2056,1.3,862.505,862.5051,863.0719,left,1,0.5582,,863.0719,864.0717,4,10,74,1,1,total,1,images/Ex2.jpg,left,training,hard,1,,,,,
,,,,,5ec702d5d810c61532066427,001,32,female,british,college diploma,2024-03-05_22h21.58.117,CRL1h,2023.2.3,MacIntel,57.14285714,65e67470ae2fbf2172c317b2,65e79a9992c5dc8b5911a62d,,,,,,,,,,,864.0722,1.3,865.3717,865.3717,866.1375,left,1,0.7648,,866.1375,867.1383,4,11,75,11,1,total,1,images/Ex4.jpg,left,training,hard,1,,,,,
,,,,,5ec702d5d810c61532066427,001,32,female,british,college diploma,2024-03-05_22h21.58.117,CRL1h,2023.2.3,MacIntel,57.14285714,65e67470ae2fbf2172c317b2,65e79a9992c5dc8b5911a62d,,,,,,,,,,,867.1387,1.1,868.2384,868.2384,869.0884,left,1,0.8421,,869.0885,870.0878,4,12,76,8,1,total,1,images/Ex1.jpg,left,training,hard,1,,,,,
,,,,,5ec702d5d810c61532066427,001,32,female,british,college diploma,2024-03-05_22h21.58.117,CRL1h,2023.2.3,MacIntel,57.14285714,65e67470ae2fbf2172c317b2,65e79a9992c5dc8b5911a62d,,,,,,,,,,,870.0884,1.3,871.3878,871.3878,872.2545,right,1,0.8594,,872.2546,873.2542,4,13,77,4,1,total,1,images/Ex5.jpg,right,training,hard,1,,,,,
,,,,,5ec702d5d810c61532066427,001,32,female,british,college diploma,2024-03-05_22h21.58.117,CRL1h,2023.2.3,MacIntel,57.14285714,65e67470ae2fbf2172c317b2,65e79a9992c5dc8b5911a62d,,,,,,,,,,,873.2547,0.9,874.1551,874.1551,875.1715,left,1,1.0141,,875.1715,876.171,4,14,78,3,1,total,1,images/Ex4.jpg,left,training,hard,1,,,,,
,,,,,5ec702d5d810c61532066427,001,32,female,british,college diploma,2024-03-05_22h21.58.117,CRL1h,2023.2.3,MacIntel,57.14285714,65e67470ae2fbf2172c317b2,65e79a9992c5dc8b5911a62d,,,,,,,,,,,876.1714,0.7,876.8717,876.8718,877.5384,left,1,0.659,,877.5384,878.5385,4,15,79,9,1,total,1,images/Ex2.jpg,left,training,hard,1,,,,,
,,,,,5ec702d5d810c61532066427,001,32,female,british,college diploma,2024-03-05_22h21.58.117,CRL1h,2023.2.3,MacIntel,57.14285714,65e67470ae2fbf2172c317b2,65e79a9992c5dc8b5911a62d,,,,,,,,,,,878.539,0.8,879.3386,879.3387,880.0215,right,1,0.6802,,880.0215,881.0217,5,0,80,6,1,total,1,images/Ex7.jpg,right,training,hard,1,,,,,
,,,,,5ec702d5d810c61532066427,001,32,female,british,college diploma,2024-03-05_22h21.58.117,CRL1h,2023.2.3,MacIntel,57.14285714,65e67470ae2fbf2172c317b2,65e79a9992c5dc8b5911a62d,,,,,,,,,,,881.0222,0.6,881.6215,881.6216,882.5883,right,1,0.9616,,882.5884,883.5885,5,1,81,14,1,total,1,images/Ex7.jpg,right,training,hard,1,,,,,
,,,,,5ec702d5d810c61532066427,001,32,female,british,college diploma,2024-03-05_22h21.58.117,CRL1h,2023.2.3,MacIntel,57.14285714,65e67470ae2fbf2172c317b2,65e79a9992c5dc8b5911a62d,,,,,,,,,,,883.5889,1.5,885.0884,885.0884,885.7551,left,1,0.6576,,885.7551,886.7551,5,2,82,1,1,total,1,images/Ex2.jpg,left,training,hard,1,,,,,
,,,,,5ec702d5d810c61532066427,001,32,female,british,college diploma,2024-03-05_22h21.58.117,CRL1h,2023.2.3,MacIntel,57.14285714,65e67470ae2fbf2172c317b2,65e79a9992c5dc8b5911a62d,,,,,,,,,,,886.7556,0.6,887.3549,887.3549,888.7548,right,1,1.3923,,888.7548,889.7548,5,3,83,13,1,total,1,images/Ex6.jpg,right,training,hard,1,,,,,
,,,,,5ec702d5d810c61532066427,001,32,female,british,college diploma,2024-03-05_22h21.58.117,CRL1h,2023.2.3,MacIntel,57.14285714,65e67470ae2fbf2172c317b2,65e79a9992c5dc8b5911a62d,,,,,,,,,,,889.7554,0.7,890.4551,890.4551,891.2882,left,1,0.8294,,891.2882,892.2883,5,4,84,10,1,total,1,images/Ex3.jpg,left,training,hard,1,,,,,
,,,,,5ec702d5d810c61532066427,001,32,female,british,college diploma,2024-03-05_22h21.58.117,CRL1h,2023.2.3,MacIntel,57.14285714,65e67470ae2fbf2172c317b2,65e79a9992c5dc8b5911a62d,,,,,,,,,,,892.2888,0.7,892.988,892.988,893.6219,left,1,0.6254,,893.6219,894.6216,5,5,85,9,1,total,1,images/Ex2.jpg,left,training,hard,1,,,,,
,,,,,5ec702d5d810c61532066427,001,32,female,british,college diploma,2024-03-05_22h21.58.117,CRL1h,2023.2.3,MacIntel,57.14285714,65e67470ae2fbf2172c317b2,65e79a9992c5dc8b5911a62d,,,,,,,,,,,894.622,0.6,895.2217,895.2218,895.9882,left,1,0.7597,,895.9883,896.9885,5,6,86,8,1,total,1,images/Ex1.jpg,left,training,hard,1,,,,,
,,,,,5ec702d5d810c61532066427,001,32,female,british,college diploma,2024-03-05_22h21.58.117,CRL1h,2023.2.3,MacIntel,57.14285714,65e67470ae2fbf2172c317b2,65e79a9992c5dc8b5911a62d,,,,,,,,,,,896.9889,1.3,898.2881,898.2881,899.0051,right,1,0.7122,,899.0052,900.0052,5,7,87,5,1,total,1,images/Ex6.jpg,right,training,hard,1,,,,,
,,,,,5ec702d5d810c61532066427,001,32,female,british,college diploma,2024-03-05_22h21.58.117,CRL1h,2023.2.3,MacIntel,57.14285714,65e67470ae2fbf2172c317b2,65e79a9992c5dc8b5911a62d,,,,,,,,,,,900.0057,0.6,900.6052,900.6052,902.1379,left,1,1.5315,,902.1379,903.1385,5,8,88,3,1,total,1,images/Ex4.jpg,left,training,hard,1,,,,,
,,,,,5ec702d5d810c61532066427,001,32,female,british,college diploma,2024-03-05_22h21.58.117,CRL1h,2023.2.3,MacIntel,57.14285714,65e67470ae2fbf2172c317b2,65e79a9992c5dc8b5911a62d,,,,,,,,,,,903.1492,1.2,904.3385,904.3385,904.9379,left,1,0.5957,,904.9379,905.9385,5,9,89,2,1,total,1,images/Ex3.jpg,left,training,hard,1,,,,,
,,,,,5ec702d5d810c61532066427,001,32,female,british,college diploma,2024-03-05_22h21.58.117,CRL1h,2023.2.3,MacIntel,57.14285714,65e67470ae2fbf2172c317b2,65e79a9992c5dc8b5911a62d,,,,,,,,,,,905.9389,0.9,906.8384,906.8385,908.3552,right,1,1.5087,,908.3552,909.3545,5,10,90,15,1,total,1,images/Ex8.jpg,right,training,hard,1,,,,,
,,,,,5ec702d5d810c61532066427,001,32,female,british,college diploma,2024-03-05_22h21.58.117,CRL1h,2023.2.3,MacIntel,57.14285714,65e67470ae2fbf2172c317b2,65e79a9992c5dc8b5911a62d,,,,,,,,,,,909.3651,1,910.3551,910.3552,911.2049,left,1,0.8469,,911.2049,912.2052,5,11,91,11,1,total,1,images/Ex4.jpg,left,training,hard,1,,,,,
,,,,,5ec702d5d810c61532066427,001,32,female,british,college diploma,2024-03-05_22h21.58.117,CRL1h,2023.2.3,MacIntel,57.14285714,65e67470ae2fbf2172c317b2,65e79a9992c5dc8b5911a62d,,,,,,,,,,,912.2056,1.2,913.4051,913.4052,914.8047,left,0,1.3924,,914.8047,915.8051,5,12,92,7,1,total,1,images/Ex8.jpg,right,training,hard,1,,,,,
,,,,,5ec702d5d810c61532066427,001,32,female,british,college diploma,2024-03-05_22h21.58.117,CRL1h,2023.2.3,MacIntel,57.14285714,65e67470ae2fbf2172c317b2,65e79a9992c5dc8b5911a62d,,,,,,,,,,,915.8056,0.7,916.5041,916.5041,917.3378,right,1,0.8253,,917.3378,918.338,5,13,93,4,1,total,1,images/Ex5.jpg,right,training,hard,1,,,,,
,,,,,5ec702d5d810c61532066427,001,32,female,british,college diploma,2024-03-05_22h21.58.117,CRL1h,2023.2.3,MacIntel,57.14285714,65e67470ae2fbf2172c317b2,65e79a9992c5dc8b5911a62d,,,,,,,,,,,918.3382,1.3,919.638,919.638,920.2385,left,1,0.5921,,920.2385,921.2385,5,14,94,0,1,total,1,images/Ex1.jpg,left,training,hard,1,,,,,
,,,,,5ec702d5d810c61532066427,001,32,female,british,college diploma,2024-03-05_22h21.58.117,CRL1h,2023.2.3,MacIntel,57.14285714,65e67470ae2fbf2172c317b2,65e79a9992c5dc8b5911a62d,,,,,,,,,,,921.2389,1.1,922.3385,922.3386,923.0045,right,1,0.6652,,923.0045,924.0052,5,15,95,12,1,total,1,images/Ex5.jpg,right,training,hard,1,,,,,
,,,,,5ec702d5d810c61532066427,001,32,female,british,college diploma,2024-03-05_22h21.58.117,CRL1h,2023.2.3,MacIntel,57.14285714,65e67470ae2fbf2172c317b2,65e79a9992c5dc8b5911a62d,,,,,,,,,,,924.0056,0.7,924.7052,924.7052,925.3381,left,1,0.6247,,925.3382,926.3385,6,0,96,8,1,total,1,images/Ex1.jpg,left,training,hard,1,,,,,
,,,,,5ec702d5d810c61532066427,001,32,female,british,college diploma,2024-03-05_22h21.58.117,CRL1h,2023.2.3,MacIntel,57.14285714,65e67470ae2fbf2172c317b2,65e79a9992c5dc8b5911a62d,,,,,,,,,,,926.339,1.4,927.7385,927.7386,928.1885,right,1,0.4407,,928.1885,929.1885,6,1,97,7,1,total,1,images/Ex8.jpg,right,training,hard,1,,,,,
,,,,,5ec702d5d810c61532066427,001,32,female,british,college diploma,2024-03-05_22h21.58.117,CRL1h,2023.2.3,MacIntel,57.14285714,65e67470ae2fbf2172c317b2,65e79a9992c5dc8b5911a62d,,,,,,,,,,,929.189,0.6,929.7884,929.7884,930.6711,right,1,0.8754,,930.6712,931.6705,6,2,98,13,1,total,1,images/Ex6.jpg,right,training,hard,1,,,,,
,,,,,5ec702d5d810c61532066427,001,32,female,british,college diploma,2024-03-05_22h21.58.117,CRL1h,2023.2.3,MacIntel,57.14285714,65e67470ae2fbf2172c317b2,65e79a9992c5dc8b5911a62d,,,,,,,,,,,931.6707,1.4,933.0717,933.0717,933.555,left,0,0.476,,933.5551,934.5553,6,3,99,4,1,total,1,images/Ex5.jpg,right,training,hard,1,,,,,
,,,,,5ec702d5d810c61532066427,001,32,female,british,college diploma,2024-03-05_22h21.58.117,CRL1h,2023.2.3,MacIntel,57.14285714,65e67470ae2fbf2172c317b2,65e79a9992c5dc8b5911a62d,,,,,,,,,,,934.5558,1.4,935.9551,935.9551,936.5719,left,1,0.609,,936.572,937.5716,6,4,100,1,1,total,1,images/Ex2.jpg,left,training,hard,1,,,,,
,,,,,5ec702d5d810c61532066427,001,32,female,british,college diploma,2024-03-05_22h21.58.117,CRL1h,2023.2.3,MacIntel,57.14285714,65e67470ae2fbf2172c317b2,65e79a9992c5dc8b5911a62d,,,,,,,,,,,937.5721,0.9,938.4719,938.472,939.3052,left,1,0.8247,,939.3052,940.305,6,5,101,11,1,total,1,images/Ex4.jpg,left,training,hard,1,,,,,
,,,,,5ec702d5d810c61532066427,001,32,female,british,college diploma,2024-03-05_22h21.58.117,CRL1h,2023.2.3,MacIntel,57.14285714,65e67470ae2fbf2172c317b2,65e79a9992c5dc8b5911a62d,,,,,,,,,,,940.3054,0.6,940.9052,940.9052,941.5715,right,1,0.6614,,941.5715,942.5717,6,6,102,6,1,total,1,images/Ex7.jpg,right,training,hard,1,,,,,
,,,,,5ec702d5d810c61532066427,001,32,female,british,college diploma,2024-03-05_22h21.58.117,CRL1h,2023.2.3,MacIntel,57.14285714,65e67470ae2fbf2172c317b2,65e79a9992c5dc8b5911a62d,,,,,,,,,,,942.572,0.8,943.3719,943.3719,945.3718,right,0,1.9922,,945.3718,946.3718,6,7,103,10,1,total,1,images/Ex3.jpg,left,training,hard,1,,,,,
,,,,,5ec702d5d810c61532066427,001,32,female,british,college diploma,2024-03-05_22h21.58.117,CRL1h,2023.2.3,MacIntel,57.14285714,65e67470ae2fbf2172c317b2,65e79a9992c5dc8b5911a62d,,,,,,,,,,,946.3723,1.2,947.571,947.5711,948.1554,right,1,0.5755,,948.1554,949.1552,6,8,104,14,1,total,1,images/Ex7.jpg,right,training,hard,1,,,,,
,,,,,5ec702d5d810c61532066427,001,32,female,british,college diploma,2024-03-05_22h21.58.117,CRL1h,2023.2.3,MacIntel,57.14285714,65e67470ae2fbf2172c317b2,65e79a9992c5dc8b5911a62d,,,,,,,,,,,949.1557,1.2,950.3553,950.3553,950.8721,left,1,0.5082,,950.8721,951.8719,6,9,105,2,1,total,1,images/Ex3.jpg,left,training,hard,1,,,,,
,,,,,5ec702d5d810c61532066427,001,32,female,british,college diploma,2024-03-05_22h21.58.117,CRL1h,2023.2.3,MacIntel,57.14285714,65e67470ae2fbf2172c317b2,65e79a9992c5dc8b5911a62d,,,,,,,,,,,951.8722,1.4,953.2719,953.2719,953.905,right,1,0.6289,,953.9051,954.9049,6,10,106,5,1,total,1,images/Ex6.jpg,right,training,hard,1,,,,,
,,,,,5ec702d5d810c61532066427,001,32,female,british,college diploma,2024-03-05_22h21.58.117,CRL1h,2023.2.3,MacIntel,57.14285714,65e67470ae2fbf2172c317b2,65e79a9992c5dc8b5911a62d,,,,,,,,,,,954.9052,0.6,955.5052,955.5053,956.504,left,0,0.9939,,956.504,957.505,6,11,107,15,1,total,1,images/Ex8.jpg,right,training,hard,1,,,,,
,,,,,5ec702d5d810c61532066427,001,32,female,british,college diploma,2024-03-05_22h21.58.117,CRL1h,2023.2.3,MacIntel,57.14285714,65e67470ae2fbf2172c317b2,65e79a9992c5dc8b5911a62d,,,,,,,,,,,957.5054,0.8,958.3043,958.3043,958.9549,right,1,0.6435,,958.9549,959.9541,6,12,108,12,1,total,1,images/Ex5.jpg,right,training,hard,1,,,,,
,,,,,5ec702d5d810c61532066427,001,32,female,british,college diploma,2024-03-05_22h21.58.117,CRL1h,2023.2.3,MacIntel,57.14285714,65e67470ae2fbf2172c317b2,65e79a9992c5dc8b5911a62d,,,,,,,,,,,959.9543,1,960.9552,960.9552,961.6554,left,1,0.6909,,961.6554,962.6548,6,13,109,0,1,total,1,images/Ex1.jpg,left,training,hard,1,,,,,
,,,,,5ec702d5d810c61532066427,001,32,female,british,college diploma,2024-03-05_22h21.58.117,CRL1h,2023.2.3,MacIntel,57.14285714,65e67470ae2fbf2172c317b2,65e79a9992c5dc8b5911a62d,,,,,,,,,,,962.6551,0.8,963.4552,963.4552,964.2213,left,1,0.7651,,964.2213,965.2219,6,14,110,3,1,total,1,images/Ex4.jpg,left,training,hard,1,,,,,
,,,,,5ec702d5d810c61532066427,001,32,female,british,college diploma,2024-03-05_22h21.58.117,CRL1h,2023.2.3,MacIntel,57.14285714,65e67470ae2fbf2172c317b2,65e79a9992c5dc8b5911a62d,,,,,,,,,,,965.2223,1.3,966.5219,966.5219,967.1387,left,1,0.6093,,967.1388,968.1383,6,15,111,9,1,total,1,images/Ex2.jpg,left,training,hard,1,,,,,
