infCons.started,infCons.stopped,resp_consent.keys,resp_consent.rt,resp_consent.duration,participant,session,Age?,Gender?,Nationality?,Highest Educational Degree?,date,expName,psychopyVersion,OS,frameRate,STUDY_ID,SESSION_ID,instructions.started,instructions.stopped,resp_instructions.keys,resp_instructions.rt,resp_instructions.duration,nextTask.started,nextTask.stopped,ready_task.keys,ready_task.rt,ready_task.duration,fixation.started,ITI,fixation.stopped,stim.started,stim.stopped,response.keys,response.corr,response.rt,response.duration,feedback.started,feedback.stopped,trials.thisRepN,trials.thisTrialN,trials.thisN,trials.thisIndex,trials.ran,task,phase,Exemplars,r_correct,condition,difficulty,set,end.started,end.stopped,resp_end.keys,resp_end.rt,resp_end.duration
0.0003,7.4008,space,7.3564,,5efea1f363271c3b76d4c9ed,001,,,,,2024-03-05_22h20.22.096,CRL1h,2023.2.3,MacIntel,59.88023952,65e67470ae2fbf2172c317b2,65e79a8e36f3a1b9d1ba4bdd,,,,,,,,,,,,,,,,,,,,,,,,,,,,,,,,,,,,,,
,,,,,5efea1f363271c3b76d4c9ed,001,,,,,2024-03-05_22h20.22.096,CRL1h,2023.2.3,MacIntel,59.88023952,65e67470ae2fbf2172c317b2,65e79a8e36f3a1b9d1ba4bdd,7.401,97.2766,space,89.8564,,,,,,,,,,,,,,,,,,,,,,,,,,,,,,,,,,
,,,,,5efea1f363271c3b76d4c9ed,001,,,,,2024-03-05_22h20.22.096,CRL1h,2023.2.3,MacIntel,59.88023952,65e67470ae2fbf2172c317b2,65e79a8e36f3a1b9d1ba4bdd,,,,,,97.297,101.2596,space,3.9496,,101.2676,1.5,102.7577,102.7578,105.893,right,1,3.1291,,105.9062,106.8916,0,0,0,4,1,total,1,images/Ex5.jpg,right,training,hard,1,,,,,
,,,,,5efea1f363271c3b76d4c9ed,001,,,,,2024-03-05_22h20.22.096,CRL1h,2023.2.3,MacIntel,59.88023952,65e67470ae2fbf2172c317b2,65e79a8e36f3a1b9d1ba4bdd,,,,,,,,,,,106.8929,0.6,107.49,107.49,109.5425,right,1,2.0466,,109.5426,110.54,0,1,1,12,1,total,1,images/Ex5.jpg,right,training,hard,1,,,,,
,,,,,5efea1f363271c3b76d4c9ed,001,,,,,2024-03-05_22h20.22.096,CRL1h,2023.2.3,MacIntel,59.88023952,65e67470ae2fbf2172c317b2,65e79a8e36f3a1b9d1ba4bdd,,,,,,,,,,,110.5405,0.6,111.1396,111.1396,113.193,left,0,2.045,,113.193,114.1908,0,2,2,15,1,total,1,images/Ex8.jpg,right,training,hard,1,,,,,
,,,,,5efea1f363271c3b76d4c9ed,001,,,,,2024-03-05_22h20.22.096,CRL1h,2023.2.3,MacIntel,59.88023952,65e67470ae2fbf2172c317b2,65e79a8e36f3a1b9d1ba4bdd,,,,,,,,,,,114.2081,1.1,115.3075,115.3077,116.6078,right,0,1.2947,,116.6079,117.6068,0,3,3,1,1,total,1,images/Ex2.jpg,left,training,hard,1,,,,,
,,,,,5efea1f363271c3b76d4c9ed,001,,,,,2024-03-05_22h20.22.096,CRL1h,2023.2.3,MacIntel,59.88023952,65e67470ae2fbf2172c317b2,65e79a8e36f3a1b9d1ba4bdd,,,,,,,,,,,117.6234,0.6,118.2248,118.2248,119.4068,right,1,1.1804,,119.407,120.4074,0,4,4,7,1,total,1,images/Ex8.jpg,right,training,hard,1,,,,,
,,,,,5efea1f363271c3b76d4c9ed,001,,,,,2024-03-05_22h20.22.096,CRL1h,2023.2.3,MacIntel,59.88023952,65e67470ae2fbf2172c317b2,65e79a8e36f3a1b9d1ba4bdd,,,,,,,,,,,120.4079,0.8,121.2055,121.2056,121.9914,left,1,0.7794,,121.9915,122.9897,0,5,5,9,1,total,1,images/Ex2.jpg,left,training,hard,1,,,,,
,,,,,5efea1f363271c3b76d4c9ed,001,,,,,2024-03-05_22h20.22.096,CRL1h,2023.2.3,MacIntel,59.88023952,65e67470ae2fbf2172c317b2,65e79a8e36f3a1b9d1ba4bdd,,,,,,,,,,,122.9917,0.6,123.5905,123.5907,125.5938,right,0,1.9951,,125.5941,126.5899,0,6,6,2,1,total,1,images/Ex3.jpg,left,training,hard,1,,,,,
,,,,,5efea1f363271c3b76d4c9ed,001,,,,,2024-03-05_22h20.22.096,CRL1h,2023.2.3,MacIntel,59.88023952,65e67470ae2fbf2172c317b2,65e79a8e36f3a1b9d1ba4bdd,,,,,,,,,,,126.5903,1,127.5906,127.5906,128.7416,left,1,1.1427,,128.7417,129.7412,0,7,7,8,1,total,1,images/Ex1.jpg,left,training,hard,1,,,,,
,,,,,5efea1f363271c3b76d4c9ed,001,,,,,2024-03-05_22h20.22.096,CRL1h,2023.2.3,MacIntel,59.88023952,65e67470ae2fbf2172c317b2,65e79a8e36f3a1b9d1ba4bdd,,,,,,,,,,,129.7418,0.7,130.4392,130.4392,131.2236,left,1,0.7805,,131.2236,132.2231,0,8,8,10,1,total,1,images/Ex3.jpg,left,training,hard,1,,,,,
,,,,,5efea1f363271c3b76d4c9ed,001,,,,,2024-03-05_22h20.22.096,CRL1h,2023.2.3,MacIntel,59.88023952,65e67470ae2fbf2172c317b2,65e79a8e36f3a1b9d1ba4bdd,,,,,,,,,,,132.2243,0.8,133.0226,133.0228,133.9716,right,1,0.9422,,133.9716,134.9717,0,9,9,6,1,total,1,images/Ex7.jpg,right,training,hard,1,,,,,
,,,,,5efea1f363271c3b76d4c9ed,001,,,,,2024-03-05_22h20.22.096,CRL1h,2023.2.3,MacIntel,59.88023952,65e67470ae2fbf2172c317b2,65e79a8e36f3a1b9d1ba4bdd,,,,,,,,,,,134.9725,1,135.9724,135.9724,137.8553,left,0,1.8799,,137.8553,138.8542,0,10,10,13,1,total,1,images/Ex6.jpg,right,training,hard,1,,,,,
,,,,,5efea1f363271c3b76d4c9ed,001,,,,,2024-03-05_22h20.22.096,CRL1h,2023.2.3,MacIntel,59.88023952,65e67470ae2fbf2172c317b2,65e79a8e36f3a1b9d1ba4bdd,,,,,,,,,,,138.8554,1.1,139.9571,139.9571,141.7905,right,1,1.8312,,141.7906,142.7865,0,11,11,5,1,total,1,images/Ex6.jpg,right,training,hard,1,,,,,
,,,,,5efea1f363271c3b76d4c9ed,001,,,,,2024-03-05_22h20.22.096,CRL1h,2023.2.3,MacIntel,59.88023952,65e67470ae2fbf2172c317b2,65e79a8e36f3a1b9d1ba4bdd,,,,,,,,,,,142.7869,1.4,144.1877,144.1877,144.6371,right,1,0.4474,,144.6371,145.6395,0,12,12,14,1,total,1,images/Ex7.jpg,right,training,hard,1,,,,,
,,,,,5efea1f363271c3b76d4c9ed,001,,,,,2024-03-05_22h20.22.096,CRL1h,2023.2.3,MacIntel,59.88023952,65e67470ae2fbf2172c317b2,65e79a8e36f3a1b9d1ba4bdd,,,,,,,,,,,145.6398,0.6,146.2386,146.2389,147.3204,left,1,1.0759,,147.3204,148.3187,0,13,13,0,1,total,1,images/Ex1.jpg,left,training,hard,1,,,,,
,,,,,5efea1f363271c3b76d4c9ed,001,,,,,2024-03-05_22h20.22.096,CRL1h,2023.2.3,MacIntel,59.88023952,65e67470ae2fbf2172c317b2,65e79a8e36f3a1b9d1ba4bdd,,,,,,,,,,,148.3193,1.3,149.6188,149.6188,150.5698,right,0,0.9466,,150.5698,151.5685,0,14,14,3,1,total,1,images/Ex4.jpg,left,training,hard,1,,,,,
,,,,,5efea1f363271c3b76d4c9ed,001,,,,,2024-03-05_22h20.22.096,CRL1h,2023.2.3,MacIntel,59.88023952,65e67470ae2fbf2172c317b2,65e79a8e36f3a1b9d1ba4bdd,,,,,,,,,,,151.5689,0.8,152.3698,152.3699,152.918,left,1,0.5456,,152.918,153.9203,0,15,15,11,1,total,1,images/Ex4.jpg,left,training,hard,1,,,,,
,,,,,5efea1f363271c3b76d4c9ed,001,,,,,2024-03-05_22h20.22.096,CRL1h,2023.2.3,MacIntel,59.88023952,65e67470ae2fbf2172c317b2,65e79a8e36f3a1b9d1ba4bdd,,,,,,,,,,,153.9208,1,154.9197,154.9198,156.0198,right,1,1.0932,,156.0198,157.0191,1,0,16,5,1,total,1,images/Ex6.jpg,right,training,hard,1,,,,,
,,,,,5efea1f363271c3b76d4c9ed,001,,,,,2024-03-05_22h20.22.096,CRL1h,2023.2.3,MacIntel,59.88023952,65e67470ae2fbf2172c317b2,65e79a8e36f3a1b9d1ba4bdd,,,,,,,,,,,157.0199,1.4,158.4183,158.4183,159.6184,left,0,1.197,,159.6185,160.6176,1,1,17,6,1,total,1,images/Ex7.jpg,right,training,hard,1,,,,,
,,,,,5efea1f363271c3b76d4c9ed,001,,,,,2024-03-05_22h20.22.096,CRL1h,2023.2.3,MacIntel,59.88023952,65e67470ae2fbf2172c317b2,65e79a8e36f3a1b9d1ba4bdd,,,,,,,,,,,160.6189,0.5,161.1096,161.1096,163.4188,right,0,2.3041,,163.4189,164.4221,1,2,18,2,1,total,1,images/Ex3.jpg,left,training,hard,1,,,,,
,,,,,5efea1f363271c3b76d4c9ed,001,,,,,2024-03-05_22h20.22.096,CRL1h,2023.2.3,MacIntel,59.88023952,65e67470ae2fbf2172c317b2,65e79a8e36f3a1b9d1ba4bdd,,,,,,,,,,,164.4386,1,165.436,165.4362,167.1516,left,0,1.7099,,167.1517,168.1508,1,3,19,4,1,total,1,images/Ex5.jpg,right,training,hard,1,,,,,
,,,,,5efea1f363271c3b76d4c9ed,001,,,,,2024-03-05_22h20.22.096,CRL1h,2023.2.3,MacIntel,59.88023952,65e67470ae2fbf2172c317b2,65e79a8e36f3a1b9d1ba4bdd,,,,,,,,,,,168.1666,0.9,169.0646,169.0646,169.6501,right,1,0.5816,,169.6504,170.6532,1,4,20,13,1,total,1,images/Ex6.jpg,right,training,hard,1,,,,,
,,,,,5efea1f363271c3b76d4c9ed,001,,,,,2024-03-05_22h20.22.096,CRL1h,2023.2.3,MacIntel,59.88023952,65e67470ae2fbf2172c317b2,65e79a8e36f3a1b9d1ba4bdd,,,,,,,,,,,170.6537,0.6,171.251,171.2511,171.8524,right,0,0.5997,,171.8524,172.8509,1,5,21,9,1,total,1,images/Ex2.jpg,left,training,hard,1,,,,,
,,,,,5efea1f363271c3b76d4c9ed,001,,,,,2024-03-05_22h20.22.096,CRL1h,2023.2.3,MacIntel,59.88023952,65e67470ae2fbf2172c317b2,65e79a8e36f3a1b9d1ba4bdd,,,,,,,,,,,172.8515,0.9,173.752,173.752,174.3183,left,0,0.557,,174.3183,175.3187,1,6,22,14,1,total,1,images/Ex7.jpg,right,training,hard,1,,,,,
,,,,,5efea1f363271c3b76d4c9ed,001,,,,,2024-03-05_22h20.22.096,CRL1h,2023.2.3,MacIntel,59.88023952,65e67470ae2fbf2172c317b2,65e79a8e36f3a1b9d1ba4bdd,,,,,,,,,,,175.3194,0.6,175.9188,175.9188,176.617,left,0,0.6943,,176.617,177.6184,1,7,23,12,1,total,1,images/Ex5.jpg,right,training,hard,1,,,,,
,,,,,5efea1f363271c3b76d4c9ed,001,,,,,2024-03-05_22h20.22.096,CRL1h,2023.2.3,MacIntel,59.88023952,65e67470ae2fbf2172c317b2,65e79a8e36f3a1b9d1ba4bdd,,,,,,,,,,,177.619,0.7,178.3177,178.3177,179.0166,right,0,0.6928,,179.0167,180.0175,1,8,24,8,1,total,1,images/Ex1.jpg,left,training,hard,1,,,,,
,,,,,5efea1f363271c3b76d4c9ed,001,,,,,2024-03-05_22h20.22.096,CRL1h,2023.2.3,MacIntel,59.88023952,65e67470ae2fbf2172c317b2,65e79a8e36f3a1b9d1ba4bdd,,,,,,,,,,,180.0181,0.7,180.718,180.718,182.0172,left,1,1.2932,,182.0172,183.0169,1,9,25,10,1,total,1,images/Ex3.jpg,left,training,hard,1,,,,,
,,,,,5efea1f363271c3b76d4c9ed,001,,,,,2024-03-05_22h20.22.096,CRL1h,2023.2.3,MacIntel,59.88023952,65e67470ae2fbf2172c317b2,65e79a8e36f3a1b9d1ba4bdd,,,,,,,,,,,183.0176,0.9,183.9178,183.9178,184.7503,right,0,0.8259,,184.7503,185.7509,1,10,26,11,1,total,1,images/Ex4.jpg,left,training,hard,1,,,,,
,,,,,5efea1f363271c3b76d4c9ed,001,,,,,2024-03-05_22h20.22.096,CRL1h,2023.2.3,MacIntel,59.88023952,65e67470ae2fbf2172c317b2,65e79a8e36f3a1b9d1ba4bdd,,,,,,,,,,,185.7517,1.2,186.9507,186.9507,187.8513,left,1,0.8939,,187.8514,188.8495,1,11,27,0,1,total,1,images/Ex1.jpg,left,training,hard,1,,,,,
,,,,,5efea1f363271c3b76d4c9ed,001,,,,,2024-03-05_22h20.22.096,CRL1h,2023.2.3,MacIntel,59.88023952,65e67470ae2fbf2172c317b2,65e79a8e36f3a1b9d1ba4bdd,,,,,,,,,,,188.8502,1.1,189.956,189.956,190.8167,right,1,0.8552,,190.8168,191.8167,1,12,28,15,1,total,1,images/Ex8.jpg,right,training,hard,1,,,,,
,,,,,5efea1f363271c3b76d4c9ed,001,,,,,2024-03-05_22h20.22.096,CRL1h,2023.2.3,MacIntel,59.88023952,65e67470ae2fbf2172c317b2,65e79a8e36f3a1b9d1ba4bdd,,,,,,,,,,,191.8173,0.9,192.7162,192.7162,194.0189,right,0,1.301,,194.019,195.0165,1,13,29,3,1,total,1,images/Ex4.jpg,left,training,hard,1,,,,,
,,,,,5efea1f363271c3b76d4c9ed,001,,,,,2024-03-05_22h20.22.096,CRL1h,2023.2.3,MacIntel,59.88023952,65e67470ae2fbf2172c317b2,65e79a8e36f3a1b9d1ba4bdd,,,,,,,,,,,195.0173,0.6,195.6161,195.6161,196.8818,left,1,1.2605,,196.8818,197.8807,1,14,30,1,1,total,1,images/Ex2.jpg,left,training,hard,1,,,,,
,,,,,5efea1f363271c3b76d4c9ed,001,,,,,2024-03-05_22h20.22.096,CRL1h,2023.2.3,MacIntel,59.88023952,65e67470ae2fbf2172c317b2,65e79a8e36f3a1b9d1ba4bdd,,,,,,,,,,,197.8814,0.5,198.3819,198.3819,199.5679,right,1,1.1842,,199.568,200.5661,1,15,31,7,1,total,1,images/Ex8.jpg,right,training,hard,1,,,,,
,,,,,5efea1f363271c3b76d4c9ed,001,,,,,2024-03-05_22h20.22.096,CRL1h,2023.2.3,MacIntel,59.88023952,65e67470ae2fbf2172c317b2,65e79a8e36f3a1b9d1ba4bdd,,,,,,,,,,,200.5668,0.9,201.4646,201.4647,202.4352,left,1,0.9681,,202.4352,203.4323,2,0,32,3,1,total,1,images/Ex4.jpg,left,training,hard,1,,,,,
,,,,,5efea1f363271c3b76d4c9ed,001,,,,,2024-03-05_22h20.22.096,CRL1h,2023.2.3,MacIntel,59.88023952,65e67470ae2fbf2172c317b2,65e79a8e36f3a1b9d1ba4bdd,,,,,,,,,,,203.4329,1.3,204.7321,204.7321,205.5316,right,1,0.7928,,205.5316,206.5316,2,1,33,14,1,total,1,images/Ex7.jpg,right,training,hard,1,,,,,
,,,,,5efea1f363271c3b76d4c9ed,001,,,,,2024-03-05_22h20.22.096,CRL1h,2023.2.3,MacIntel,59.88023952,65e67470ae2fbf2172c317b2,65e79a8e36f3a1b9d1ba4bdd,,,,,,,,,,,206.5324,0.6,207.1312,207.1312,208.6491,left,1,1.5119,,208.6491,209.6485,2,2,34,0,1,total,1,images/Ex1.jpg,left,training,hard,1,,,,,
,,,,,5efea1f363271c3b76d4c9ed,001,,,,,2024-03-05_22h20.22.096,CRL1h,2023.2.3,MacIntel,59.88023952,65e67470ae2fbf2172c317b2,65e79a8e36f3a1b9d1ba4bdd,,,,,,,,,,,209.6639,1,210.6639,210.6639,211.6152,right,1,0.9469,,211.6152,212.6145,2,3,35,13,1,total,1,images/Ex6.jpg,right,training,hard,1,,,,,
,,,,,5efea1f363271c3b76d4c9ed,001,,,,,2024-03-05_22h20.22.096,CRL1h,2023.2.3,MacIntel,59.88023952,65e67470ae2fbf2172c317b2,65e79a8e36f3a1b9d1ba4bdd,,,,,,,,,,,212.6149,1.4,214.0139,214.0141,215.13,left,1,1.1105,,215.1306,216.1305,2,4,36,9,1,total,1,images/Ex2.jpg,left,training,hard,1,,,,,
,,,,,5efea1f363271c3b76d4c9ed,001,,,,,2024-03-05_22h20.22.096,CRL1h,2023.2.3,MacIntel,59.88023952,65e67470ae2fbf2172c317b2,65e79a8e36f3a1b9d1ba4bdd,,,,,,,,,,,216.1312,0.5,216.6308,216.6309,217.1633,left,1,0.5259,,217.1634,218.1608,2,5,37,8,1,total,1,images/Ex1.jpg,left,training,hard,1,,,,,
,,,,,5efea1f363271c3b76d4c9ed,001,,,,,2024-03-05_22h20.22.096,CRL1h,2023.2.3,MacIntel,59.88023952,65e67470ae2fbf2172c317b2,65e79a8e36f3a1b9d1ba4bdd,,,,,,,,,,,218.1611,1.1,219.2624,219.2624,219.5291,right,1,0.2603,,219.5292,220.529,2,6,38,6,1,total,1,images/Ex7.jpg,right,training,hard,1,,,,,
,,,,,5efea1f363271c3b76d4c9ed,001,,,,,2024-03-05_22h20.22.096,CRL1h,2023.2.3,MacIntel,59.88023952,65e67470ae2fbf2172c317b2,65e79a8e36f3a1b9d1ba4bdd,,,,,,,,,,,220.5303,0.6,221.1286,221.1286,221.6303,right,0,0.4945,,221.6304,222.63,2,7,39,10,1,total,1,images/Ex3.jpg,left,training,hard,1,,,,,
,,,,,5efea1f363271c3b76d4c9ed,001,,,,,2024-03-05_22h20.22.096,CRL1h,2023.2.3,MacIntel,59.88023952,65e67470ae2fbf2172c317b2,65e79a8e36f3a1b9d1ba4bdd,,,,,,,,,,,222.6306,1.5,224.1315,224.1315,226.2286,right,0,2.0907,,226.2289,227.229,2,8,40,11,1,total,1,images/Ex4.jpg,left,training,hard,1,,,,,
,,,,,5efea1f363271c3b76d4c9ed,001,,,,,2024-03-05_22h20.22.096,CRL1h,2023.2.3,MacIntel,59.88023952,65e67470ae2fbf2172c317b2,65e79a8e36f3a1b9d1ba4bdd,,,,,,,,,,,227.2297,1.3,228.529,228.5291,230.0113,right,1,1.4778,,230.0113,231.0099,2,9,41,4,1,total,1,images/Ex5.jpg,right,training,hard,1,,,,,
,,,,,5efea1f363271c3b76d4c9ed,001,,,,,2024-03-05_22h20.22.096,CRL1h,2023.2.3,MacIntel,59.88023952,65e67470ae2fbf2172c317b2,65e79a8e36f3a1b9d1ba4bdd,,,,,,,,,,,231.0104,0.5,231.5103,231.5104,233.7781,left,0,2.2623,,233.7782,234.7769,2,10,42,5,1,total,1,images/Ex6.jpg,right,training,hard,1,,,,,
,,,,,5efea1f363271c3b76d4c9ed,001,,,,,2024-03-05_22h20.22.096,CRL1h,2023.2.3,MacIntel,59.88023952,65e67470ae2fbf2172c317b2,65e79a8e36f3a1b9d1ba4bdd,,,,,,,,,,,234.7936,0.8,235.5927,235.5927,236.0782,right,1,0.4794,,236.0782,237.078,2,11,43,12,1,total,1,images/Ex5.jpg,right,training,hard,1,,,,,
,,,,,5efea1f363271c3b76d4c9ed,001,,,,,2024-03-05_22h20.22.096,CRL1h,2023.2.3,MacIntel,59.88023952,65e67470ae2fbf2172c317b2,65e79a8e36f3a1b9d1ba4bdd,,,,,,,,,,,237.0786,0.7,237.7765,237.7766,240.059,left,0,2.2781,,240.059,241.0618,2,12,44,7,1,total,1,images/Ex8.jpg,right,training,hard,1,,,,,
,,,,,5efea1f363271c3b76d4c9ed,001,,,,,2024-03-05_22h20.22.096,CRL1h,2023.2.3,MacIntel,59.88023952,65e67470ae2fbf2172c317b2,65e79a8e36f3a1b9d1ba4bdd,,,,,,,,,,,241.0622,0.7,241.761,241.761,242.6437,left,1,0.8786,,242.6438,243.6433,2,13,45,2,1,total,1,images/Ex3.jpg,left,training,hard,1,,,,,
,,,,,5efea1f363271c3b76d4c9ed,001,,,,,2024-03-05_22h20.22.096,CRL1h,2023.2.3,MacIntel,59.88023952,65e67470ae2fbf2172c317b2,65e79a8e36f3a1b9d1ba4bdd,,,,,,,,,,,243.6436,1.1,244.7421,244.7422,245.4089,right,1,0.6612,,245.4089,246.4089,2,14,46,15,1,total,1,images/Ex8.jpg,right,training,hard,1,,,,,
,,,,,5efea1f363271c3b76d4c9ed,001,,,,,2024-03-05_22h20.22.096,CRL1h,2023.2.3,MacIntel,59.88023952,65e67470ae2fbf2172c317b2,65e79a8e36f3a1b9d1ba4bdd,,,,,,,,,,,246.4095,0.7,247.1096,247.1096,248.2583,right,0,1.1475,,248.2583,249.2574,2,15,47,1,1,total,1,images/Ex2.jpg,left,training,hard,1,,,,,
,,,,,5efea1f363271c3b76d4c9ed,001,,,,,2024-03-05_22h20.22.096,CRL1h,2023.2.3,MacIntel,59.88023952,65e67470ae2fbf2172c317b2,65e79a8e36f3a1b9d1ba4bdd,,,,,,,,,,,249.2579,0.9,250.158,250.1581,250.8757,left,1,0.7153,,250.8758,251.8743,3,0,48,10,1,total,1,images/Ex3.jpg,left,training,hard,1,,,,,
,,,,,5efea1f363271c3b76d4c9ed,001,,,,,2024-03-05_22h20.22.096,CRL1h,2023.2.3,MacIntel,59.88023952,65e67470ae2fbf2172c317b2,65e79a8e36f3a1b9d1ba4bdd,,,,,,,,,,,251.8748,0.6,252.4759,252.4759,253.0937,right,1,0.6119,,253.0938,254.0919,3,1,49,5,1,total,1,images/Ex6.jpg,right,training,hard,1,,,,,
,,,,,5efea1f363271c3b76d4c9ed,001,,,,,2024-03-05_22h20.22.096,CRL1h,2023.2.3,MacIntel,59.88023952,65e67470ae2fbf2172c317b2,65e79a8e36f3a1b9d1ba4bdd,,,,,,,,,,,254.0926,0.5,254.5927,254.5928,256.2421,left,1,1.6431,,256.2422,257.2429,3,2,50,3,1,total,1,images/Ex4.jpg,left,training,hard,1,,,,,
,,,,,5efea1f363271c3b76d4c9ed,001,,,,,2024-03-05_22h20.22.096,CRL1h,2023.2.3,MacIntel,59.88023952,65e67470ae2fbf2172c317b2,65e79a8e36f3a1b9d1ba4bdd,,,,,,,,,,,257.2433,1.4,258.6394,258.6395,259.3742,left,1,0.7287,,259.3742,260.3755,3,3,51,11,1,total,1,images/Ex4.jpg,left,training,hard,1,,,,,
,,,,,5efea1f363271c3b76d4c9ed,001,,,,,2024-03-05_22h20.22.096,CRL1h,2023.2.3,MacIntel,59.88023952,65e67470ae2fbf2172c317b2,65e79a8e36f3a1b9d1ba4bdd,,,,,,,,,,,260.3759,1.5,261.8728,261.873,262.5564,right,1,0.6796,,262.5565,263.5564,3,4,52,12,1,total,1,images/Ex5.jpg,right,training,hard,1,,,,,
,,,,,5efea1f363271c3b76d4c9ed,001,,,,,2024-03-05_22h20.22.096,CRL1h,2023.2.3,MacIntel,59.88023952,65e67470ae2fbf2172c317b2,65e79a8e36f3a1b9d1ba4bdd,,,,,,,,,,,263.558,1,264.5577,264.5579,265.7745,right,1,1.2116,,265.7746,266.7724,3,5,53,4,1,total,1,images/Ex5.jpg,right,training,hard,1,,,,,
,,,,,5efea1f363271c3b76d4c9ed,001,,,,,2024-03-05_22h20.22.096,CRL1h,2023.2.3,MacIntel,59.88023952,65e67470ae2fbf2172c317b2,65e79a8e36f3a1b9d1ba4bdd,,,,,,,,,,,266.7744,0.9,267.675,267.675,269.3728,right,0,1.6963,,269.3729,270.3714,3,6,54,9,1,total,1,images/Ex2.jpg,left,training,hard,1,,,,,
,,,,,5efea1f363271c3b76d4c9ed,001,,,,,2024-03-05_22h20.22.096,CRL1h,2023.2.3,MacIntel,59.88023952,65e67470ae2fbf2172c317b2,65e79a8e36f3a1b9d1ba4bdd,,,,,,,,,,,270.3883,0.7,271.0886,271.0886,271.8412,left,0,0.7471,,271.8413,272.8394,3,7,55,6,1,total,1,images/Ex7.jpg,right,training,hard,1,,,,,
,,,,,5efea1f363271c3b76d4c9ed,001,,,,,2024-03-05_22h20.22.096,CRL1h,2023.2.3,MacIntel,59.88023952,65e67470ae2fbf2172c317b2,65e79a8e36f3a1b9d1ba4bdd,,,,,,,,,,,272.8401,0.7,273.5413,273.5413,274.1217,left,0,0.5771,,274.1218,275.1217,3,8,56,7,1,total,1,images/Ex8.jpg,right,training,hard,1,,,,,
,,,,,5efea1f363271c3b76d4c9ed,001,,,,,2024-03-05_22h20.22.096,CRL1h,2023.2.3,MacIntel,59.88023952,65e67470ae2fbf2172c317b2,65e79a8e36f3a1b9d1ba4bdd,,,,,,,,,,,275.1228,0.9,276.0232,276.0233,276.9558,left,1,0.9269,,276.9558,277.9557,3,9,57,8,1,total,1,images/Ex1.jpg,left,training,hard,1,,,,,
,,,,,5efea1f363271c3b76d4c9ed,001,,,,,2024-03-05_22h20.22.096,CRL1h,2023.2.3,MacIntel,59.88023952,65e67470ae2fbf2172c317b2,65e79a8e36f3a1b9d1ba4bdd,,,,,,,,,,,277.9561,1.3,279.2542,279.2542,280.4915,right,1,1.2326,,280.4915,281.4872,3,10,58,15,1,total,1,images/Ex8.jpg,right,training,hard,1,,,,,
,,,,,5efea1f363271c3b76d4c9ed,001,,,,,2024-03-05_22h20.22.096,CRL1h,2023.2.3,MacIntel,59.88023952,65e67470ae2fbf2172c317b2,65e79a8e36f3a1b9d1ba4bdd,,,,,,,,,,,281.4878,0.8,282.289,282.2894,283.3895,left,0,1.0954,,283.3896,284.3897,3,11,59,14,1,total,1,images/Ex7.jpg,right,training,hard,1,,,,,
,,,,,5efea1f363271c3b76d4c9ed,001,,,,,2024-03-05_22h20.22.096,CRL1h,2023.2.3,MacIntel,59.88023952,65e67470ae2fbf2172c317b2,65e79a8e36f3a1b9d1ba4bdd,,,,,,,,,,,284.3901,0.5,284.8868,284.8869,285.7719,right,0,0.8806,,285.772,286.7703,3,12,60,2,1,total,1,images/Ex3.jpg,left,training,hard,1,,,,,
,,,,,5efea1f363271c3b76d4c9ed,001,,,,,2024-03-05_22h20.22.096,CRL1h,2023.2.3,MacIntel,59.88023952,65e67470ae2fbf2172c317b2,65e79a8e36f3a1b9d1ba4bdd,,,,,,,,,,,286.7706,0.8,287.5716,287.5716,289.8052,left,1,2.2291,,289.8053,290.8034,3,13,61,1,1,total,1,images/Ex2.jpg,left,training,hard,1,,,,,
,,,,,5efea1f363271c3b76d4c9ed,001,,,,,2024-03-05_22h20.22.096,CRL1h,2023.2.3,MacIntel,59.88023952,65e67470ae2fbf2172c317b2,65e79a8e36f3a1b9d1ba4bdd,,,,,,,,,,,290.8207,1.4,292.2199,292.22,293.3877,left,1,1.1637,,293.3877,294.3863,3,14,62,0,1,total,1,images/Ex1.jpg,left,training,hard,1,,,,,
,,,,,5efea1f363271c3b76d4c9ed,001,,,,,2024-03-05_22h20.22.096,CRL1h,2023.2.3,MacIntel,59.88023952,65e67470ae2fbf2172c317b2,65e79a8e36f3a1b9d1ba4bdd,,,,,,,,,,,294.3868,1,295.3892,295.3892,296.2038,left,0,0.8098,,296.2038,297.2034,3,15,63,13,1,total,1,images/Ex6.jpg,right,training,hard,1,,,,,
,,,,,5efea1f363271c3b76d4c9ed,001,,,,,2024-03-05_22h20.22.096,CRL1h,2023.2.3,MacIntel,59.88023952,65e67470ae2fbf2172c317b2,65e79a8e36f3a1b9d1ba4bdd,,,,,,,,,,,297.2042,1,298.2034,298.2034,299.22,left,1,1.0126,,299.2202,300.22,4,0,64,1,1,total,1,images/Ex2.jpg,left,training,hard,1,,,,,
,,,,,5efea1f363271c3b76d4c9ed,001,,,,,2024-03-05_22h20.22.096,CRL1h,2023.2.3,MacIntel,59.88023952,65e67470ae2fbf2172c317b2,65e79a8e36f3a1b9d1ba4bdd,,,,,,,,,,,300.2209,1.1,301.3202,301.3204,302.0871,right,1,0.762,,302.0871,303.0864,4,1,65,7,1,total,1,images/Ex8.jpg,right,training,hard,1,,,,,
,,,,,5efea1f363271c3b76d4c9ed,001,,,,,2024-03-05_22h20.22.096,CRL1h,2023.2.3,MacIntel,59.88023952,65e67470ae2fbf2172c317b2,65e79a8e36f3a1b9d1ba4bdd,,,,,,,,,,,303.0872,1.1,304.1847,304.1847,306.07,left,1,1.8826,,306.07,307.0704,4,2,66,10,1,total,1,images/Ex3.jpg,left,training,hard,1,,,,,
,,,,,5efea1f363271c3b76d4c9ed,001,,,,,2024-03-05_22h20.22.096,CRL1h,2023.2.3,MacIntel,59.88023952,65e67470ae2fbf2172c317b2,65e79a8e36f3a1b9d1ba4bdd,,,,,,,,,,,307.0709,1.5,308.5686,308.5686,309.8526,left,0,1.2786,,309.8527,310.8536,4,3,67,5,1,total,1,images/Ex6.jpg,right,training,hard,1,,,,,
,,,,,5efea1f363271c3b76d4c9ed,001,,,,,2024-03-05_22h20.22.096,CRL1h,2023.2.3,MacIntel,59.88023952,65e67470ae2fbf2172c317b2,65e79a8e36f3a1b9d1ba4bdd,,,,,,,,,,,310.854,1,311.8514,311.8515,312.9521,right,0,1.096,,312.9521,313.9524,4,4,68,0,1,total,1,images/Ex1.jpg,left,training,hard,1,,,,,
,,,,,5efea1f363271c3b76d4c9ed,001,,,,,2024-03-05_22h20.22.096,CRL1h,2023.2.3,MacIntel,59.88023952,65e67470ae2fbf2172c317b2,65e79a8e36f3a1b9d1ba4bdd,,,,,,,,,,,313.9687,0.8,314.7693,314.7693,315.8524,left,0,1.0801,,315.8524,316.8518,4,5,69,14,1,total,1,images/Ex7.jpg,right,training,hard,1,,,,,
,,,,,5efea1f363271c3b76d4c9ed,001,,,,,2024-03-05_22h20.22.096,CRL1h,2023.2.3,MacIntel,59.88023952,65e67470ae2fbf2172c317b2,65e79a8e36f3a1b9d1ba4bdd,,,,,,,,,,,316.8526,0.6,317.4518,317.4518,318.6359,right,1,1.1771,,318.6359,319.6341,4,6,70,15,1,total,1,images/Ex8.jpg,right,training,hard,1,,,,,
,,,,,5efea1f363271c3b76d4c9ed,001,,,,,2024-03-05_22h20.22.096,CRL1h,2023.2.3,MacIntel,59.88023952,65e67470ae2fbf2172c317b2,65e79a8e36f3a1b9d1ba4bdd,,,,,,,,,,,319.6346,1.5,321.1364,321.1364,322.7505,left,1,1.611,,322.7506,323.7502,4,7,71,9,1,total,1,images/Ex2.jpg,left,training,hard,1,,,,,
,,,,,5efea1f363271c3b76d4c9ed,001,,,,,2024-03-05_22h20.22.096,CRL1h,2023.2.3,MacIntel,59.88023952,65e67470ae2fbf2172c317b2,65e79a8e36f3a1b9d1ba4bdd,,,,,,,,,,,323.7513,1.3,325.049,325.049,326.067,left,1,1.0129,,326.067,327.0677,4,8,72,3,1,total,1,images/Ex4.jpg,left,training,hard,1,,,,,
,,,,,5efea1f363271c3b76d4c9ed,001,,,,,2024-03-05_22h20.22.096,CRL1h,2023.2.3,MacIntel,59.88023952,65e67470ae2fbf2172c317b2,65e79a8e36f3a1b9d1ba4bdd,,,,,,,,,,,327.0683,1.1,328.1665,328.1665,329.182,right,0,1.0123,,329.182,330.1823,4,9,73,8,1,total,1,images/Ex1.jpg,left,training,hard,1,,,,,
,,,,,5efea1f363271c3b76d4c9ed,001,,,,,2024-03-05_22h20.22.096,CRL1h,2023.2.3,MacIntel,59.88023952,65e67470ae2fbf2172c317b2,65e79a8e36f3a1b9d1ba4bdd,,,,,,,,,,,330.183,1.4,331.5826,331.5828,333.1329,left,1,1.5445,,333.1335,334.132,4,10,74,2,1,total,1,images/Ex3.jpg,left,training,hard,1,,,,,
,,,,,5efea1f363271c3b76d4c9ed,001,,,,,2024-03-05_22h20.22.096,CRL1h,2023.2.3,MacIntel,59.88023952,65e67470ae2fbf2172c317b2,65e79a8e36f3a1b9d1ba4bdd,,,,,,,,,,,334.1497,1.4,335.5493,335.5493,337.0006,right,1,1.4489,,337.0006,337.9992,4,11,75,4,1,total,1,images/Ex5.jpg,right,training,hard,1,,,,,
,,,,,5efea1f363271c3b76d4c9ed,001,,,,,2024-03-05_22h20.22.096,CRL1h,2023.2.3,MacIntel,59.88023952,65e67470ae2fbf2172c317b2,65e79a8e36f3a1b9d1ba4bdd,,,,,,,,,,,338.0149,0.6,338.6139,338.6139,341.3025,left,0,2.6859,,341.3026,342.2972,4,12,76,13,1,total,1,images/Ex6.jpg,right,training,hard,1,,,,,
,,,,,5efea1f363271c3b76d4c9ed,001,,,,,2024-03-05_22h20.22.096,CRL1h,2023.2.3,MacIntel,59.88023952,65e67470ae2fbf2172c317b2,65e79a8e36f3a1b9d1ba4bdd,,,,,,,,,,,342.3132,1,343.3155,343.3156,344.0984,left,1,0.7813,,344.0984,345.0974,4,13,77,11,1,total,1,images/Ex4.jpg,left,training,hard,1,,,,,
,,,,,5efea1f363271c3b76d4c9ed,001,,,,,2024-03-05_22h20.22.096,CRL1h,2023.2.3,MacIntel,59.88023952,65e67470ae2fbf2172c317b2,65e79a8e36f3a1b9d1ba4bdd,,,,,,,,,,,345.0977,1.1,346.1983,346.1985,347.0485,right,1,0.8445,,347.0486,348.0462,4,14,78,12,1,total,1,images/Ex5.jpg,right,training,hard,1,,,,,
,,,,,5efea1f363271c3b76d4c9ed,001,,,,,2024-03-05_22h20.22.096,CRL1h,2023.2.3,MacIntel,59.88023952,65e67470ae2fbf2172c317b2,65e79a8e36f3a1b9d1ba4bdd,,,,,,,,,,,348.0466,0.6,348.6464,348.6464,350.6303,left,0,1.9795,,350.6303,351.631,4,15,79,6,1,total,1,images/Ex7.jpg,right,training,hard,1,,,,,
,,,,,5efea1f363271c3b76d4c9ed,001,,,,,2024-03-05_22h20.22.096,CRL1h,2023.2.3,MacIntel,59.88023952,65e67470ae2fbf2172c317b2,65e79a8e36f3a1b9d1ba4bdd,,,,,,,,,,,351.6322,0.8,352.4304,352.4304,354.1308,left,1,1.6966,,354.1309,355.1295,5,0,80,10,1,total,1,images/Ex3.jpg,left,training,hard,1,,,,,
,,,,,5efea1f363271c3b76d4c9ed,001,,,,,2024-03-05_22h20.22.096,CRL1h,2023.2.3,MacIntel,59.88023952,65e67470ae2fbf2172c317b2,65e79a8e36f3a1b9d1ba4bdd,,,,,,,,,,,355.1302,1.3,356.4295,356.4295,359.43,left,1,2.9953,,359.4301,360.4289,5,1,81,8,1,total,1,images/Ex1.jpg,left,training,hard,1,,,,,
,,,,,5efea1f363271c3b76d4c9ed,001,,,,,2024-03-05_22h20.22.096,CRL1h,2023.2.3,MacIntel,59.88023952,65e67470ae2fbf2172c317b2,65e79a8e36f3a1b9d1ba4bdd,,,,,,,,,,,360.4443,0.6,361.0449,361.0449,362.1129,right,1,1.0626,,362.1131,363.1139,5,2,82,5,1,total,1,images/Ex6.jpg,right,training,hard,1,,,,,
,,,,,5efea1f363271c3b76d4c9ed,001,,,,,2024-03-05_22h20.22.096,CRL1h,2023.2.3,MacIntel,59.88023952,65e67470ae2fbf2172c317b2,65e79a8e36f3a1b9d1ba4bdd,,,,,,,,,,,363.1146,0.7,363.8117,363.8118,364.6457,right,1,0.8293,,364.6458,365.6461,5,3,83,4,1,total,1,images/Ex5.jpg,right,training,hard,1,,,,,
,,,,,5efea1f363271c3b76d4c9ed,001,,,,,2024-03-05_22h20.22.096,CRL1h,2023.2.3,MacIntel,59.88023952,65e67470ae2fbf2172c317b2,65e79a8e36f3a1b9d1ba4bdd,,,,,,,,,,,365.6467,1.4,367.0472,367.0472,367.8142,right,1,0.7596,,367.8142,368.8123,5,4,84,12,1,total,1,images/Ex5.jpg,right,training,hard,1,,,,,
,,,,,5efea1f363271c3b76d4c9ed,001,,,,,2024-03-05_22h20.22.096,CRL1h,2023.2.3,MacIntel,59.88023952,65e67470ae2fbf2172c317b2,65e79a8e36f3a1b9d1ba4bdd,,,,,,,,,,,368.8129,0.9,369.7121,369.7122,370.7462,left,1,1.0294,,370.7462,371.7446,5,5,85,2,1,total,1,images/Ex3.jpg,left,training,hard,1,,,,,
,,,,,5efea1f363271c3b76d4c9ed,001,,,,,2024-03-05_22h20.22.096,CRL1h,2023.2.3,MacIntel,59.88023952,65e67470ae2fbf2172c317b2,65e79a8e36f3a1b9d1ba4bdd,,,,,,,,,,,371.7451,1.2,372.9468,372.9468,373.8455,right,1,0.8955,,373.8456,374.8452,5,6,86,7,1,total,1,images/Ex8.jpg,right,training,hard,1,,,,,
,,,,,5efea1f363271c3b76d4c9ed,001,,,,,2024-03-05_22h20.22.096,CRL1h,2023.2.3,MacIntel,59.88023952,65e67470ae2fbf2172c317b2,65e79a8e36f3a1b9d1ba4bdd,,,,,,,,,,,374.8457,1.2,376.0455,376.0455,376.9454,right,1,0.8959,,376.9455,377.9446,5,7,87,15,1,total,1,images/Ex8.jpg,right,training,hard,1,,,,,
,,,,,5efea1f363271c3b76d4c9ed,001,,,,,2024-03-05_22h20.22.096,CRL1h,2023.2.3,MacIntel,59.88023952,65e67470ae2fbf2172c317b2,65e79a8e36f3a1b9d1ba4bdd,,,,,,,,,,,377.9451,1.3,379.2454,379.2455,379.93,left,1,0.6835,,379.93,380.9263,5,8,88,11,1,total,1,images/Ex4.jpg,left,training,hard,1,,,,,
,,,,,5efea1f363271c3b76d4c9ed,001,,,,,2024-03-05_22h20.22.096,CRL1h,2023.2.3,MacIntel,59.88023952,65e67470ae2fbf2172c317b2,65e79a8e36f3a1b9d1ba4bdd,,,,,,,,,,,380.9268,1.2,382.1263,382.1263,384.5125,left,0,2.3788,,384.5125,385.5097,5,9,89,14,1,total,1,images/Ex7.jpg,right,training,hard,1,,,,,
,,,,,5efea1f363271c3b76d4c9ed,001,,,,,2024-03-05_22h20.22.096,CRL1h,2023.2.3,MacIntel,59.88023952,65e67470ae2fbf2172c317b2,65e79a8e36f3a1b9d1ba4bdd,,,,,,,,,,,385.5101,0.7,386.2098,386.2098,388.6587,right,1,2.4452,,388.6588,389.6602,5,10,90,13,1,total,1,images/Ex6.jpg,right,training,hard,1,,,,,
,,,,,5efea1f363271c3b76d4c9ed,001,,,,,2024-03-05_22h20.22.096,CRL1h,2023.2.3,MacIntel,59.88023952,65e67470ae2fbf2172c317b2,65e79a8e36f3a1b9d1ba4bdd,,,,,,,,,,,389.6609,1.5,391.1604,391.1604,394.8269,right,1,3.658,,394.8269,395.8254,5,11,91,6,1,total,1,images/Ex7.jpg,right,training,hard,1,,,,,
,,,,,5efea1f363271c3b76d4c9ed,001,,,,,2024-03-05_22h20.22.096,CRL1h,2023.2.3,MacIntel,59.88023952,65e67470ae2fbf2172c317b2,65e79a8e36f3a1b9d1ba4bdd,,,,,,,,,,,395.8429,1.1,396.9411,396.9411,398.4087,left,1,1.4626,,398.4088,399.4074,5,12,92,0,1,total,1,images/Ex1.jpg,left,training,hard,1,,,,,
,,,,,5efea1f363271c3b76d4c9ed,001,,,,,2024-03-05_22h20.22.096,CRL1h,2023.2.3,MacIntel,59.88023952,65e67470ae2fbf2172c317b2,65e79a8e36f3a1b9d1ba4bdd,,,,,,,,,,,399.4089,1.2,400.6086,400.6086,401.5235,left,1,0.9114,,401.5235,402.526,5,13,93,1,1,total,1,images/Ex2.jpg,left,training,hard,1,,,,,
,,,,,5efea1f363271c3b76d4c9ed,001,,,,,2024-03-05_22h20.22.096,CRL1h,2023.2.3,MacIntel,59.88023952,65e67470ae2fbf2172c317b2,65e79a8e36f3a1b9d1ba4bdd,,,,,,,,,,,402.5265,0.6,403.1233,403.1234,403.7744,left,1,0.646,,403.7744,404.7758,5,14,94,3,1,total,1,images/Ex4.jpg,left,training,hard,1,,,,,
,,,,,5efea1f363271c3b76d4c9ed,001,,,,,2024-03-05_22h20.22.096,CRL1h,2023.2.3,MacIntel,59.88023952,65e67470ae2fbf2172c317b2,65e79a8e36f3a1b9d1ba4bdd,,,,,,,,,,,404.7763,1.4,406.174,406.1741,406.8928,left,1,0.7132,,406.8928,407.8911,5,15,95,9,1,total,1,images/Ex2.jpg,left,training,hard,1,,,,,
,,,,,5efea1f363271c3b76d4c9ed,001,,,,,2024-03-05_22h20.22.096,CRL1h,2023.2.3,MacIntel,59.88023952,65e67470ae2fbf2172c317b2,65e79a8e36f3a1b9d1ba4bdd,,,,,,,,,,,407.8919,1.3,409.1901,409.1901,410.1257,right,1,0.9288,,410.1258,411.1265,6,0,96,6,1,total,1,images/Ex7.jpg,right,training,hard,1,,,,,
,,,,,5efea1f363271c3b76d4c9ed,001,,,,,2024-03-05_22h20.22.096,CRL1h,2023.2.3,MacIntel,59.88023952,65e67470ae2fbf2172c317b2,65e79a8e36f3a1b9d1ba4bdd,,,,,,,,,,,411.1271,1,412.124,412.124,412.8573,left,1,0.7293,,412.8573,413.8568,6,1,97,8,1,total,1,images/Ex1.jpg,left,training,hard,1,,,,,
,,,,,5efea1f363271c3b76d4c9ed,001,,,,,2024-03-05_22h20.22.096,CRL1h,2023.2.3,MacIntel,59.88023952,65e67470ae2fbf2172c317b2,65e79a8e36f3a1b9d1ba4bdd,,,,,,,,,,,413.8575,0.9,414.7565,414.7566,415.4429,left,1,0.6728,,415.4429,416.4387,6,2,98,1,1,total,1,images/Ex2.jpg,left,training,hard,1,,,,,
,,,,,5efea1f363271c3b76d4c9ed,001,,,,,2024-03-05_22h20.22.096,CRL1h,2023.2.3,MacIntel,59.88023952,65e67470ae2fbf2172c317b2,65e79a8e36f3a1b9d1ba4bdd,,,,,,,,,,,416.439,0.5,416.9405,416.9405,417.7735,left,0,0.8247,,417.7735,418.7727,6,3,99,14,1,total,1,images/Ex7.jpg,right,training,hard,1,,,,,
,,,,,5efea1f363271c3b76d4c9ed,001,,,,,2024-03-05_22h20.22.096,CRL1h,2023.2.3,MacIntel,59.88023952,65e67470ae2fbf2172c317b2,65e79a8e36f3a1b9d1ba4bdd,,,,,,,,,,,418.7746,0.7,419.4725,419.4725,420.1212,left,1,0.6445,,420.1212,421.1227,6,4,100,9,1,total,1,images/Ex2.jpg,left,training,hard,1,,,,,
,,,,,5efea1f363271c3b76d4c9ed,001,,,,,2024-03-05_22h20.22.096,CRL1h,2023.2.3,MacIntel,59.88023952,65e67470ae2fbf2172c317b2,65e79a8e36f3a1b9d1ba4bdd,,,,,,,,,,,421.1233,1.1,422.2212,422.2213,423.7895,right,1,1.5626,,423.7895,424.7883,6,5,101,13,1,total,1,images/Ex6.jpg,right,training,hard,1,,,,,
,,,,,5efea1f363271c3b76d4c9ed,001,,,,,2024-03-05_22h20.22.096,CRL1h,2023.2.3,MacIntel,59.88023952,65e67470ae2fbf2172c317b2,65e79a8e36f3a1b9d1ba4bdd,,,,,,,,,,,424.789,0.6,425.3883,425.3883,426.4067,right,1,1.0113,,426.4067,427.4047,6,6,102,7,1,total,1,images/Ex8.jpg,right,training,hard,1,,,,,
,,,,,5efea1f363271c3b76d4c9ed,001,,,,,2024-03-05_22h20.22.096,CRL1h,2023.2.3,MacIntel,59.88023952,65e67470ae2fbf2172c317b2,65e79a8e36f3a1b9d1ba4bdd,,,,,,,,,,,427.4053,0.7,428.1067,428.1067,429.5224,right,1,1.413,,429.5224,430.5206,6,7,103,5,1,total,1,images/Ex6.jpg,right,training,hard,1,,,,,
,,,,,5efea1f363271c3b76d4c9ed,001,,,,,2024-03-05_22h20.22.096,CRL1h,2023.2.3,MacIntel,59.88023952,65e67470ae2fbf2172c317b2,65e79a8e36f3a1b9d1ba4bdd,,,,,,,,,,,430.5383,1.1,431.6383,431.6383,432.4731,right,1,0.8288,,432.4731,433.4698,6,8,104,15,1,total,1,images/Ex8.jpg,right,training,hard,1,,,,,
,,,,,5efea1f363271c3b76d4c9ed,001,,,,,2024-03-05_22h20.22.096,CRL1h,2023.2.3,MacIntel,59.88023952,65e67470ae2fbf2172c317b2,65e79a8e36f3a1b9d1ba4bdd,,,,,,,,,,,433.4703,1.4,434.8711,434.8712,435.5224,left,1,0.6457,,435.5224,436.5212,6,9,105,3,1,total,1,images/Ex4.jpg,left,training,hard,1,,,,,
,,,,,5efea1f363271c3b76d4c9ed,001,,,,,2024-03-05_22h20.22.096,CRL1h,2023.2.3,MacIntel,59.88023952,65e67470ae2fbf2172c317b2,65e79a8e36f3a1b9d1ba4bdd,,,,,,,,,,,436.5218,1.4,437.9213,437.9214,438.9541,left,1,1.0301,,438.9542,439.9527,6,10,106,2,1,total,1,images/Ex3.jpg,left,training,hard,1,,,,,
,,,,,5efea1f363271c3b76d4c9ed,001,,,,,2024-03-05_22h20.22.096,CRL1h,2023.2.3,MacIntel,59.88023952,65e67470ae2fbf2172c317b2,65e79a8e36f3a1b9d1ba4bdd,,,,,,,,,,,439.9533,1.1,441.0539,441.054,441.6227,left,1,0.5659,,441.6227,442.6193,6,11,107,10,1,total,1,images/Ex3.jpg,left,training,hard,1,,,,,
,,,,,5efea1f363271c3b76d4c9ed,001,,,,,2024-03-05_22h20.22.096,CRL1h,2023.2.3,MacIntel,59.88023952,65e67470ae2fbf2172c317b2,65e79a8e36f3a1b9d1ba4bdd,,,,,,,,,,,442.6198,0.7,443.3188,443.3188,443.8869,left,1,0.5635,,443.8869,444.8871,6,12,108,11,1,total,1,images/Ex4.jpg,left,training,hard,1,,,,,
,,,,,5efea1f363271c3b76d4c9ed,001,,,,,2024-03-05_22h20.22.096,CRL1h,2023.2.3,MacIntel,59.88023952,65e67470ae2fbf2172c317b2,65e79a8e36f3a1b9d1ba4bdd,,,,,,,,,,,444.8879,0.7,445.5886,445.5886,446.3705,right,1,0.7764,,446.3705,447.3688,6,13,109,4,1,total,1,images/Ex5.jpg,right,training,hard,1,,,,,
,,,,,5efea1f363271c3b76d4c9ed,001,,,,,2024-03-05_22h20.22.096,CRL1h,2023.2.3,MacIntel,59.88023952,65e67470ae2fbf2172c317b2,65e79a8e36f3a1b9d1ba4bdd,,,,,,,,,,,447.3693,1.2,448.5682,448.5683,449.236,left,1,0.6622,,449.2361,450.2361,6,14,110,0,1,total,1,images/Ex1.jpg,left,training,hard,1,,,,,
,,,,,5efea1f363271c3b76d4c9ed,001,,,,,2024-03-05_22h20.22.096,CRL1h,2023.2.3,MacIntel,59.88023952,65e67470ae2fbf2172c317b2,65e79a8e36f3a1b9d1ba4bdd,,,,,,,,,,,450.2369,1.3,451.5375,451.5375,452.2357,right,1,0.695,,452.2358,453.2359,6,15,111,12,1,total,1,images/Ex5.jpg,right,training,hard,1,,,,,
,,,,,5efea1f363271c3b76d4c9ed,001,,,,,2024-03-05_22h20.22.096,CRL1h,2023.2.3,MacIntel,59.88023952,65e67470ae2fbf2172c317b2,65e79a8e36f3a1b9d1ba4bdd,,,,,,,,,,,453.2367,0.5,453.7362,453.7363,454.5185,right,1,0.7778,,454.5185,455.5189,7,0,112,7,1,total,1,images/Ex8.jpg,right,training,hard,1,,,,,
,,,,,5efea1f363271c3b76d4c9ed,001,,,,,2024-03-05_22h20.22.096,CRL1h,2023.2.3,MacIntel,59.88023952,65e67470ae2fbf2172c317b2,65e79a8e36f3a1b9d1ba4bdd,,,,,,,,,,,455.5198,0.6,456.1185,456.1185,457.2695,right,1,1.1459,,457.2695,458.268,7,1,113,13,1,total,1,images/Ex6.jpg,right,training,hard,1,,,,,
,,,,,5efea1f363271c3b76d4c9ed,001,,,,,2024-03-05_22h20.22.096,CRL1h,2023.2.3,MacIntel,59.88023952,65e67470ae2fbf2172c317b2,65e79a8e36f3a1b9d1ba4bdd,,,,,,,,,,,458.2831,0.6,458.884,458.884,459.6014,left,1,0.7133,,459.6014,460.6011,7,2,114,8,1,total,1,images/Ex1.jpg,left,training,hard,1,,,,,
,,,,,5efea1f363271c3b76d4c9ed,001,,,,,2024-03-05_22h20.22.096,CRL1h,2023.2.3,MacIntel,59.88023952,65e67470ae2fbf2172c317b2,65e79a8e36f3a1b9d1ba4bdd,,,,,,,,,,,460.6015,1,461.6009,461.6009,462.2024,left,1,0.6003,,462.2025,463.201,7,3,115,3,1,total,1,images/Ex4.jpg,left,training,hard,1,,,,,
,,,,,5efea1f363271c3b76d4c9ed,001,,,,,2024-03-05_22h20.22.096,CRL1h,2023.2.3,MacIntel,59.88023952,65e67470ae2fbf2172c317b2,65e79a8e36f3a1b9d1ba4bdd,,,,,,,,,,,463.2015,1.3,464.5018,464.5019,465.1221,left,1,0.6169,,465.1221,466.1187,7,4,116,2,1,total,1,images/Ex3.jpg,left,training,hard,1,,,,,
,,,,,5efea1f363271c3b76d4c9ed,001,,,,,2024-03-05_22h20.22.096,CRL1h,2023.2.3,MacIntel,59.88023952,65e67470ae2fbf2172c317b2,65e79a8e36f3a1b9d1ba4bdd,,,,,,,,,,,466.1192,1.4,467.5171,467.5173,468.151,left,1,0.6288,,468.151,469.1509,7,5,117,11,1,total,1,images/Ex4.jpg,left,training,hard,1,,,,,
,,,,,5efea1f363271c3b76d4c9ed,001,,,,,2024-03-05_22h20.22.096,CRL1h,2023.2.3,MacIntel,59.88023952,65e67470ae2fbf2172c317b2,65e79a8e36f3a1b9d1ba4bdd,,,,,,,,,,,469.1512,0.7,469.849,469.849,470.7877,right,1,0.9327,,470.7878,471.7847,7,6,118,14,1,total,1,images/Ex7.jpg,right,training,hard,1,,,,,
,,,,,5efea1f363271c3b76d4c9ed,001,,,,,2024-03-05_22h20.22.096,CRL1h,2023.2.3,MacIntel,59.88023952,65e67470ae2fbf2172c317b2,65e79a8e36f3a1b9d1ba4bdd,,,,,,,,,,,471.786,0.8,472.5841,472.5842,473.2191,left,1,0.6272,,473.2192,474.2166,7,7,119,10,1,total,1,images/Ex3.jpg,left,training,hard,1,,,,,
,,,,,5efea1f363271c3b76d4c9ed,001,,,,,2024-03-05_22h20.22.096,CRL1h,2023.2.3,MacIntel,59.88023952,65e67470ae2fbf2172c317b2,65e79a8e36f3a1b9d1ba4bdd,,,,,,,,,,,474.2174,1.2,475.4196,475.4196,476.1342,right,1,0.7091,,476.1342,477.132,7,8,120,5,1,total,1,images/Ex6.jpg,right,training,hard,1,,,,,
,,,,,5efea1f363271c3b76d4c9ed,001,,,,,2024-03-05_22h20.22.096,CRL1h,2023.2.3,MacIntel,59.88023952,65e67470ae2fbf2172c317b2,65e79a8e36f3a1b9d1ba4bdd,,,,,,,,,,,477.1324,1.3,478.4339,478.4339,479.1179,left,1,0.6829,,479.118,480.1176,7,9,121,1,1,total,1,images/Ex2.jpg,left,training,hard,1,,,,,
,,,,,5efea1f363271c3b76d4c9ed,001,,,,,2024-03-05_22h20.22.096,CRL1h,2023.2.3,MacIntel,59.88023952,65e67470ae2fbf2172c317b2,65e79a8e36f3a1b9d1ba4bdd,,,,,,,,,,,480.1181,1.2,481.3194,481.3194,482.7666,left,1,1.4443,,482.7666,483.767,7,10,122,0,1,total,1,images/Ex1.jpg,left,training,hard,1,,,,,
,,,,,5efea1f363271c3b76d4c9ed,001,,,,,2024-03-05_22h20.22.096,CRL1h,2023.2.3,MacIntel,59.88023952,65e67470ae2fbf2172c317b2,65e79a8e36f3a1b9d1ba4bdd,,,,,,,,,,,483.7674,0.9,484.6661,484.6661,485.3325,right,1,0.6643,,485.3326,486.3321,7,11,123,12,1,total,1,images/Ex5.jpg,right,training,hard,1,,,,,
,,,,,5efea1f363271c3b76d4c9ed,001,,,,,2024-03-05_22h20.22.096,CRL1h,2023.2.3,MacIntel,59.88023952,65e67470ae2fbf2172c317b2,65e79a8e36f3a1b9d1ba4bdd,,,,,,,,,,,486.3325,1.4,487.7323,487.7323,488.5155,right,1,0.7773,,488.5155,489.5139,7,12,124,6,1,total,1,images/Ex7.jpg,right,training,hard,1,,,,,
,,,,,5efea1f363271c3b76d4c9ed,001,,,,,2024-03-05_22h20.22.096,CRL1h,2023.2.3,MacIntel,59.88023952,65e67470ae2fbf2172c317b2,65e79a8e36f3a1b9d1ba4bdd,,,,,,,,,,,489.5144,1.2,490.7156,490.7157,491.3809,right,1,0.6611,,491.381,492.3828,7,13,125,4,1,total,1,images/Ex5.jpg,right,training,hard,1,,,,,
,,,,,5efea1f363271c3b76d4c9ed,001,,,,,2024-03-05_22h20.22.096,CRL1h,2023.2.3,MacIntel,59.88023952,65e67470ae2fbf2172c317b2,65e79a8e36f3a1b9d1ba4bdd,,,,,,,,,,,492.3834,1.5,493.8814,493.8815,494.8153,right,1,0.9279,,494.8153,495.8143,7,14,126,15,1,total,1,images/Ex8.jpg,right,training,hard,1,,,,,
,,,,,5efea1f363271c3b76d4c9ed,001,,,,,2024-03-05_22h20.22.096,CRL1h,2023.2.3,MacIntel,59.88023952,65e67470ae2fbf2172c317b2,65e79a8e36f3a1b9d1ba4bdd,,,,,,,,,,,495.8149,1.1,496.914,496.914,497.5978,left,1,0.6788,,497.5979,498.5961,7,15,127,9,1,total,1,images/Ex2.jpg,left,training,hard,1,,,,,
,,,,,5efea1f363271c3b76d4c9ed,001,,,,,2024-03-05_22h20.22.096,CRL1h,2023.2.3,MacIntel,59.88023952,65e67470ae2fbf2172c317b2,65e79a8e36f3a1b9d1ba4bdd,,,,,,,,,,,498.6078,1.3,499.8963,499.8963,500.6314,right,0,0.728,,500.6315,501.6294,0,0,0,7,1,total,2,images/Ex8.jpg,left,reversed,hard,1,,,,,
,,,,,5efea1f363271c3b76d4c9ed,001,,,,,2024-03-05_22h20.22.096,CRL1h,2023.2.3,MacIntel,59.88023952,65e67470ae2fbf2172c317b2,65e79a8e36f3a1b9d1ba4bdd,,,,,,,,,,,501.6306,1.4,503.0325,503.0326,503.7473,right,0,0.7102,,503.7474,504.7483,0,1,1,13,1,total,2,images/Ex6.jpg,left,reversed,hard,1,,,,,
,,,,,5efea1f363271c3b76d4c9ed,001,,,,,2024-03-05_22h20.22.096,CRL1h,2023.2.3,MacIntel,59.88023952,65e67470ae2fbf2172c317b2,65e79a8e36f3a1b9d1ba4bdd,,,,,,,,,,,504.7489,1.2,505.9455,505.9455,507.58,left,1,1.6304,,507.5803,508.5794,0,2,2,15,1,total,2,images/Ex8.jpg,left,reversed,hard,1,,,,,
,,,,,5efea1f363271c3b76d4c9ed,001,,,,,2024-03-05_22h20.22.096,CRL1h,2023.2.3,MacIntel,59.88023952,65e67470ae2fbf2172c317b2,65e79a8e36f3a1b9d1ba4bdd,,,,,,,,,,,508.5936,0.8,509.3951,509.3951,510.4803,right,0,1.0794,,510.4803,511.4803,0,3,3,4,1,total,2,images/Ex5.jpg,left,reversed,hard,1,,,,,
,,,,,5efea1f363271c3b76d4c9ed,001,,,,,2024-03-05_22h20.22.096,CRL1h,2023.2.3,MacIntel,59.88023952,65e67470ae2fbf2172c317b2,65e79a8e36f3a1b9d1ba4bdd,,,,,,,,,,,511.4807,1.4,512.8785,512.8785,514.0786,right,1,1.1986,,514.0786,515.0807,0,4,4,10,1,total,2,images/Ex3.jpg,right,reversed,hard,1,,,,,
,,,,,5efea1f363271c3b76d4c9ed,001,,,,,2024-03-05_22h20.22.096,CRL1h,2023.2.3,MacIntel,59.88023952,65e67470ae2fbf2172c317b2,65e79a8e36f3a1b9d1ba4bdd,,,,,,,,,,,515.0812,1,516.0777,516.0778,517.0466,left,1,0.9643,,517.0466,518.0447,0,5,5,12,1,total,2,images/Ex5.jpg,left,reversed,hard,1,,,,,
,,,,,5efea1f363271c3b76d4c9ed,001,,,,,2024-03-05_22h20.22.096,CRL1h,2023.2.3,MacIntel,59.88023952,65e67470ae2fbf2172c317b2,65e79a8e36f3a1b9d1ba4bdd,,,,,,,,,,,518.0452,1.3,519.3448,519.345,520.1626,right,1,0.8142,,520.1626,521.16,0,6,6,0,1,total,2,images/Ex1.jpg,right,reversed,hard,1,,,,,
,,,,,5efea1f363271c3b76d4c9ed,001,,,,,2024-03-05_22h20.22.096,CRL1h,2023.2.3,MacIntel,59.88023952,65e67470ae2fbf2172c317b2,65e79a8e36f3a1b9d1ba4bdd,,,,,,,,,,,521.1604,1.2,522.3625,522.3625,523.5939,left,1,1.2293,,523.5939,524.5953,0,7,7,5,1,total,2,images/Ex6.jpg,left,reversed,hard,1,,,,,
,,,,,5efea1f363271c3b76d4c9ed,001,,,,,2024-03-05_22h20.22.096,CRL1h,2023.2.3,MacIntel,59.88023952,65e67470ae2fbf2172c317b2,65e79a8e36f3a1b9d1ba4bdd,,,,,,,,,,,524.6117,1.2,525.8134,525.8141,526.7283,right,1,0.9092,,526.7283,527.7291,0,8,8,11,1,total,2,images/Ex4.jpg,right,reversed,hard,1,,,,,
,,,,,5efea1f363271c3b76d4c9ed,001,,,,,2024-03-05_22h20.22.096,CRL1h,2023.2.3,MacIntel,59.88023952,65e67470ae2fbf2172c317b2,65e79a8e36f3a1b9d1ba4bdd,,,,,,,,,,,527.7297,1.1,528.8277,528.8277,529.9282,right,1,1.0983,,529.9282,530.9255,0,9,9,3,1,total,2,images/Ex4.jpg,right,reversed,hard,1,,,,,
,,,,,5efea1f363271c3b76d4c9ed,001,,,,,2024-03-05_22h20.22.096,CRL1h,2023.2.3,MacIntel,59.88023952,65e67470ae2fbf2172c317b2,65e79a8e36f3a1b9d1ba4bdd,,,,,,,,,,,530.926,0.7,531.6261,531.6262,532.7109,right,1,1.0778,,532.711,533.7103,0,10,10,2,1,total,2,images/Ex3.jpg,right,reversed,hard,1,,,,,
,,,,,5efea1f363271c3b76d4c9ed,001,,,,,2024-03-05_22h20.22.096,CRL1h,2023.2.3,MacIntel,59.88023952,65e67470ae2fbf2172c317b2,65e79a8e36f3a1b9d1ba4bdd,,,,,,,,,,,533.7108,0.6,534.3109,534.3109,535.3037,right,1,0.9914,,535.3038,536.2924,0,11,11,1,1,total,2,images/Ex2.jpg,right,reversed,hard,1,,,,,
,,,,,5efea1f363271c3b76d4c9ed,001,,,,,2024-03-05_22h20.22.096,CRL1h,2023.2.3,MacIntel,59.88023952,65e67470ae2fbf2172c317b2,65e79a8e36f3a1b9d1ba4bdd,,,,,,,,,,,536.2929,1.1,537.3929,537.393,538.2764,right,1,0.8767,,538.2764,539.2762,0,12,12,8,1,total,2,images/Ex1.jpg,right,reversed,hard,1,,,,,
,,,,,5efea1f363271c3b76d4c9ed,001,,,,,2024-03-05_22h20.22.096,CRL1h,2023.2.3,MacIntel,59.88023952,65e67470ae2fbf2172c317b2,65e79a8e36f3a1b9d1ba4bdd,,,,,,,,,,,539.2768,1.2,540.476,540.476,541.3098,right,1,0.8318,,541.3099,542.3118,0,13,13,9,1,total,2,images/Ex2.jpg,right,reversed,hard,1,,,,,
,,,,,5efea1f363271c3b76d4c9ed,001,,,,,2024-03-05_22h20.22.096,CRL1h,2023.2.3,MacIntel,59.88023952,65e67470ae2fbf2172c317b2,65e79a8e36f3a1b9d1ba4bdd,,,,,,,,,,,542.3123,1.3,543.6081,543.6081,545.341,right,0,1.7264,,545.341,546.3428,0,14,14,14,1,total,2,images/Ex7.jpg,left,reversed,hard,1,,,,,
,,,,,5efea1f363271c3b76d4c9ed,001,,,,,2024-03-05_22h20.22.096,CRL1h,2023.2.3,MacIntel,59.88023952,65e67470ae2fbf2172c317b2,65e79a8e36f3a1b9d1ba4bdd,,,,,,,,,,,546.3434,1.4,547.7418,547.7418,549.124,left,1,1.3762,,549.124,550.1243,0,15,15,6,1,total,2,images/Ex7.jpg,left,reversed,hard,1,,,,,
,,,,,5efea1f363271c3b76d4c9ed,001,,,,,2024-03-05_22h20.22.096,CRL1h,2023.2.3,MacIntel,59.88023952,65e67470ae2fbf2172c317b2,65e79a8e36f3a1b9d1ba4bdd,,,,,,,,,,,550.1249,1.1,551.2264,551.2265,552.1927,right,1,0.9643,,552.1927,553.1908,1,0,16,10,1,total,2,images/Ex3.jpg,right,reversed,hard,1,,,,,
,,,,,5efea1f363271c3b76d4c9ed,001,,,,,2024-03-05_22h20.22.096,CRL1h,2023.2.3,MacIntel,59.88023952,65e67470ae2fbf2172c317b2,65e79a8e36f3a1b9d1ba4bdd,,,,,,,,,,,553.1913,0.6,553.7905,553.7905,554.8248,right,0,1.0278,,554.8248,555.8238,1,1,17,5,1,total,2,images/Ex6.jpg,left,reversed,hard,1,,,,,
,,,,,5efea1f363271c3b76d4c9ed,001,,,,,2024-03-05_22h20.22.096,CRL1h,2023.2.3,MacIntel,59.88023952,65e67470ae2fbf2172c317b2,65e79a8e36f3a1b9d1ba4bdd,,,,,,,,,,,555.8246,1.3,557.1249,557.1249,557.9758,left,1,0.8447,,557.9758,558.9733,1,2,18,13,1,total,2,images/Ex6.jpg,left,reversed,hard,1,,,,,
,,,,,5efea1f363271c3b76d4c9ed,001,,,,,2024-03-05_22h20.22.096,CRL1h,2023.2.3,MacIntel,59.88023952,65e67470ae2fbf2172c317b2,65e79a8e36f3a1b9d1ba4bdd,,,,,,,,,,,558.9741,1.5,560.4749,560.475,561.3743,left,1,0.8966,,561.3744,562.3739,1,3,19,14,1,total,2,images/Ex7.jpg,left,reversed,hard,1,,,,,
,,,,,5efea1f363271c3b76d4c9ed,001,,,,,2024-03-05_22h20.22.096,CRL1h,2023.2.3,MacIntel,59.88023952,65e67470ae2fbf2172c317b2,65e79a8e36f3a1b9d1ba4bdd,,,,,,,,,,,562.3743,1.2,563.5741,563.5741,564.7744,right,1,1.1946,,564.7744,565.774,1,4,20,3,1,total,2,images/Ex4.jpg,right,reversed,hard,1,,,,,
,,,,,5efea1f363271c3b76d4c9ed,001,,,,,2024-03-05_22h20.22.096,CRL1h,2023.2.3,MacIntel,59.88023952,65e67470ae2fbf2172c317b2,65e79a8e36f3a1b9d1ba4bdd,,,,,,,,,,,565.7752,0.7,566.4736,566.4737,567.7239,right,0,1.2435,,567.724,568.7243,1,5,21,7,1,total,2,images/Ex8.jpg,left,reversed,hard,1,,,,,
,,,,,5efea1f363271c3b76d4c9ed,001,,,,,2024-03-05_22h20.22.096,CRL1h,2023.2.3,MacIntel,59.88023952,65e67470ae2fbf2172c317b2,65e79a8e36f3a1b9d1ba4bdd,,,,,,,,,,,568.7402,0.6,569.3397,569.3397,570.4765,right,1,1.1357,,570.4765,571.4754,1,6,22,8,1,total,2,images/Ex1.jpg,right,reversed,hard,1,,,,,
,,,,,5efea1f363271c3b76d4c9ed,001,,,,,2024-03-05_22h20.22.096,CRL1h,2023.2.3,MacIntel,59.88023952,65e67470ae2fbf2172c317b2,65e79a8e36f3a1b9d1ba4bdd,,,,,,,,,,,571.4759,0.9,572.3727,572.3727,573.4905,left,1,1.1111,,573.4906,574.4882,1,7,23,4,1,total,2,images/Ex5.jpg,left,reversed,hard,1,,,,,
,,,,,5efea1f363271c3b76d4c9ed,001,,,,,2024-03-05_22h20.22.096,CRL1h,2023.2.3,MacIntel,59.88023952,65e67470ae2fbf2172c317b2,65e79a8e36f3a1b9d1ba4bdd,,,,,,,,,,,574.4888,1.5,575.9911,575.9911,577.1727,right,1,1.1801,,577.1728,578.1741,1,8,24,11,1,total,2,images/Ex4.jpg,right,reversed,hard,1,,,,,
,,,,,5efea1f363271c3b76d4c9ed,001,,,,,2024-03-05_22h20.22.096,CRL1h,2023.2.3,MacIntel,59.88023952,65e67470ae2fbf2172c317b2,65e79a8e36f3a1b9d1ba4bdd,,,,,,,,,,,578.1745,1.4,579.5729,579.573,580.6409,right,1,1.0629,,580.641,581.6384,1,9,25,9,1,total,2,images/Ex2.jpg,right,reversed,hard,1,,,,,
,,,,,5efea1f363271c3b76d4c9ed,001,,,,,2024-03-05_22h20.22.096,CRL1h,2023.2.3,MacIntel,59.88023952,65e67470ae2fbf2172c317b2,65e79a8e36f3a1b9d1ba4bdd,,,,,,,,,,,581.6389,1,582.637,582.6371,583.6721,right,1,1.0303,,583.6721,584.6718,1,10,26,1,1,total,2,images/Ex2.jpg,right,reversed,hard,1,,,,,
,,,,,5efea1f363271c3b76d4c9ed,001,,,,,2024-03-05_22h20.22.096,CRL1h,2023.2.3,MacIntel,59.88023952,65e67470ae2fbf2172c317b2,65e79a8e36f3a1b9d1ba4bdd,,,,,,,,,,,584.6732,0.9,585.571,585.571,587.1534,right,0,1.5733,,587.1534,588.1541,1,11,27,15,1,total,2,images/Ex8.jpg,left,reversed,hard,1,,,,,
,,,,,5efea1f363271c3b76d4c9ed,001,,,,,2024-03-05_22h20.22.096,CRL1h,2023.2.3,MacIntel,59.88023952,65e67470ae2fbf2172c317b2,65e79a8e36f3a1b9d1ba4bdd,,,,,,,,,,,588.1558,1.1,589.2556,589.2556,590.7205,left,1,1.4591,,590.7205,591.719,1,12,28,6,1,total,2,images/Ex7.jpg,left,reversed,hard,1,,,,,
,,,,,5efea1f363271c3b76d4c9ed,001,,,,,2024-03-05_22h20.22.096,CRL1h,2023.2.3,MacIntel,59.88023952,65e67470ae2fbf2172c317b2,65e79a8e36f3a1b9d1ba4bdd,,,,,,,,,,,591.7195,1.3,593.0209,593.0209,594.1382,right,1,1.1095,,594.1382,595.1384,1,13,29,2,1,total,2,images/Ex3.jpg,right,reversed,hard,1,,,,,
,,,,,5efea1f363271c3b76d4c9ed,001,,,,,2024-03-05_22h20.22.096,CRL1h,2023.2.3,MacIntel,59.88023952,65e67470ae2fbf2172c317b2,65e79a8e36f3a1b9d1ba4bdd,,,,,,,,,,,595.1387,0.8,595.9355,595.9355,597.1699,right,1,1.2298,,597.17,598.1689,1,14,30,0,1,total,2,images/Ex1.jpg,right,reversed,hard,1,,,,,
,,,,,5efea1f363271c3b76d4c9ed,001,,,,,2024-03-05_22h20.22.096,CRL1h,2023.2.3,MacIntel,59.88023952,65e67470ae2fbf2172c317b2,65e79a8e36f3a1b9d1ba4bdd,,,,,,,,,,,598.1693,0.7,598.8687,598.8687,600.6199,left,1,1.7465,,600.62,601.6185,1,15,31,12,1,total,2,images/Ex5.jpg,left,reversed,hard,1,,,,,
,,,,,5efea1f363271c3b76d4c9ed,001,,,,,2024-03-05_22h20.22.096,CRL1h,2023.2.3,MacIntel,59.88023952,65e67470ae2fbf2172c317b2,65e79a8e36f3a1b9d1ba4bdd,,,,,,,,,,,601.619,1.4,603.0197,603.0197,604.1031,left,1,1.078,,604.1031,605.1025,2,0,32,13,1,total,2,images/Ex6.jpg,left,reversed,hard,1,,,,,
,,,,,5efea1f363271c3b76d4c9ed,001,,,,,2024-03-05_22h20.22.096,CRL1h,2023.2.3,MacIntel,59.88023952,65e67470ae2fbf2172c317b2,65e79a8e36f3a1b9d1ba4bdd,,,,,,,,,,,605.1033,1.1,606.2011,606.2011,607.0681,left,0,0.8636,,607.0681,608.0687,2,1,33,9,1,total,2,images/Ex2.jpg,right,reversed,hard,1,,,,,
,,,,,5efea1f363271c3b76d4c9ed,001,,,,,2024-03-05_22h20.22.096,CRL1h,2023.2.3,MacIntel,59.88023952,65e67470ae2fbf2172c317b2,65e79a8e36f3a1b9d1ba4bdd,,,,,,,,,,,608.07,1.4,609.4681,609.4681,611.187,left,1,1.7074,,611.187,612.1838,2,2,34,7,1,total,2,images/Ex8.jpg,left,reversed,hard,1,,,,,
,,,,,5efea1f363271c3b76d4c9ed,001,,,,,2024-03-05_22h20.22.096,CRL1h,2023.2.3,MacIntel,59.88023952,65e67470ae2fbf2172c317b2,65e79a8e36f3a1b9d1ba4bdd,,,,,,,,,,,612.1844,1.2,613.3839,613.3839,614.2345,left,1,0.846,,614.2345,615.2344,2,3,35,15,1,total,2,images/Ex8.jpg,left,reversed,hard,1,,,,,
,,,,,5efea1f363271c3b76d4c9ed,001,,,,,2024-03-05_22h20.22.096,CRL1h,2023.2.3,MacIntel,59.88023952,65e67470ae2fbf2172c317b2,65e79a8e36f3a1b9d1ba4bdd,,,,,,,,,,,615.2351,1.2,616.4336,616.4336,617.3345,left,1,0.8946,,617.3346,618.3349,2,4,36,12,1,total,2,images/Ex5.jpg,left,reversed,hard,1,,,,,
,,,,,5efea1f363271c3b76d4c9ed,001,,,,,2024-03-05_22h20.22.096,CRL1h,2023.2.3,MacIntel,59.88023952,65e67470ae2fbf2172c317b2,65e79a8e36f3a1b9d1ba4bdd,,,,,,,,,,,618.3354,0.5,618.8351,618.8352,620.3182,right,1,1.4767,,620.3183,621.3158,2,5,37,0,1,total,2,images/Ex1.jpg,right,reversed,hard,1,,,,,
,,,,,5efea1f363271c3b76d4c9ed,001,,,,,2024-03-05_22h20.22.096,CRL1h,2023.2.3,MacIntel,59.88023952,65e67470ae2fbf2172c317b2,65e79a8e36f3a1b9d1ba4bdd,,,,,,,,,,,621.3162,0.9,622.2181,622.2182,623.9347,right,0,1.7107,,623.9348,624.9324,2,6,38,5,1,total,2,images/Ex6.jpg,left,reversed,hard,1,,,,,
,,,,,5efea1f363271c3b76d4c9ed,001,,,,,2024-03-05_22h20.22.096,CRL1h,2023.2.3,MacIntel,59.88023952,65e67470ae2fbf2172c317b2,65e79a8e36f3a1b9d1ba4bdd,,,,,,,,,,,624.9493,1.2,626.1512,626.1512,627.2516,right,1,1.0939,,627.2516,628.25,2,7,39,11,1,total,2,images/Ex4.jpg,right,reversed,hard,1,,,,,
,,,,,5efea1f363271c3b76d4c9ed,001,,,,,2024-03-05_22h20.22.096,CRL1h,2023.2.3,MacIntel,59.88023952,65e67470ae2fbf2172c317b2,65e79a8e36f3a1b9d1ba4bdd,,,,,,,,,,,628.2506,0.8,629.0521,629.0524,629.8502,right,1,0.7932,,629.8502,630.851,2,8,40,8,1,total,2,images/Ex1.jpg,right,reversed,hard,1,,,,,
,,,,,5efea1f363271c3b76d4c9ed,001,,,,,2024-03-05_22h20.22.096,CRL1h,2023.2.3,MacIntel,59.88023952,65e67470ae2fbf2172c317b2,65e79a8e36f3a1b9d1ba4bdd,,,,,,,,,,,630.8518,1.1,631.9488,631.9489,633.916,left,0,1.9604,,633.9161,634.9154,2,9,41,10,1,total,2,images/Ex3.jpg,right,reversed,hard,1,,,,,
,,,,,5efea1f363271c3b76d4c9ed,001,,,,,2024-03-05_22h20.22.096,CRL1h,2023.2.3,MacIntel,59.88023952,65e67470ae2fbf2172c317b2,65e79a8e36f3a1b9d1ba4bdd,,,,,,,,,,,634.9289,0.8,635.7349,635.735,637.4838,left,1,1.7431,,637.4839,638.4833,2,10,42,6,1,total,2,images/Ex7.jpg,left,reversed,hard,1,,,,,
,,,,,5efea1f363271c3b76d4c9ed,001,,,,,2024-03-05_22h20.22.096,CRL1h,2023.2.3,MacIntel,59.88023952,65e67470ae2fbf2172c317b2,65e79a8e36f3a1b9d1ba4bdd,,,,,,,,,,,638.484,1.1,639.5833,639.5834,641.5822,right,1,1.9953,,641.5823,642.5832,2,11,43,1,1,total,2,images/Ex2.jpg,right,reversed,hard,1,,,,,
,,,,,5efea1f363271c3b76d4c9ed,001,,,,,2024-03-05_22h20.22.096,CRL1h,2023.2.3,MacIntel,59.88023952,65e67470ae2fbf2172c317b2,65e79a8e36f3a1b9d1ba4bdd,,,,,,,,,,,642.5841,0.9,643.4807,643.4807,644.1154,right,0,0.6287,,644.1154,645.1159,2,12,44,14,1,total,2,images/Ex7.jpg,left,reversed,hard,1,,,,,
,,,,,5efea1f363271c3b76d4c9ed,001,,,,,2024-03-05_22h20.22.096,CRL1h,2023.2.3,MacIntel,59.88023952,65e67470ae2fbf2172c317b2,65e79a8e36f3a1b9d1ba4bdd,,,,,,,,,,,645.1164,1.1,646.2161,646.2161,647.0999,right,1,0.8792,,647.0999,648.0991,2,13,45,3,1,total,2,images/Ex4.jpg,right,reversed,hard,1,,,,,
,,,,,5efea1f363271c3b76d4c9ed,001,,,,,2024-03-05_22h20.22.096,CRL1h,2023.2.3,MacIntel,59.88023952,65e67470ae2fbf2172c317b2,65e79a8e36f3a1b9d1ba4bdd,,,,,,,,,,,648.0998,0.6,648.7001,648.7001,650.032,right,1,1.3271,,650.0321,651.0309,2,14,46,2,1,total,2,images/Ex3.jpg,right,reversed,hard,1,,,,,
,,,,,5efea1f363271c3b76d4c9ed,001,,,,,2024-03-05_22h20.22.096,CRL1h,2023.2.3,MacIntel,59.88023952,65e67470ae2fbf2172c317b2,65e79a8e36f3a1b9d1ba4bdd,,,,,,,,,,,651.0446,1,652.0335,652.0336,653.5641,left,1,1.5265,,653.5642,654.5651,2,15,47,4,1,total,2,images/Ex5.jpg,left,reversed,hard,1,,,,,
,,,,,5efea1f363271c3b76d4c9ed,001,,,,,2024-03-05_22h20.22.096,CRL1h,2023.2.3,MacIntel,59.88023952,65e67470ae2fbf2172c317b2,65e79a8e36f3a1b9d1ba4bdd,,,,,,,,,,,654.5654,1.2,655.7633,655.7633,656.6137,right,1,0.8449,,656.6138,657.6141,3,0,48,1,1,total,2,images/Ex2.jpg,right,reversed,hard,1,,,,,
,,,,,5efea1f363271c3b76d4c9ed,001,,,,,2024-03-05_22h20.22.096,CRL1h,2023.2.3,MacIntel,59.88023952,65e67470ae2fbf2172c317b2,65e79a8e36f3a1b9d1ba4bdd,,,,,,,,,,,657.6148,1.3,658.9136,658.9137,660.0134,right,1,1.0943,,660.0135,661.0144,3,1,49,8,1,total,2,images/Ex1.jpg,right,reversed,hard,1,,,,,
,,,,,5efea1f363271c3b76d4c9ed,001,,,,,2024-03-05_22h20.22.096,CRL1h,2023.2.3,MacIntel,59.88023952,65e67470ae2fbf2172c317b2,65e79a8e36f3a1b9d1ba4bdd,,,,,,,,,,,661.0149,1.2,662.2125,662.2126,663.4801,left,1,1.2654,,663.4802,664.4789,3,2,50,12,1,total,2,images/Ex5.jpg,left,reversed,hard,1,,,,,
,,,,,5efea1f363271c3b76d4c9ed,001,,,,,2024-03-05_22h20.22.096,CRL1h,2023.2.3,MacIntel,59.88023952,65e67470ae2fbf2172c317b2,65e79a8e36f3a1b9d1ba4bdd,,,,,,,,,,,664.4799,1.5,665.9801,665.9801,667.5124,left,1,1.5267,,667.5124,668.511,3,3,51,13,1,total,2,images/Ex6.jpg,left,reversed,hard,1,,,,,
,,,,,5efea1f363271c3b76d4c9ed,001,,,,,2024-03-05_22h20.22.096,CRL1h,2023.2.3,MacIntel,59.88023952,65e67470ae2fbf2172c317b2,65e79a8e36f3a1b9d1ba4bdd,,,,,,,,,,,668.5115,1.2,669.7114,669.7114,670.7451,left,1,1.0316,,670.7451,671.744,3,4,52,6,1,total,2,images/Ex7.jpg,left,reversed,hard,1,,,,,
,,,,,5efea1f363271c3b76d4c9ed,001,,,,,2024-03-05_22h20.22.096,CRL1h,2023.2.3,MacIntel,59.88023952,65e67470ae2fbf2172c317b2,65e79a8e36f3a1b9d1ba4bdd,,,,,,,,,,,671.7454,1.5,673.2453,673.2453,674.2281,left,1,0.977,,674.2281,675.2284,3,5,53,5,1,total,2,images/Ex6.jpg,left,reversed,hard,1,,,,,
,,,,,5efea1f363271c3b76d4c9ed,001,,,,,2024-03-05_22h20.22.096,CRL1h,2023.2.3,MacIntel,59.88023952,65e67470ae2fbf2172c317b2,65e79a8e36f3a1b9d1ba4bdd,,,,,,,,,,,675.229,1.3,676.5265,676.5266,677.3946,left,0,0.8629,,677.3947,678.3941,3,6,54,10,1,total,2,images/Ex3.jpg,right,reversed,hard,1,,,,,
,,,,,5efea1f363271c3b76d4c9ed,001,,,,,2024-03-05_22h20.22.096,CRL1h,2023.2.3,MacIntel,59.88023952,65e67470ae2fbf2172c317b2,65e79a8e36f3a1b9d1ba4bdd,,,,,,,,,,,678.3944,1.3,679.6943,679.6943,681.2608,right,1,1.5608,,681.2608,682.2605,3,7,55,11,1,total,2,images/Ex4.jpg,right,reversed,hard,1,,,,,
,,,,,5efea1f363271c3b76d4c9ed,001,,,,,2024-03-05_22h20.22.096,CRL1h,2023.2.3,MacIntel,59.88023952,65e67470ae2fbf2172c317b2,65e79a8e36f3a1b9d1ba4bdd,,,,,,,,,,,682.261,0.7,682.96,682.9601,683.6612,right,1,0.697,,683.6613,684.6604,3,8,56,3,1,total,2,images/Ex4.jpg,right,reversed,hard,1,,,,,
,,,,,5efea1f363271c3b76d4c9ed,001,,,,,2024-03-05_22h20.22.096,CRL1h,2023.2.3,MacIntel,59.88023952,65e67470ae2fbf2172c317b2,65e79a8e36f3a1b9d1ba4bdd,,,,,,,,,,,684.6608,1.1,685.7598,685.7599,686.8938,left,1,1.1296,,686.8938,687.8929,3,9,57,15,1,total,2,images/Ex8.jpg,left,reversed,hard,1,,,,,
,,,,,5efea1f363271c3b76d4c9ed,001,,,,,2024-03-05_22h20.22.096,CRL1h,2023.2.3,MacIntel,59.88023952,65e67470ae2fbf2172c317b2,65e79a8e36f3a1b9d1ba4bdd,,,,,,,,,,,687.8936,0.5,688.3929,688.3929,689.2597,right,1,0.8603,,689.2597,690.2593,3,10,58,9,1,total,2,images/Ex2.jpg,right,reversed,hard,1,,,,,
,,,,,5efea1f363271c3b76d4c9ed,001,,,,,2024-03-05_22h20.22.096,CRL1h,2023.2.3,MacIntel,59.88023952,65e67470ae2fbf2172c317b2,65e79a8e36f3a1b9d1ba4bdd,,,,,,,,,,,690.26,0.8,691.0591,691.0592,691.9928,right,1,0.9321,,691.9929,692.9915,3,11,59,0,1,total,2,images/Ex1.jpg,right,reversed,hard,1,,,,,
,,,,,5efea1f363271c3b76d4c9ed,001,,,,,2024-03-05_22h20.22.096,CRL1h,2023.2.3,MacIntel,59.88023952,65e67470ae2fbf2172c317b2,65e79a8e36f3a1b9d1ba4bdd,,,,,,,,,,,692.992,0.8,693.793,693.7931,694.409,right,0,0.6116,,694.4091,695.4099,3,12,60,7,1,total,2,images/Ex8.jpg,left,reversed,hard,1,,,,,
,,,,,5efea1f363271c3b76d4c9ed,001,,,,,2024-03-05_22h20.22.096,CRL1h,2023.2.3,MacIntel,59.88023952,65e67470ae2fbf2172c317b2,65e79a8e36f3a1b9d1ba4bdd,,,,,,,,,,,695.4105,0.6,696.0118,696.0118,697.6095,right,1,1.596,,697.6096,698.6082,3,13,61,2,1,total,2,images/Ex3.jpg,right,reversed,hard,1,,,,,
,,,,,5efea1f363271c3b76d4c9ed,001,,,,,2024-03-05_22h20.22.096,CRL1h,2023.2.3,MacIntel,59.88023952,65e67470ae2fbf2172c317b2,65e79a8e36f3a1b9d1ba4bdd,,,,,,,,,,,698.6098,1.5,700.1088,700.1088,701.7438,left,1,1.632,,701.7438,702.7429,3,14,62,4,1,total,2,images/Ex5.jpg,left,reversed,hard,1,,,,,
,,,,,5efea1f363271c3b76d4c9ed,001,,,,,2024-03-05_22h20.22.096,CRL1h,2023.2.3,MacIntel,59.88023952,65e67470ae2fbf2172c317b2,65e79a8e36f3a1b9d1ba4bdd,,,,,,,,,,,702.7434,1.4,704.1404,704.1405,705.5263,right,0,1.38,,705.5263,706.5244,3,15,63,14,1,total,2,images/Ex7.jpg,left,reversed,hard,1,,,,,
,,,,,5efea1f363271c3b76d4c9ed,001,,,,,2024-03-05_22h20.22.096,CRL1h,2023.2.3,MacIntel,59.88023952,65e67470ae2fbf2172c317b2,65e79a8e36f3a1b9d1ba4bdd,,,,,,706.5275,714.6069,space,8.0639,,714.6269,1.4,716.0239,716.0239,718.1228,left,0,2.0944,,718.1229,719.123,0,0,0,12,1,partial,1,images/Ex13.jpg,right,training,hard,1,,,,,
,,,,,5efea1f363271c3b76d4c9ed,001,,,,,2024-03-05_22h20.22.096,CRL1h,2023.2.3,MacIntel,59.88023952,65e67470ae2fbf2172c317b2,65e79a8e36f3a1b9d1ba4bdd,,,,,,,,,,,719.1363,0.7,719.838,719.838,720.8894,right,1,1.0482,,720.8895,721.8912,0,1,1,15,1,partial,1,images/Ex16.jpg,right,training,hard,1,,,,,
,,,,,5efea1f363271c3b76d4c9ed,001,,,,,2024-03-05_22h20.22.096,CRL1h,2023.2.3,MacIntel,59.88023952,65e67470ae2fbf2172c317b2,65e79a8e36f3a1b9d1ba4bdd,,,,,,,,,,,721.8916,0.9,722.7883,722.7884,723.4544,right,1,0.6624,,723.4545,724.456,0,2,2,5,1,partial,1,images/Ex14.jpg,right,training,hard,1,,,,,
,,,,,5efea1f363271c3b76d4c9ed,001,,,,,2024-03-05_22h20.22.096,CRL1h,2023.2.3,MacIntel,59.88023952,65e67470ae2fbf2172c317b2,65e79a8e36f3a1b9d1ba4bdd,,,,,,,,,,,724.4571,0.6,725.0571,725.0571,725.9232,right,0,0.8623,,725.9232,726.9237,0,3,3,0,1,partial,1,images/Ex9.jpg,left,training,hard,1,,,,,
,,,,,5efea1f363271c3b76d4c9ed,001,,,,,2024-03-05_22h20.22.096,CRL1h,2023.2.3,MacIntel,59.88023952,65e67470ae2fbf2172c317b2,65e79a8e36f3a1b9d1ba4bdd,,,,,,,,,,,726.9242,1.1,728.0236,728.0237,728.8232,right,1,0.7967,,728.8232,729.8215,0,4,4,13,1,partial,1,images/Ex14.jpg,right,training,hard,1,,,,,
,,,,,5efea1f363271c3b76d4c9ed,001,,,,,2024-03-05_22h20.22.096,CRL1h,2023.2.3,MacIntel,59.88023952,65e67470ae2fbf2172c317b2,65e79a8e36f3a1b9d1ba4bdd,,,,,,,,,,,729.8221,0.9,730.7212,730.7212,731.8539,right,0,1.1279,,731.8539,732.8555,0,5,5,1,1,partial,1,images/Ex10.jpg,left,training,hard,1,,,,,
,,,,,5efea1f363271c3b76d4c9ed,001,,,,,2024-03-05_22h20.22.096,CRL1h,2023.2.3,MacIntel,59.88023952,65e67470ae2fbf2172c317b2,65e79a8e36f3a1b9d1ba4bdd,,,,,,,,,,,732.8567,0.9,733.7538,733.7538,734.8227,left,1,1.0643,,734.8228,735.8229,0,6,6,10,1,partial,1,images/Ex11.jpg,left,training,hard,1,,,,,
,,,,,5efea1f363271c3b76d4c9ed,001,,,,,2024-03-05_22h20.22.096,CRL1h,2023.2.3,MacIntel,59.88023952,65e67470ae2fbf2172c317b2,65e79a8e36f3a1b9d1ba4bdd,,,,,,,,,,,735.8233,1.3,737.1238,737.1239,737.9397,left,1,0.8145,,737.9397,738.9374,0,7,7,11,1,partial,1,images/Ex12.jpg,left,training,hard,1,,,,,
,,,,,5efea1f363271c3b76d4c9ed,001,,,,,2024-03-05_22h20.22.096,CRL1h,2023.2.3,MacIntel,59.88023952,65e67470ae2fbf2172c317b2,65e79a8e36f3a1b9d1ba4bdd,,,,,,,,,,,738.938,0.9,739.8371,739.8371,740.8201,right,1,0.9781,,740.8201,741.8205,0,8,8,7,1,partial,1,images/Ex16.jpg,right,training,hard,1,,,,,
,,,,,5efea1f363271c3b76d4c9ed,001,,,,,2024-03-05_22h20.22.096,CRL1h,2023.2.3,MacIntel,59.88023952,65e67470ae2fbf2172c317b2,65e79a8e36f3a1b9d1ba4bdd,,,,,,,,,,,741.8218,0.5,742.3223,742.3223,743.5706,left,1,1.2472,,743.5706,744.5699,0,9,9,8,1,partial,1,images/Ex9.jpg,left,training,hard,1,,,,,
,,,,,5efea1f363271c3b76d4c9ed,001,,,,,2024-03-05_22h20.22.096,CRL1h,2023.2.3,MacIntel,59.88023952,65e67470ae2fbf2172c317b2,65e79a8e36f3a1b9d1ba4bdd,,,,,,,,,,,744.5706,1,745.5701,745.5701,746.6044,right,1,1.0264,,746.6044,747.6022,0,10,10,14,1,partial,1,images/Ex15.jpg,right,training,hard,1,,,,,
,,,,,5efea1f363271c3b76d4c9ed,001,,,,,2024-03-05_22h20.22.096,CRL1h,2023.2.3,MacIntel,59.88023952,65e67470ae2fbf2172c317b2,65e79a8e36f3a1b9d1ba4bdd,,,,,,,,,,,747.6026,1,748.6015,748.6015,749.536,left,1,0.9323,,749.536,750.5365,0,11,11,2,1,partial,1,images/Ex11.jpg,left,training,hard,1,,,,,
,,,,,5efea1f363271c3b76d4c9ed,001,,,,,2024-03-05_22h20.22.096,CRL1h,2023.2.3,MacIntel,59.88023952,65e67470ae2fbf2172c317b2,65e79a8e36f3a1b9d1ba4bdd,,,,,,,,,,,750.537,1.2,751.7347,751.7347,752.6866,left,0,0.9508,,752.6866,753.6872,0,12,12,6,1,partial,1,images/Ex15.jpg,right,training,hard,1,,,,,
,,,,,5efea1f363271c3b76d4c9ed,001,,,,,2024-03-05_22h20.22.096,CRL1h,2023.2.3,MacIntel,59.88023952,65e67470ae2fbf2172c317b2,65e79a8e36f3a1b9d1ba4bdd,,,,,,,,,,,753.6879,1.3,754.9863,754.9863,756.1017,left,1,1.1108,,756.1022,757.103,0,13,13,9,1,partial,1,images/Ex10.jpg,left,training,hard,1,,,,,
,,,,,5efea1f363271c3b76d4c9ed,001,,,,,2024-03-05_22h20.22.096,CRL1h,2023.2.3,MacIntel,59.88023952,65e67470ae2fbf2172c317b2,65e79a8e36f3a1b9d1ba4bdd,,,,,,,,,,,757.1034,1.4,758.503,758.503,759.8859,right,0,1.3802,,759.886,760.8857,0,14,14,3,1,partial,1,images/Ex12.jpg,left,training,hard,1,,,,,
,,,,,5efea1f363271c3b76d4c9ed,001,,,,,2024-03-05_22h20.22.096,CRL1h,2023.2.3,MacIntel,59.88023952,65e67470ae2fbf2172c317b2,65e79a8e36f3a1b9d1ba4bdd,,,,,,,,,,,760.9022,1.3,762.2009,762.2009,763.6014,right,1,1.396,,763.6014,764.6012,0,15,15,4,1,partial,1,images/Ex13.jpg,right,training,hard,1,,,,,
,,,,,5efea1f363271c3b76d4c9ed,001,,,,,2024-03-05_22h20.22.096,CRL1h,2023.2.3,MacIntel,59.88023952,65e67470ae2fbf2172c317b2,65e79a8e36f3a1b9d1ba4bdd,,,,,,,,,,,764.6017,1.1,765.7005,765.7007,766.8003,left,1,1.0969,,766.8003,767.801,1,0,16,0,1,partial,1,images/Ex9.jpg,left,training,hard,1,,,,,
,,,,,5efea1f363271c3b76d4c9ed,001,,,,,2024-03-05_22h20.22.096,CRL1h,2023.2.3,MacIntel,59.88023952,65e67470ae2fbf2172c317b2,65e79a8e36f3a1b9d1ba4bdd,,,,,,,,,,,767.8015,0.7,768.5,768.5,769.4525,right,0,0.9451,,769.4525,770.4495,1,1,17,10,1,partial,1,images/Ex11.jpg,left,training,hard,1,,,,,
,,,,,5efea1f363271c3b76d4c9ed,001,,,,,2024-03-05_22h20.22.096,CRL1h,2023.2.3,MacIntel,59.88023952,65e67470ae2fbf2172c317b2,65e79a8e36f3a1b9d1ba4bdd,,,,,,,,,,,770.4502,1.3,771.7515,771.7515,772.3184,left,1,0.5607,,772.3184,773.3157,1,2,18,2,1,partial,1,images/Ex11.jpg,left,training,hard,1,,,,,
,,,,,5efea1f363271c3b76d4c9ed,001,,,,,2024-03-05_22h20.22.096,CRL1h,2023.2.3,MacIntel,59.88023952,65e67470ae2fbf2172c317b2,65e79a8e36f3a1b9d1ba4bdd,,,,,,,,,,,773.3161,0.8,774.1186,774.1186,775.1327,left,0,1.0103,,775.1328,776.1319,1,3,19,14,1,partial,1,images/Ex15.jpg,right,training,hard,1,,,,,
,,,,,5efea1f363271c3b76d4c9ed,001,,,,,2024-03-05_22h20.22.096,CRL1h,2023.2.3,MacIntel,59.88023952,65e67470ae2fbf2172c317b2,65e79a8e36f3a1b9d1ba4bdd,,,,,,,,,,,776.1325,1,777.1321,777.1321,778.3828,right,1,1.2459,,778.3829,779.3837,1,4,20,13,1,partial,1,images/Ex14.jpg,right,training,hard,1,,,,,
,,,,,5efea1f363271c3b76d4c9ed,001,,,,,2024-03-05_22h20.22.096,CRL1h,2023.2.3,MacIntel,59.88023952,65e67470ae2fbf2172c317b2,65e79a8e36f3a1b9d1ba4bdd,,,,,,,,,,,779.3841,1.3,780.6839,780.6839,781.9012,right,1,1.2156,,781.9013,782.8979,1,5,21,4,1,partial,1,images/Ex13.jpg,right,training,hard,1,,,,,
,,,,,5efea1f363271c3b76d4c9ed,001,,,,,2024-03-05_22h20.22.096,CRL1h,2023.2.3,MacIntel,59.88023952,65e67470ae2fbf2172c317b2,65e79a8e36f3a1b9d1ba4bdd,,,,,,,,,,,782.9146,0.9,783.8154,783.8155,785.1822,right,1,1.3612,,785.1822,786.1831,1,6,22,6,1,partial,1,images/Ex15.jpg,right,training,hard,1,,,,,
,,,,,5efea1f363271c3b76d4c9ed,001,,,,,2024-03-05_22h20.22.096,CRL1h,2023.2.3,MacIntel,59.88023952,65e67470ae2fbf2172c317b2,65e79a8e36f3a1b9d1ba4bdd,,,,,,,,,,,786.1835,1.1,787.2815,787.2815,788.1826,right,0,0.8907,,788.1826,789.182,1,7,23,3,1,partial,1,images/Ex12.jpg,left,training,hard,1,,,,,
,,,,,5efea1f363271c3b76d4c9ed,001,,,,,2024-03-05_22h20.22.096,CRL1h,2023.2.3,MacIntel,59.88023952,65e67470ae2fbf2172c317b2,65e79a8e36f3a1b9d1ba4bdd,,,,,,,,,,,789.1826,0.9,790.0822,790.0823,791.1163,left,1,1.0281,,791.1163,792.1135,1,8,24,1,1,partial,1,images/Ex10.jpg,left,training,hard,1,,,,,
,,,,,5efea1f363271c3b76d4c9ed,001,,,,,2024-03-05_22h20.22.096,CRL1h,2023.2.3,MacIntel,59.88023952,65e67470ae2fbf2172c317b2,65e79a8e36f3a1b9d1ba4bdd,,,,,,,,,,,792.114,0.6,792.7135,792.7136,793.5648,right,1,0.8471,,793.565,794.5647,1,9,25,12,1,partial,1,images/Ex13.jpg,right,training,hard,1,,,,,
,,,,,5efea1f363271c3b76d4c9ed,001,,,,,2024-03-05_22h20.22.096,CRL1h,2023.2.3,MacIntel,59.88023952,65e67470ae2fbf2172c317b2,65e79a8e36f3a1b9d1ba4bdd,,,,,,,,,,,794.5653,1.4,795.9642,795.9642,796.7159,right,1,0.7483,,796.7159,797.7143,1,10,26,7,1,partial,1,images/Ex16.jpg,right,training,hard,1,,,,,
,,,,,5efea1f363271c3b76d4c9ed,001,,,,,2024-03-05_22h20.22.096,CRL1h,2023.2.3,MacIntel,59.88023952,65e67470ae2fbf2172c317b2,65e79a8e36f3a1b9d1ba4bdd,,,,,,,,,,,797.7153,1.4,799.1136,799.1136,799.963,right,0,0.8438,,799.963,800.9629,1,11,27,11,1,partial,1,images/Ex12.jpg,left,training,hard,1,,,,,
,,,,,5efea1f363271c3b76d4c9ed,001,,,,,2024-03-05_22h20.22.096,CRL1h,2023.2.3,MacIntel,59.88023952,65e67470ae2fbf2172c317b2,65e79a8e36f3a1b9d1ba4bdd,,,,,,,,,,,800.9645,0.8,801.7626,801.7627,802.5804,right,0,0.8099,,802.5805,803.5807,1,12,28,8,1,partial,1,images/Ex9.jpg,left,training,hard,1,,,,,
,,,,,5efea1f363271c3b76d4c9ed,001,,,,,2024-03-05_22h20.22.096,CRL1h,2023.2.3,MacIntel,59.88023952,65e67470ae2fbf2172c317b2,65e79a8e36f3a1b9d1ba4bdd,,,,,,,,,,,803.5814,1.5,805.0813,805.0814,806.1788,left,0,1.0937,,806.1788,807.1808,1,13,29,5,1,partial,1,images/Ex14.jpg,right,training,hard,1,,,,,
,,,,,5efea1f363271c3b76d4c9ed,001,,,,,2024-03-05_22h20.22.096,CRL1h,2023.2.3,MacIntel,59.88023952,65e67470ae2fbf2172c317b2,65e79a8e36f3a1b9d1ba4bdd,,,,,,,,,,,807.1815,1.2,808.3787,808.3787,809.3138,right,0,0.927,,809.3138,810.3114,1,14,30,9,1,partial,1,images/Ex10.jpg,left,training,hard,1,,,,,
,,,,,5efea1f363271c3b76d4c9ed,001,,,,,2024-03-05_22h20.22.096,CRL1h,2023.2.3,MacIntel,59.88023952,65e67470ae2fbf2172c317b2,65e79a8e36f3a1b9d1ba4bdd,,,,,,,,,,,810.3129,0.8,811.112,811.112,812.1638,left,0,1.0497,,812.1638,813.1615,1,15,31,15,1,partial,1,images/Ex16.jpg,right,training,hard,1,,,,,
,,,,,5efea1f363271c3b76d4c9ed,001,,,,,2024-03-05_22h20.22.096,CRL1h,2023.2.3,MacIntel,59.88023952,65e67470ae2fbf2172c317b2,65e79a8e36f3a1b9d1ba4bdd,,,,,,,,,,,813.1619,1.2,814.3614,814.3615,815.1791,right,1,0.8131,,815.1791,816.1797,2,0,32,15,1,partial,1,images/Ex16.jpg,right,training,hard,1,,,,,
,,,,,5efea1f363271c3b76d4c9ed,001,,,,,2024-03-05_22h20.22.096,CRL1h,2023.2.3,MacIntel,59.88023952,65e67470ae2fbf2172c317b2,65e79a8e36f3a1b9d1ba4bdd,,,,,,,,,,,816.1802,1,817.1803,817.1804,818.4294,right,0,1.2436,,818.4294,819.4281,2,1,33,0,1,partial,1,images/Ex9.jpg,left,training,hard,1,,,,,
,,,,,5efea1f363271c3b76d4c9ed,001,,,,,2024-03-05_22h20.22.096,CRL1h,2023.2.3,MacIntel,59.88023952,65e67470ae2fbf2172c317b2,65e79a8e36f3a1b9d1ba4bdd,,,,,,,,,,,819.4288,1.3,820.7276,820.7276,821.7618,left,1,1.0294,,821.7619,822.761,2,2,34,9,1,partial,1,images/Ex10.jpg,left,training,hard,1,,,,,
,,,,,5efea1f363271c3b76d4c9ed,001,,,,,2024-03-05_22h20.22.096,CRL1h,2023.2.3,MacIntel,59.88023952,65e67470ae2fbf2172c317b2,65e79a8e36f3a1b9d1ba4bdd,,,,,,,,,,,822.7616,1.4,824.1603,824.1604,825.3782,left,1,1.2113,,825.3782,826.3765,2,3,35,10,1,partial,1,images/Ex11.jpg,left,training,hard,1,,,,,
,,,,,5efea1f363271c3b76d4c9ed,001,,,,,2024-03-05_22h20.22.096,CRL1h,2023.2.3,MacIntel,59.88023952,65e67470ae2fbf2172c317b2,65e79a8e36f3a1b9d1ba4bdd,,,,,,,,,,,826.3777,0.9,827.2768,827.2769,828.1105,left,1,0.8285,,828.1106,829.1112,2,4,36,8,1,partial,1,images/Ex9.jpg,left,training,hard,1,,,,,
,,,,,5efea1f363271c3b76d4c9ed,001,,,,,2024-03-05_22h20.22.096,CRL1h,2023.2.3,MacIntel,59.88023952,65e67470ae2fbf2172c317b2,65e79a8e36f3a1b9d1ba4bdd,,,,,,,,,,,829.1116,1,830.1111,830.1111,830.8116,left,1,0.6947,,830.8116,831.8095,2,5,37,11,1,partial,1,images/Ex12.jpg,left,training,hard,1,,,,,
,,,,,5efea1f363271c3b76d4c9ed,001,,,,,2024-03-05_22h20.22.096,CRL1h,2023.2.3,MacIntel,59.88023952,65e67470ae2fbf2172c317b2,65e79a8e36f3a1b9d1ba4bdd,,,,,,,,,,,831.8102,1.3,833.1098,833.1099,833.7445,left,0,0.6333,,833.7446,834.7435,2,6,38,13,1,partial,1,images/Ex14.jpg,right,training,hard,1,,,,,
,,,,,5efea1f363271c3b76d4c9ed,001,,,,,2024-03-05_22h20.22.096,CRL1h,2023.2.3,MacIntel,59.88023952,65e67470ae2fbf2172c317b2,65e79a8e36f3a1b9d1ba4bdd,,,,,,,,,,,834.7441,0.6,835.3423,835.3423,837.1939,left,1,1.8477,,837.1939,838.1936,2,7,39,3,1,partial,1,images/Ex12.jpg,left,training,hard,1,,,,,
,,,,,5efea1f363271c3b76d4c9ed,001,,,,,2024-03-05_22h20.22.096,CRL1h,2023.2.3,MacIntel,59.88023952,65e67470ae2fbf2172c317b2,65e79a8e36f3a1b9d1ba4bdd,,,,,,,,,,,838.1938,0.9,839.0918,839.0918,839.8598,left,1,0.7578,,839.8598,840.8605,2,8,40,1,1,partial,1,images/Ex10.jpg,left,training,hard,1,,,,,
,,,,,5efea1f363271c3b76d4c9ed,001,,,,,2024-03-05_22h20.22.096,CRL1h,2023.2.3,MacIntel,59.88023952,65e67470ae2fbf2172c317b2,65e79a8e36f3a1b9d1ba4bdd,,,,,,,,,,,840.861,1.4,842.2586,842.2586,843.4598,right,1,1.2,,843.4598,844.4582,2,9,41,7,1,partial,1,images/Ex16.jpg,right,training,hard,1,,,,,
,,,,,5efea1f363271c3b76d4c9ed,001,,,,,2024-03-05_22h20.22.096,CRL1h,2023.2.3,MacIntel,59.88023952,65e67470ae2fbf2172c317b2,65e79a8e36f3a1b9d1ba4bdd,,,,,,,,,,,844.4591,0.7,845.1603,845.1604,846.5934,right,1,1.4247,,846.5934,847.5926,2,10,42,14,1,partial,1,images/Ex15.jpg,right,training,hard,1,,,,,
,,,,,5efea1f363271c3b76d4c9ed,001,,,,,2024-03-05_22h20.22.096,CRL1h,2023.2.3,MacIntel,59.88023952,65e67470ae2fbf2172c317b2,65e79a8e36f3a1b9d1ba4bdd,,,,,,,,,,,847.5932,0.8,848.3909,848.3909,849.0761,right,1,0.6781,,849.0762,850.0738,2,11,43,12,1,partial,1,images/Ex13.jpg,right,training,hard,1,,,,,
,,,,,5efea1f363271c3b76d4c9ed,001,,,,,2024-03-05_22h20.22.096,CRL1h,2023.2.3,MacIntel,59.88023952,65e67470ae2fbf2172c317b2,65e79a8e36f3a1b9d1ba4bdd,,,,,,,,,,,850.0744,1.1,851.1735,851.1735,851.7578,right,1,0.5788,,851.7578,852.7568,2,12,44,6,1,partial,1,images/Ex15.jpg,right,training,hard,1,,,,,
,,,,,5efea1f363271c3b76d4c9ed,001,,,,,2024-03-05_22h20.22.096,CRL1h,2023.2.3,MacIntel,59.88023952,65e67470ae2fbf2172c317b2,65e79a8e36f3a1b9d1ba4bdd,,,,,,,,,,,852.7574,1.4,854.1567,854.1568,854.9924,right,0,0.8293,,854.9925,855.9916,2,13,45,2,1,partial,1,images/Ex11.jpg,left,training,hard,1,,,,,
,,,,,5efea1f363271c3b76d4c9ed,001,,,,,2024-03-05_22h20.22.096,CRL1h,2023.2.3,MacIntel,59.88023952,65e67470ae2fbf2172c317b2,65e79a8e36f3a1b9d1ba4bdd,,,,,,,,,,,855.9922,0.9,856.8902,856.8902,857.5256,right,1,0.6287,,857.5256,858.5245,2,14,46,4,1,partial,1,images/Ex13.jpg,right,training,hard,1,,,,,
,,,,,5efea1f363271c3b76d4c9ed,001,,,,,2024-03-05_22h20.22.096,CRL1h,2023.2.3,MacIntel,59.88023952,65e67470ae2fbf2172c317b2,65e79a8e36f3a1b9d1ba4bdd,,,,,,,,,,,858.5249,0.6,859.1231,859.1231,859.79,right,1,0.6601,,859.79,860.7921,2,15,47,5,1,partial,1,images/Ex14.jpg,right,training,hard,1,,,,,
,,,,,5efea1f363271c3b76d4c9ed,001,,,,,2024-03-05_22h20.22.096,CRL1h,2023.2.3,MacIntel,59.88023952,65e67470ae2fbf2172c317b2,65e79a8e36f3a1b9d1ba4bdd,,,,,,,,,,,860.7925,1.1,861.8925,861.8925,862.7758,right,0,0.8782,,862.7758,863.7762,3,0,48,3,1,partial,1,images/Ex12.jpg,left,training,hard,1,,,,,
,,,,,5efea1f363271c3b76d4c9ed,001,,,,,2024-03-05_22h20.22.096,CRL1h,2023.2.3,MacIntel,59.88023952,65e67470ae2fbf2172c317b2,65e79a8e36f3a1b9d1ba4bdd,,,,,,,,,,,863.7777,0.9,864.674,864.674,866.274,left,1,1.5941,,866.274,867.2736,3,1,49,0,1,partial,1,images/Ex9.jpg,left,training,hard,1,,,,,
,,,,,5efea1f363271c3b76d4c9ed,001,,,,,2024-03-05_22h20.22.096,CRL1h,2023.2.3,MacIntel,59.88023952,65e67470ae2fbf2172c317b2,65e79a8e36f3a1b9d1ba4bdd,,,,,,,,,,,867.2916,0.7,867.9892,867.9892,868.7728,left,1,0.776,,868.7729,869.7723,3,2,50,9,1,partial,1,images/Ex10.jpg,left,training,hard,1,,,,,
,,,,,5efea1f363271c3b76d4c9ed,001,,,,,2024-03-05_22h20.22.096,CRL1h,2023.2.3,MacIntel,59.88023952,65e67470ae2fbf2172c317b2,65e79a8e36f3a1b9d1ba4bdd,,,,,,,,,,,869.773,1.2,870.9732,870.9733,871.7228,left,0,0.7469,,871.7229,872.7222,3,3,51,13,1,partial,1,images/Ex14.jpg,right,training,hard,1,,,,,
,,,,,5efea1f363271c3b76d4c9ed,001,,,,,2024-03-05_22h20.22.096,CRL1h,2023.2.3,MacIntel,59.88023952,65e67470ae2fbf2172c317b2,65e79a8e36f3a1b9d1ba4bdd,,,,,,,,,,,872.7231,0.7,873.4213,873.4213,874.2883,left,1,0.8627,,874.2883,875.2875,3,4,52,1,1,partial,1,images/Ex10.jpg,left,training,hard,1,,,,,
,,,,,5efea1f363271c3b76d4c9ed,001,,,,,2024-03-05_22h20.22.096,CRL1h,2023.2.3,MacIntel,59.88023952,65e67470ae2fbf2172c317b2,65e79a8e36f3a1b9d1ba4bdd,,,,,,,,,,,875.2883,1,876.2904,876.2904,877.1724,right,1,0.8767,,877.1724,878.1709,3,5,53,5,1,partial,1,images/Ex14.jpg,right,training,hard,1,,,,,
,,,,,5efea1f363271c3b76d4c9ed,001,,,,,2024-03-05_22h20.22.096,CRL1h,2023.2.3,MacIntel,59.88023952,65e67470ae2fbf2172c317b2,65e79a8e36f3a1b9d1ba4bdd,,,,,,,,,,,878.1713,0.6,878.7723,878.7723,879.8391,left,0,1.0609,,879.8392,880.8369,3,6,54,14,1,partial,1,images/Ex15.jpg,right,training,hard,1,,,,,
,,,,,5efea1f363271c3b76d4c9ed,001,,,,,2024-03-05_22h20.22.096,CRL1h,2023.2.3,MacIntel,59.88023952,65e67470ae2fbf2172c317b2,65e79a8e36f3a1b9d1ba4bdd,,,,,,,,,,,880.8375,0.7,881.538,881.538,882.2045,right,1,0.6635,,882.2045,883.2036,3,7,55,7,1,partial,1,images/Ex16.jpg,right,training,hard,1,,,,,
,,,,,5efea1f363271c3b76d4c9ed,001,,,,,2024-03-05_22h20.22.096,CRL1h,2023.2.3,MacIntel,59.88023952,65e67470ae2fbf2172c317b2,65e79a8e36f3a1b9d1ba4bdd,,,,,,,,,,,883.2041,0.8,884.0055,884.0055,884.9376,right,0,0.9273,,884.9376,885.9386,3,8,56,8,1,partial,1,images/Ex9.jpg,left,training,hard,1,,,,,
,,,,,5efea1f363271c3b76d4c9ed,001,,,,,2024-03-05_22h20.22.096,CRL1h,2023.2.3,MacIntel,59.88023952,65e67470ae2fbf2172c317b2,65e79a8e36f3a1b9d1ba4bdd,,,,,,,,,,,885.9391,0.9,886.8369,886.837,887.8372,left,1,0.9958,,887.8372,888.8396,3,9,57,10,1,partial,1,images/Ex11.jpg,left,training,hard,1,,,,,
,,,,,5efea1f363271c3b76d4c9ed,001,,,,,2024-03-05_22h20.22.096,CRL1h,2023.2.3,MacIntel,59.88023952,65e67470ae2fbf2172c317b2,65e79a8e36f3a1b9d1ba4bdd,,,,,,,,,,,888.8399,1.4,890.2362,890.2363,890.973,right,1,0.7288,,890.9731,891.9703,3,10,58,15,1,partial,1,images/Ex16.jpg,right,training,hard,1,,,,,
,,,,,5efea1f363271c3b76d4c9ed,001,,,,,2024-03-05_22h20.22.096,CRL1h,2023.2.3,MacIntel,59.88023952,65e67470ae2fbf2172c317b2,65e79a8e36f3a1b9d1ba4bdd,,,,,,,,,,,891.9712,0.7,892.6694,892.6695,893.5733,right,1,0.8957,,893.5733,894.5698,3,11,59,12,1,partial,1,images/Ex13.jpg,right,training,hard,1,,,,,
,,,,,5efea1f363271c3b76d4c9ed,001,,,,,2024-03-05_22h20.22.096,CRL1h,2023.2.3,MacIntel,59.88023952,65e67470ae2fbf2172c317b2,65e79a8e36f3a1b9d1ba4bdd,,,,,,,,,,,894.5705,1.4,895.9704,895.9705,896.654,right,1,0.682,,896.654,897.6515,3,12,60,4,1,partial,1,images/Ex13.jpg,right,training,hard,1,,,,,
,,,,,5efea1f363271c3b76d4c9ed,001,,,,,2024-03-05_22h20.22.096,CRL1h,2023.2.3,MacIntel,59.88023952,65e67470ae2fbf2172c317b2,65e79a8e36f3a1b9d1ba4bdd,,,,,,,,,,,897.6527,1.2,898.8531,898.8532,899.7862,left,1,0.9269,,899.7862,900.7855,3,13,61,2,1,partial,1,images/Ex11.jpg,left,training,hard,1,,,,,
,,,,,5efea1f363271c3b76d4c9ed,001,,,,,2024-03-05_22h20.22.096,CRL1h,2023.2.3,MacIntel,59.88023952,65e67470ae2fbf2172c317b2,65e79a8e36f3a1b9d1ba4bdd,,,,,,,,,,,900.7861,1.1,901.8856,901.8857,902.5356,left,1,0.6451,,902.5356,903.5341,3,14,62,11,1,partial,1,images/Ex12.jpg,left,training,hard,1,,,,,
,,,,,5efea1f363271c3b76d4c9ed,001,,,,,2024-03-05_22h20.22.096,CRL1h,2023.2.3,MacIntel,59.88023952,65e67470ae2fbf2172c317b2,65e79a8e36f3a1b9d1ba4bdd,,,,,,,,,,,903.5345,0.8,904.3346,904.3346,904.9189,left,0,0.5792,,904.9189,905.9187,3,15,63,6,1,partial,1,images/Ex15.jpg,right,training,hard,1,,,,,
,,,,,5efea1f363271c3b76d4c9ed,001,,,,,2024-03-05_22h20.22.096,CRL1h,2023.2.3,MacIntel,59.88023952,65e67470ae2fbf2172c317b2,65e79a8e36f3a1b9d1ba4bdd,,,,,,,,,,,905.9196,0.6,906.5196,906.5197,907.5019,right,1,0.9765,,907.502,908.5008,4,0,64,12,1,partial,1,images/Ex13.jpg,right,training,hard,1,,,,,
,,,,,5efea1f363271c3b76d4c9ed,001,,,,,2024-03-05_22h20.22.096,CRL1h,2023.2.3,MacIntel,59.88023952,65e67470ae2fbf2172c317b2,65e79a8e36f3a1b9d1ba4bdd,,,,,,,,,,,908.5013,0.7,909.2031,909.2032,909.8013,right,1,0.5928,,909.8014,910.8026,4,1,65,4,1,partial,1,images/Ex13.jpg,right,training,hard,1,,,,,
,,,,,5efea1f363271c3b76d4c9ed,001,,,,,2024-03-05_22h20.22.096,CRL1h,2023.2.3,MacIntel,59.88023952,65e67470ae2fbf2172c317b2,65e79a8e36f3a1b9d1ba4bdd,,,,,,,,,,,910.8031,0.9,911.7008,911.7009,912.7997,left,1,1.0953,,912.7998,913.7997,4,2,66,10,1,partial,1,images/Ex11.jpg,left,training,hard,1,,,,,
,,,,,5efea1f363271c3b76d4c9ed,001,,,,,2024-03-05_22h20.22.096,CRL1h,2023.2.3,MacIntel,59.88023952,65e67470ae2fbf2172c317b2,65e79a8e36f3a1b9d1ba4bdd,,,,,,,,,,,913.8001,1,914.8017,914.8017,915.3341,left,0,0.5279,,915.3342,916.3333,4,3,67,6,1,partial,1,images/Ex15.jpg,right,training,hard,1,,,,,
,,,,,5efea1f363271c3b76d4c9ed,001,,,,,2024-03-05_22h20.22.096,CRL1h,2023.2.3,MacIntel,59.88023952,65e67470ae2fbf2172c317b2,65e79a8e36f3a1b9d1ba4bdd,,,,,,,,,,,916.334,1.4,917.7355,917.7355,918.0686,right,1,0.3319,,918.0687,919.0663,4,4,68,15,1,partial,1,images/Ex16.jpg,right,training,hard,1,,,,,
,,,,,5efea1f363271c3b76d4c9ed,001,,,,,2024-03-05_22h20.22.096,CRL1h,2023.2.3,MacIntel,59.88023952,65e67470ae2fbf2172c317b2,65e79a8e36f3a1b9d1ba4bdd,,,,,,,,,,,919.0668,1.4,920.4671,920.4671,921.5164,left,1,1.0452,,921.5166,922.5169,4,5,69,2,1,partial,1,images/Ex11.jpg,left,training,hard,1,,,,,
,,,,,5efea1f363271c3b76d4c9ed,001,,,,,2024-03-05_22h20.22.096,CRL1h,2023.2.3,MacIntel,59.88023952,65e67470ae2fbf2172c317b2,65e79a8e36f3a1b9d1ba4bdd,,,,,,,,,,,922.5179,0.7,923.2161,923.2162,923.999,left,1,0.7784,,923.9991,924.9996,4,6,70,8,1,partial,1,images/Ex9.jpg,left,training,hard,1,,,,,
,,,,,5efea1f363271c3b76d4c9ed,001,,,,,2024-03-05_22h20.22.096,CRL1h,2023.2.3,MacIntel,59.88023952,65e67470ae2fbf2172c317b2,65e79a8e36f3a1b9d1ba4bdd,,,,,,,,,,,925.0005,0.6,925.5997,925.5999,926.4496,left,1,0.8447,,926.4498,927.4491,4,7,71,1,1,partial,1,images/Ex10.jpg,left,training,hard,1,,,,,
,,,,,5efea1f363271c3b76d4c9ed,001,,,,,2024-03-05_22h20.22.096,CRL1h,2023.2.3,MacIntel,59.88023952,65e67470ae2fbf2172c317b2,65e79a8e36f3a1b9d1ba4bdd,,,,,,,,,,,927.4498,0.5,927.9488,927.9489,928.7518,left,1,0.8017,,928.7519,929.7488,4,8,72,3,1,partial,1,images/Ex12.jpg,left,training,hard,1,,,,,
,,,,,5efea1f363271c3b76d4c9ed,001,,,,,2024-03-05_22h20.22.096,CRL1h,2023.2.3,MacIntel,59.88023952,65e67470ae2fbf2172c317b2,65e79a8e36f3a1b9d1ba4bdd,,,,,,,,,,,929.7491,1.5,931.2506,931.2506,931.981,left,0,0.7271,,931.981,932.9838,4,9,73,13,1,partial,1,images/Ex14.jpg,right,training,hard,1,,,,,
,,,,,5efea1f363271c3b76d4c9ed,001,,,,,2024-03-05_22h20.22.096,CRL1h,2023.2.3,MacIntel,59.88023952,65e67470ae2fbf2172c317b2,65e79a8e36f3a1b9d1ba4bdd,,,,,,,,,,,932.9842,0.9,933.8823,933.8823,935.0825,left,1,1.1943,,935.0826,936.0822,4,10,74,9,1,partial,1,images/Ex10.jpg,left,training,hard,1,,,,,
,,,,,5efea1f363271c3b76d4c9ed,001,,,,,2024-03-05_22h20.22.096,CRL1h,2023.2.3,MacIntel,59.88023952,65e67470ae2fbf2172c317b2,65e79a8e36f3a1b9d1ba4bdd,,,,,,,,,,,936.0831,0.5,936.582,936.583,937.399,left,1,0.8134,,937.399,938.399,4,11,75,0,1,partial,1,images/Ex9.jpg,left,training,hard,1,,,,,
,,,,,5efea1f363271c3b76d4c9ed,001,,,,,2024-03-05_22h20.22.096,CRL1h,2023.2.3,MacIntel,59.88023952,65e67470ae2fbf2172c317b2,65e79a8e36f3a1b9d1ba4bdd,,,,,,,,,,,938.3997,1,939.3974,939.3975,940.0153,left,0,0.6103,,940.0153,941.0139,4,12,76,7,1,partial,1,images/Ex16.jpg,right,training,hard,1,,,,,
,,,,,5efea1f363271c3b76d4c9ed,001,,,,,2024-03-05_22h20.22.096,CRL1h,2023.2.3,MacIntel,59.88023952,65e67470ae2fbf2172c317b2,65e79a8e36f3a1b9d1ba4bdd,,,,,,,,,,,941.0156,0.8,941.8139,941.8139,942.782,right,1,0.9602,,942.782,943.7802,4,13,77,5,1,partial,1,images/Ex14.jpg,right,training,hard,1,,,,,
,,,,,5efea1f363271c3b76d4c9ed,001,,,,,2024-03-05_22h20.22.096,CRL1h,2023.2.3,MacIntel,59.88023952,65e67470ae2fbf2172c317b2,65e79a8e36f3a1b9d1ba4bdd,,,,,,,,,,,943.7806,1.4,945.1812,945.1813,947.3641,left,1,2.1776,,947.3641,948.3659,4,14,78,11,1,partial,1,images/Ex12.jpg,left,training,hard,1,,,,,
,,,,,5efea1f363271c3b76d4c9ed,001,,,,,2024-03-05_22h20.22.096,CRL1h,2023.2.3,MacIntel,59.88023952,65e67470ae2fbf2172c317b2,65e79a8e36f3a1b9d1ba4bdd,,,,,,,,,,,948.3813,0.9,949.2832,949.2832,950.2303,right,1,0.943,,950.2303,951.2297,4,15,79,14,1,partial,1,images/Ex15.jpg,right,training,hard,1,,,,,
,,,,,5efea1f363271c3b76d4c9ed,001,,,,,2024-03-05_22h20.22.096,CRL1h,2023.2.3,MacIntel,59.88023952,65e67470ae2fbf2172c317b2,65e79a8e36f3a1b9d1ba4bdd,,,,,,,,,,,951.2302,1,952.2298,952.2298,952.947,left,1,0.7161,,952.947,953.9461,5,0,80,0,1,partial,1,images/Ex9.jpg,left,training,hard,1,,,,,
,,,,,5efea1f363271c3b76d4c9ed,001,,,,,2024-03-05_22h20.22.096,CRL1h,2023.2.3,MacIntel,59.88023952,65e67470ae2fbf2172c317b2,65e79a8e36f3a1b9d1ba4bdd,,,,,,,,,,,953.9467,1.4,955.3466,955.3468,956.2959,right,1,0.9442,,956.296,957.2949,5,1,81,14,1,partial,1,images/Ex15.jpg,right,training,hard,1,,,,,
,,,,,5efea1f363271c3b76d4c9ed,001,,,,,2024-03-05_22h20.22.096,CRL1h,2023.2.3,MacIntel,59.88023952,65e67470ae2fbf2172c317b2,65e79a8e36f3a1b9d1ba4bdd,,,,,,,,,,,957.2954,1.3,958.597,958.597,959.3314,right,1,0.731,,959.3314,960.3278,5,2,82,6,1,partial,1,images/Ex15.jpg,right,training,hard,1,,,,,
,,,,,5efea1f363271c3b76d4c9ed,001,,,,,2024-03-05_22h20.22.096,CRL1h,2023.2.3,MacIntel,59.88023952,65e67470ae2fbf2172c317b2,65e79a8e36f3a1b9d1ba4bdd,,,,,,,,,,,960.3281,1.3,961.6296,961.6297,962.4792,right,0,0.8433,,962.4793,963.4779,5,3,83,10,1,partial,1,images/Ex11.jpg,left,training,hard,1,,,,,
,,,,,5efea1f363271c3b76d4c9ed,001,,,,,2024-03-05_22h20.22.096,CRL1h,2023.2.3,MacIntel,59.88023952,65e67470ae2fbf2172c317b2,65e79a8e36f3a1b9d1ba4bdd,,,,,,,,,,,963.4792,0.7,964.1784,964.1784,965.0792,right,1,0.8939,,965.0792,966.0788,5,4,84,4,1,partial,1,images/Ex13.jpg,right,training,hard,1,,,,,
,,,,,5efea1f363271c3b76d4c9ed,001,,,,,2024-03-05_22h20.22.096,CRL1h,2023.2.3,MacIntel,59.88023952,65e67470ae2fbf2172c317b2,65e79a8e36f3a1b9d1ba4bdd,,,,,,,,,,,966.0795,0.9,966.9788,966.9789,967.7126,right,1,0.7321,,967.7127,968.7118,5,5,85,7,1,partial,1,images/Ex16.jpg,right,training,hard,1,,,,,
,,,,,5efea1f363271c3b76d4c9ed,001,,,,,2024-03-05_22h20.22.096,CRL1h,2023.2.3,MacIntel,59.88023952,65e67470ae2fbf2172c317b2,65e79a8e36f3a1b9d1ba4bdd,,,,,,,,,,,968.7123,0.8,969.5115,969.5115,970.4951,left,0,0.9814,,970.4952,971.4958,5,6,86,13,1,partial,1,images/Ex14.jpg,right,training,hard,1,,,,,
,,,,,5efea1f363271c3b76d4c9ed,001,,,,,2024-03-05_22h20.22.096,CRL1h,2023.2.3,MacIntel,59.88023952,65e67470ae2fbf2172c317b2,65e79a8e36f3a1b9d1ba4bdd,,,,,,,,,,,971.4964,1.3,972.7963,972.7963,973.3939,right,0,0.5958,,973.3941,974.3955,5,7,87,2,1,partial,1,images/Ex11.jpg,left,training,hard,1,,,,,
,,,,,5efea1f363271c3b76d4c9ed,001,,,,,2024-03-05_22h20.22.096,CRL1h,2023.2.3,MacIntel,59.88023952,65e67470ae2fbf2172c317b2,65e79a8e36f3a1b9d1ba4bdd,,,,,,,,,,,974.3962,1,975.3937,975.3939,976.21,right,1,0.8128,,976.2102,977.2099,5,8,88,5,1,partial,1,images/Ex14.jpg,right,training,hard,1,,,,,
,,,,,5efea1f363271c3b76d4c9ed,001,,,,,2024-03-05_22h20.22.096,CRL1h,2023.2.3,MacIntel,59.88023952,65e67470ae2fbf2172c317b2,65e79a8e36f3a1b9d1ba4bdd,,,,,,,,,,,977.2106,1.5,978.712,978.712,979.5434,left,1,0.8266,,979.5434,980.5421,5,9,89,11,1,partial,1,images/Ex12.jpg,left,training,hard,1,,,,,
,,,,,5efea1f363271c3b76d4c9ed,001,,,,,2024-03-05_22h20.22.096,CRL1h,2023.2.3,MacIntel,59.88023952,65e67470ae2fbf2172c317b2,65e79a8e36f3a1b9d1ba4bdd,,,,,,,,,,,980.5424,1.2,981.7428,981.7428,982.4281,left,1,0.6758,,982.4282,983.4289,5,10,90,1,1,partial,1,images/Ex10.jpg,left,training,hard,1,,,,,
,,,,,5efea1f363271c3b76d4c9ed,001,,,,,2024-03-05_22h20.22.096,CRL1h,2023.2.3,MacIntel,59.88023952,65e67470ae2fbf2172c317b2,65e79a8e36f3a1b9d1ba4bdd,,,,,,,,,,,983.4294,0.6,984.0258,984.0258,984.6936,left,1,0.6635,,984.6936,985.6941,5,11,91,8,1,partial,1,images/Ex9.jpg,left,training,hard,1,,,,,
,,,,,5efea1f363271c3b76d4c9ed,001,,,,,2024-03-05_22h20.22.096,CRL1h,2023.2.3,MacIntel,59.88023952,65e67470ae2fbf2172c317b2,65e79a8e36f3a1b9d1ba4bdd,,,,,,,,,,,985.6946,1.5,987.1931,987.1931,987.9613,right,1,0.7628,,987.9613,988.9618,5,12,92,15,1,partial,1,images/Ex16.jpg,right,training,hard,1,,,,,
,,,,,5efea1f363271c3b76d4c9ed,001,,,,,2024-03-05_22h20.22.096,CRL1h,2023.2.3,MacIntel,59.88023952,65e67470ae2fbf2172c317b2,65e79a8e36f3a1b9d1ba4bdd,,,,,,,,,,,988.9623,1.2,990.158,990.158,990.9927,right,1,0.8326,,990.9927,991.9928,5,13,93,12,1,partial,1,images/Ex13.jpg,right,training,hard,1,,,,,
,,,,,5efea1f363271c3b76d4c9ed,001,,,,,2024-03-05_22h20.22.096,CRL1h,2023.2.3,MacIntel,59.88023952,65e67470ae2fbf2172c317b2,65e79a8e36f3a1b9d1ba4bdd,,,,,,,,,,,991.9936,1.3,993.2904,993.2905,994.0253,left,1,0.7309,,994.0254,995.0265,5,14,94,9,1,partial,1,images/Ex10.jpg,left,training,hard,1,,,,,
,,,,,5efea1f363271c3b76d4c9ed,001,,,,,2024-03-05_22h20.22.096,CRL1h,2023.2.3,MacIntel,59.88023952,65e67470ae2fbf2172c317b2,65e79a8e36f3a1b9d1ba4bdd,,,,,,,,,,,995.0271,0.6,995.6259,995.6259,996.2582,left,1,0.6281,,996.2583,997.259,5,15,95,3,1,partial,1,images/Ex12.jpg,left,training,hard,1,,,,,
,,,,,5efea1f363271c3b76d4c9ed,001,,,,,2024-03-05_22h20.22.096,CRL1h,2023.2.3,MacIntel,59.88023952,65e67470ae2fbf2172c317b2,65e79a8e36f3a1b9d1ba4bdd,,,,,,,,,,,997.2603,1.1,998.3573,998.3574,998.8587,left,1,0.4974,,998.8587,999.8584,6,0,96,0,1,partial,1,images/Ex9.jpg,left,training,hard,1,,,,,
,,,,,5efea1f363271c3b76d4c9ed,001,,,,,2024-03-05_22h20.22.096,CRL1h,2023.2.3,MacIntel,59.88023952,65e67470ae2fbf2172c317b2,65e79a8e36f3a1b9d1ba4bdd,,,,,,,,,,,999.8593,0.9,1000.7566,1000.7567,1001.378,left,1,0.6192,,1001.378,1002.3738,6,1,97,8,1,partial,1,images/Ex9.jpg,left,training,hard,1,,,,,
,,,,,5efea1f363271c3b76d4c9ed,001,,,,,2024-03-05_22h20.22.096,CRL1h,2023.2.3,MacIntel,59.88023952,65e67470ae2fbf2172c317b2,65e79a8e36f3a1b9d1ba4bdd,,,,,,,,,,,1002.3755,0.6,1002.975,1002.9751,1003.6262,left,0,0.6493,,1003.6263,1004.6233,6,2,98,5,1,partial,1,images/Ex14.jpg,right,training,hard,1,,,,,
,,,,,5efea1f363271c3b76d4c9ed,001,,,,,2024-03-05_22h20.22.096,CRL1h,2023.2.3,MacIntel,59.88023952,65e67470ae2fbf2172c317b2,65e79a8e36f3a1b9d1ba4bdd,,,,,,,,,,,1004.6238,0.8,1005.4245,1005.4245,1006.158,left,1,0.7281,,1006.158,1007.1576,6,3,99,1,1,partial,1,images/Ex10.jpg,left,training,hard,1,,,,,
,,,,,5efea1f363271c3b76d4c9ed,001,,,,,2024-03-05_22h20.22.096,CRL1h,2023.2.3,MacIntel,59.88023952,65e67470ae2fbf2172c317b2,65e79a8e36f3a1b9d1ba4bdd,,,,,,,,,,,1007.1586,0.8,1007.958,1007.958,1008.6425,left,1,0.6834,,1008.6425,1009.6406,6,4,100,11,1,partial,1,images/Ex12.jpg,left,training,hard,1,,,,,
,,,,,5efea1f363271c3b76d4c9ed,001,,,,,2024-03-05_22h20.22.096,CRL1h,2023.2.3,MacIntel,59.88023952,65e67470ae2fbf2172c317b2,65e79a8e36f3a1b9d1ba4bdd,,,,,,,,,,,1009.6411,0.8,1010.4408,1010.441,1011.4072,right,1,0.9599,,1011.4072,1012.4083,6,5,101,4,1,partial,1,images/Ex13.jpg,right,training,hard,1,,,,,
,,,,,5efea1f363271c3b76d4c9ed,001,,,,,2024-03-05_22h20.22.096,CRL1h,2023.2.3,MacIntel,59.88023952,65e67470ae2fbf2172c317b2,65e79a8e36f3a1b9d1ba4bdd,,,,,,,,,,,1012.4086,1,1013.4058,1013.4058,1014.0558,right,1,0.6466,,1014.0558,1015.0565,6,6,102,7,1,partial,1,images/Ex16.jpg,right,training,hard,1,,,,,
,,,,,5efea1f363271c3b76d4c9ed,001,,,,,2024-03-05_22h20.22.096,CRL1h,2023.2.3,MacIntel,59.88023952,65e67470ae2fbf2172c317b2,65e79a8e36f3a1b9d1ba4bdd,,,,,,,,,,,1015.0579,1.4,1016.4585,1016.4585,1017.4407,left,1,0.9813,,1017.4407,1018.44,6,7,103,2,1,partial,1,images/Ex11.jpg,left,training,hard,1,,,,,
,,,,,5efea1f363271c3b76d4c9ed,001,,,,,2024-03-05_22h20.22.096,CRL1h,2023.2.3,MacIntel,59.88023952,65e67470ae2fbf2172c317b2,65e79a8e36f3a1b9d1ba4bdd,,,,,,,,,,,1018.4405,0.7,1019.1393,1019.1393,1019.9735,left,1,0.8275,,1019.9735,1020.9711,6,8,104,9,1,partial,1,images/Ex10.jpg,left,training,hard,1,,,,,
,,,,,5efea1f363271c3b76d4c9ed,001,,,,,2024-03-05_22h20.22.096,CRL1h,2023.2.3,MacIntel,59.88023952,65e67470ae2fbf2172c317b2,65e79a8e36f3a1b9d1ba4bdd,,,,,,,,,,,1020.9715,1,1021.9712,1021.9712,1023.0406,right,1,1.06,,1023.0407,1024.0401,6,9,105,13,1,partial,1,images/Ex14.jpg,right,training,hard,1,,,,,
,,,,,5efea1f363271c3b76d4c9ed,001,,,,,2024-03-05_22h20.22.096,CRL1h,2023.2.3,MacIntel,59.88023952,65e67470ae2fbf2172c317b2,65e79a8e36f3a1b9d1ba4bdd,,,,,,,,,,,1024.0405,1.3,1025.3395,1025.3395,1026.2072,right,1,0.866,,1026.2073,1027.2047,6,10,106,14,1,partial,1,images/Ex15.jpg,right,training,hard,1,,,,,
,,,,,5efea1f363271c3b76d4c9ed,001,,,,,2024-03-05_22h20.22.096,CRL1h,2023.2.3,MacIntel,59.88023952,65e67470ae2fbf2172c317b2,65e79a8e36f3a1b9d1ba4bdd,,,,,,,,,,,1027.2053,1,1028.2048,1028.2049,1028.8908,right,1,0.6798,,1028.8908,1029.8882,6,11,107,15,1,partial,1,images/Ex16.jpg,right,training,hard,1,,,,,
,,,,,5efea1f363271c3b76d4c9ed,001,,,,,2024-03-05_22h20.22.096,CRL1h,2023.2.3,MacIntel,59.88023952,65e67470ae2fbf2172c317b2,65e79a8e36f3a1b9d1ba4bdd,,,,,,,,,,,1029.8899,0.9,1030.7866,1030.7866,1031.9876,left,1,1.1975,,1031.9876,1032.9866,6,12,108,10,1,partial,1,images/Ex11.jpg,left,training,hard,1,,,,,
,,,,,5efea1f363271c3b76d4c9ed,001,,,,,2024-03-05_22h20.22.096,CRL1h,2023.2.3,MacIntel,59.88023952,65e67470ae2fbf2172c317b2,65e79a8e36f3a1b9d1ba4bdd,,,,,,,,,,,1032.9872,0.6,1033.5885,1033.5885,1034.2531,right,1,0.6604,,1034.2531,1035.2538,6,13,109,12,1,partial,1,images/Ex13.jpg,right,training,hard,1,,,,,
,,,,,5efea1f363271c3b76d4c9ed,001,,,,,2024-03-05_22h20.22.096,CRL1h,2023.2.3,MacIntel,59.88023952,65e67470ae2fbf2172c317b2,65e79a8e36f3a1b9d1ba4bdd,,,,,,,,,,,1035.2547,1.3,1036.554,1036.554,1037.2881,left,1,0.7297,,1037.2881,1038.2867,6,14,110,3,1,partial,1,images/Ex12.jpg,left,training,hard,1,,,,,
,,,,,5efea1f363271c3b76d4c9ed,001,,,,,2024-03-05_22h20.22.096,CRL1h,2023.2.3,MacIntel,59.88023952,65e67470ae2fbf2172c317b2,65e79a8e36f3a1b9d1ba4bdd,,,,,,,,,,,1038.2873,1.1,1039.3863,1039.3864,1040.1897,right,1,0.7993,,1040.1897,1041.1866,6,15,111,6,1,partial,1,images/Ex15.jpg,right,training,hard,1,,,,,
,,,,,5efea1f363271c3b76d4c9ed,001,,,,,2024-03-05_22h20.22.096,CRL1h,2023.2.3,MacIntel,59.88023952,65e67470ae2fbf2172c317b2,65e79a8e36f3a1b9d1ba4bdd,,,,,,,,,,,1041.1873,1.4,1042.5856,1042.5856,1043.2538,right,1,0.6641,,1043.2538,1044.2528,7,0,112,15,1,partial,1,images/Ex16.jpg,right,training,hard,1,,,,,
,,,,,5efea1f363271c3b76d4c9ed,001,,,,,2024-03-05_22h20.22.096,CRL1h,2023.2.3,MacIntel,59.88023952,65e67470ae2fbf2172c317b2,65e79a8e36f3a1b9d1ba4bdd,,,,,,,,,,,1044.2532,1.2,1045.4528,1045.4529,1046.2045,left,1,0.7472,,1046.2045,1047.2029,7,1,113,2,1,partial,1,images/Ex11.jpg,left,training,hard,1,,,,,
,,,,,5efea1f363271c3b76d4c9ed,001,,,,,2024-03-05_22h20.22.096,CRL1h,2023.2.3,MacIntel,59.88023952,65e67470ae2fbf2172c317b2,65e79a8e36f3a1b9d1ba4bdd,,,,,,,,,,,1047.2033,0.8,1048.0018,1048.0018,1048.7382,left,1,0.731,,1048.7382,1049.7359,7,2,114,1,1,partial,1,images/Ex10.jpg,left,training,hard,1,,,,,
,,,,,5efea1f363271c3b76d4c9ed,001,,,,,2024-03-05_22h20.22.096,CRL1h,2023.2.3,MacIntel,59.88023952,65e67470ae2fbf2172c317b2,65e79a8e36f3a1b9d1ba4bdd,,,,,,,,,,,1049.7365,0.5,1050.2384,1050.2384,1051.3198,left,0,1.0755,,1051.3198,1052.3199,7,3,115,6,1,partial,1,images/Ex15.jpg,right,training,hard,1,,,,,
,,,,,5efea1f363271c3b76d4c9ed,001,,,,,2024-03-05_22h20.22.096,CRL1h,2023.2.3,MacIntel,59.88023952,65e67470ae2fbf2172c317b2,65e79a8e36f3a1b9d1ba4bdd,,,,,,,,,,,1052.3205,1.4,1053.7204,1053.7204,1054.3722,left,1,0.6491,,1054.3723,1055.3687,7,4,116,8,1,partial,1,images/Ex9.jpg,left,training,hard,1,,,,,
,,,,,5efea1f363271c3b76d4c9ed,001,,,,,2024-03-05_22h20.22.096,CRL1h,2023.2.3,MacIntel,59.88023952,65e67470ae2fbf2172c317b2,65e79a8e36f3a1b9d1ba4bdd,,,,,,,,,,,1055.3694,0.7,1056.0709,1056.0709,1056.6701,left,1,0.5983,,1056.6702,1057.6673,7,5,117,0,1,partial,1,images/Ex9.jpg,left,training,hard,1,,,,,
,,,,,5efea1f363271c3b76d4c9ed,001,,,,,2024-03-05_22h20.22.096,CRL1h,2023.2.3,MacIntel,59.88023952,65e67470ae2fbf2172c317b2,65e79a8e36f3a1b9d1ba4bdd,,,,,,,,,,,1057.6678,1.4,1059.0687,1059.0687,1059.9865,left,1,0.9106,,1059.9866,1060.9838,7,6,118,10,1,partial,1,images/Ex11.jpg,left,training,hard,1,,,,,
,,,,,5efea1f363271c3b76d4c9ed,001,,,,,2024-03-05_22h20.22.096,CRL1h,2023.2.3,MacIntel,59.88023952,65e67470ae2fbf2172c317b2,65e79a8e36f3a1b9d1ba4bdd,,,,,,,,,,,1060.9845,1,1061.9835,1061.9835,1062.7855,right,1,0.7973,,1062.7856,1063.7834,7,7,119,12,1,partial,1,images/Ex13.jpg,right,training,hard,1,,,,,
,,,,,5efea1f363271c3b76d4c9ed,001,,,,,2024-03-05_22h20.22.096,CRL1h,2023.2.3,MacIntel,59.88023952,65e67470ae2fbf2172c317b2,65e79a8e36f3a1b9d1ba4bdd,,,,,,,,,,,1063.7838,1.4,1065.1831,1065.1832,1065.8022,left,1,0.6169,,1065.8022,1066.802,7,8,120,11,1,partial,1,images/Ex12.jpg,left,training,hard,1,,,,,
,,,,,5efea1f363271c3b76d4c9ed,001,,,,,2024-03-05_22h20.22.096,CRL1h,2023.2.3,MacIntel,59.88023952,65e67470ae2fbf2172c317b2,65e79a8e36f3a1b9d1ba4bdd,,,,,,,,,,,1066.8025,1.4,1068.1999,1068.2,1069.0619,right,1,0.8606,,1069.062,1070.05,7,9,121,4,1,partial,1,images/Ex13.jpg,right,training,hard,1,,,,,
,,,,,5efea1f363271c3b76d4c9ed,001,,,,,2024-03-05_22h20.22.096,CRL1h,2023.2.3,MacIntel,59.88023952,65e67470ae2fbf2172c317b2,65e79a8e36f3a1b9d1ba4bdd,,,,,,,,,,,1070.0505,1.3,1071.3483,1071.3483,1072.2991,right,1,0.9494,,1072.2992,1073.3006,7,10,122,13,1,partial,1,images/Ex14.jpg,right,training,hard,1,,,,,
,,,,,5efea1f363271c3b76d4c9ed,001,,,,,2024-03-05_22h20.22.096,CRL1h,2023.2.3,MacIntel,59.88023952,65e67470ae2fbf2172c317b2,65e79a8e36f3a1b9d1ba4bdd,,,,,,,,,,,1073.301,0.5,1073.7998,1073.7998,1074.5326,right,1,0.7294,,1074.5326,1075.5343,7,11,123,5,1,partial,1,images/Ex14.jpg,right,training,hard,1,,,,,
,,,,,5efea1f363271c3b76d4c9ed,001,,,,,2024-03-05_22h20.22.096,CRL1h,2023.2.3,MacIntel,59.88023952,65e67470ae2fbf2172c317b2,65e79a8e36f3a1b9d1ba4bdd,,,,,,,,,,,1075.5348,0.7,1076.2333,1076.2334,1077.1017,left,0,0.8619,,1077.1017,1078.1005,7,12,124,14,1,partial,1,images/Ex15.jpg,right,training,hard,1,,,,,
,,,,,5efea1f363271c3b76d4c9ed,001,,,,,2024-03-05_22h20.22.096,CRL1h,2023.2.3,MacIntel,59.88023952,65e67470ae2fbf2172c317b2,65e79a8e36f3a1b9d1ba4bdd,,,,,,,,,,,1078.1012,1.3,1079.3984,1079.3984,1080.3666,left,1,0.9616,,1080.3667,1081.3654,7,13,125,3,1,partial,1,images/Ex12.jpg,left,training,hard,1,,,,,
,,,,,5efea1f363271c3b76d4c9ed,001,,,,,2024-03-05_22h20.22.096,CRL1h,2023.2.3,MacIntel,59.88023952,65e67470ae2fbf2172c317b2,65e79a8e36f3a1b9d1ba4bdd,,,,,,,,,,,1081.366,1,1082.366,1082.366,1083.1149,left,1,0.7451,,1083.115,1084.1147,7,14,126,9,1,partial,1,images/Ex10.jpg,left,training,hard,1,,,,,
,,,,,5efea1f363271c3b76d4c9ed,001,,,,,2024-03-05_22h20.22.096,CRL1h,2023.2.3,MacIntel,59.88023952,65e67470ae2fbf2172c317b2,65e79a8e36f3a1b9d1ba4bdd,,,,,,,,,,,1084.1155,1.4,1085.5152,1085.5152,1086.2507,right,1,0.728,,1086.2508,1087.248,7,15,127,7,1,partial,1,images/Ex16.jpg,right,training,hard,1,,,,,
,,,,,5efea1f363271c3b76d4c9ed,001,,,,,2024-03-05_22h20.22.096,CRL1h,2023.2.3,MacIntel,59.88023952,65e67470ae2fbf2172c317b2,65e79a8e36f3a1b9d1ba4bdd,,,,,,,,,,,1087.2562,0.8,1088.0477,1088.0479,1089.0979,left,0,1.047,,1089.0979,1090.1005,0,0,0,2,1,partial,2,images/Ex11.jpg,right,reversed,hard,1,,,,,
,,,,,5efea1f363271c3b76d4c9ed,001,,,,,2024-03-05_22h20.22.096,CRL1h,2023.2.3,MacIntel,59.88023952,65e67470ae2fbf2172c317b2,65e79a8e36f3a1b9d1ba4bdd,,,,,,,,,,,1090.101,0.8,1090.8982,1090.8982,1091.5633,left,0,0.661,,1091.5633,1092.5629,0,1,1,11,1,partial,2,images/Ex12.jpg,right,reversed,hard,1,,,,,
,,,,,5efea1f363271c3b76d4c9ed,001,,,,,2024-03-05_22h20.22.096,CRL1h,2023.2.3,MacIntel,59.88023952,65e67470ae2fbf2172c317b2,65e79a8e36f3a1b9d1ba4bdd,,,,,,,,,,,1092.5634,0.7,1093.2667,1093.2667,1094.1303,left,0,0.8607,,1094.1304,1095.1307,0,2,2,7,1,partial,2,images/Ex16.jpg,right,nonreversed,hard,1,,,,,
,,,,,5efea1f363271c3b76d4c9ed,001,,,,,2024-03-05_22h20.22.096,CRL1h,2023.2.3,MacIntel,59.88023952,65e67470ae2fbf2172c317b2,65e79a8e36f3a1b9d1ba4bdd,,,,,,,,,,,1095.1315,1.1,1096.2306,1096.2306,1096.9993,right,0,0.7672,,1096.9993,1097.9979,0,3,3,12,1,partial,2,images/Ex13.jpg,left,reversed,hard,1,,,,,
,,,,,5efea1f363271c3b76d4c9ed,001,,,,,2024-03-05_22h20.22.096,CRL1h,2023.2.3,MacIntel,59.88023952,65e67470ae2fbf2172c317b2,65e79a8e36f3a1b9d1ba4bdd,,,,,,,,,,,1097.9985,1.1,1099.0971,1099.0972,1100.114,right,0,1.014,,1100.1141,1101.1121,0,4,4,9,1,partial,2,images/Ex10.jpg,left,nonreversed,hard,1,,,,,
,,,,,5efea1f363271c3b76d4c9ed,001,,,,,2024-03-05_22h20.22.096,CRL1h,2023.2.3,MacIntel,59.88023952,65e67470ae2fbf2172c317b2,65e79a8e36f3a1b9d1ba4bdd,,,,,,,,,,,1101.1125,0.7,1101.812,1101.8121,1102.7642,left,1,0.9477,,1102.7643,1103.763,0,5,5,8,1,partial,2,images/Ex9.jpg,left,nonreversed,hard,1,,,,,
,,,,,5efea1f363271c3b76d4c9ed,001,,,,,2024-03-05_22h20.22.096,CRL1h,2023.2.3,MacIntel,59.88023952,65e67470ae2fbf2172c317b2,65e79a8e36f3a1b9d1ba4bdd,,,,,,,,,,,1103.7638,1,1104.7636,1104.7636,1105.83,right,0,1.0641,,1105.8301,1106.8307,0,6,6,13,1,partial,2,images/Ex14.jpg,left,reversed,hard,1,,,,,
,,,,,5efea1f363271c3b76d4c9ed,001,,,,,2024-03-05_22h20.22.096,CRL1h,2023.2.3,MacIntel,59.88023952,65e67470ae2fbf2172c317b2,65e79a8e36f3a1b9d1ba4bdd,,,,,,,,,,,1106.8312,1.1,1107.9302,1107.9302,1108.8294,right,0,0.8943,,1108.8294,1109.8294,0,7,7,1,1,partial,2,images/Ex10.jpg,left,nonreversed,hard,1,,,,,
,,,,,5efea1f363271c3b76d4c9ed,001,,,,,2024-03-05_22h20.22.096,CRL1h,2023.2.3,MacIntel,59.88023952,65e67470ae2fbf2172c317b2,65e79a8e36f3a1b9d1ba4bdd,,,,,,,,,,,1109.8302,1.3,1111.1281,1111.1281,1112.2624,left,0,1.1242,,1112.2624,1113.262,0,8,8,14,1,partial,2,images/Ex15.jpg,right,nonreversed,hard,1,,,,,
,,,,,5efea1f363271c3b76d4c9ed,001,,,,,2024-03-05_22h20.22.096,CRL1h,2023.2.3,MacIntel,59.88023952,65e67470ae2fbf2172c317b2,65e79a8e36f3a1b9d1ba4bdd,,,,,,,,,,,1113.2624,1,1114.2638,1114.2639,1114.9629,right,1,0.6951,,1114.963,1115.962,0,9,9,15,1,partial,2,images/Ex16.jpg,right,nonreversed,hard,1,,,,,
,,,,,5efea1f363271c3b76d4c9ed,001,,,,,2024-03-05_22h20.22.096,CRL1h,2023.2.3,MacIntel,59.88023952,65e67470ae2fbf2172c317b2,65e79a8e36f3a1b9d1ba4bdd,,,,,,,,,,,1115.9626,0.9,1116.8623,1116.8624,1117.579,left,1,0.7146,,1117.579,1118.5779,0,10,10,0,1,partial,2,images/Ex9.jpg,left,nonreversed,hard,1,,,,,
,,,,,5efea1f363271c3b76d4c9ed,001,,,,,2024-03-05_22h20.22.096,CRL1h,2023.2.3,MacIntel,59.88023952,65e67470ae2fbf2172c317b2,65e79a8e36f3a1b9d1ba4bdd,,,,,,,,,,,1118.5786,0.8,1119.3782,1119.3782,1120.1953,left,0,0.806,,1120.1954,1121.193,0,11,11,3,1,partial,2,images/Ex12.jpg,right,reversed,hard,1,,,,,
,,,,,5efea1f363271c3b76d4c9ed,001,,,,,2024-03-05_22h20.22.096,CRL1h,2023.2.3,MacIntel,59.88023952,65e67470ae2fbf2172c317b2,65e79a8e36f3a1b9d1ba4bdd,,,,,,,,,,,1121.1935,1.1,1122.2959,1122.2959,1123.9609,right,1,1.66,,1123.9609,1124.9602,0,12,12,6,1,partial,2,images/Ex15.jpg,right,nonreversed,hard,1,,,,,
,,,,,5efea1f363271c3b76d4c9ed,001,,,,,2024-03-05_22h20.22.096,CRL1h,2023.2.3,MacIntel,59.88023952,65e67470ae2fbf2172c317b2,65e79a8e36f3a1b9d1ba4bdd,,,,,,,,,,,1124.9606,1.2,1126.1602,1126.1603,1127.0618,left,1,0.8997,,1127.0618,1128.0628,0,13,13,4,1,partial,2,images/Ex13.jpg,left,reversed,hard,1,,,,,
,,,,,5efea1f363271c3b76d4c9ed,001,,,,,2024-03-05_22h20.22.096,CRL1h,2023.2.3,MacIntel,59.88023952,65e67470ae2fbf2172c317b2,65e79a8e36f3a1b9d1ba4bdd,,,,,,,,,,,1128.0633,0.7,1128.7594,1128.7594,1129.7279,left,1,0.9639,,1129.7279,1130.7254,0,14,14,5,1,partial,2,images/Ex14.jpg,left,reversed,hard,1,,,,,
,,,,,5efea1f363271c3b76d4c9ed,001,,,,,2024-03-05_22h20.22.096,CRL1h,2023.2.3,MacIntel,59.88023952,65e67470ae2fbf2172c317b2,65e79a8e36f3a1b9d1ba4bdd,,,,,,,,,,,1130.7259,0.5,1131.2262,1131.2263,1132.159,right,1,0.9275,,1132.159,1133.1585,0,15,15,10,1,partial,2,images/Ex11.jpg,right,reversed,hard,1,,,,,
