infCons.started,infCons.stopped,resp_consent.keys,resp_consent.rt,resp_consent.duration,participant,session,Age?,Gender?,Nationality?,Highest Educational Degree?,date,expName,psychopyVersion,OS,frameRate,STUDY_ID,SESSION_ID,instructions.started,instructions.stopped,resp_instructions.keys,resp_instructions.rt,resp_instructions.duration,nextTask.started,nextTask.stopped,ready_task.keys,ready_task.rt,ready_task.duration,fixation.started,ITI,fixation.stopped,stim.started,stim.stopped,response.keys,response.corr,response.rt,response.duration,feedback.started,feedback.stopped,trials.thisRepN,trials.thisTrialN,trials.thisN,trials.thisIndex,trials.ran,task,phase,Exemplars,r_correct,condition,difficulty,set,end.started,end.stopped,resp_end.keys,resp_end.rt,resp_end.duration
0.0006,4.6567,space,4.5803,,5f160514e2a4062d2a0ded58,001,27,male,british,A levels,2024-03-06_12h16.28.212,CRL1h,2023.2.3,Win32,60.24096386,65e67470ae2fbf2172c317b2,65e85e5f7f7d93ab53a62a7f,,,,,,,,,,,,,,,,,,,,,,,,,,,,,,,,,,,,,,
,,,,,5f160514e2a4062d2a0ded58,001,27,male,british,A levels,2024-03-06_12h16.28.212,CRL1h,2023.2.3,Win32,60.24096386,65e67470ae2fbf2172c317b2,65e85e5f7f7d93ab53a62a7f,4.6572,43.6453,space,38.9594,,,,,,,,,,,,,,,,,,,,,,,,,,,,,,,,,,
,,,,,5f160514e2a4062d2a0ded58,001,27,male,british,A levels,2024-03-06_12h16.28.212,CRL1h,2023.2.3,Win32,60.24096386,65e67470ae2fbf2172c317b2,65e85e5f7f7d93ab53a62a7f,,,,,,43.6568,50.0848,space,6.4095,,50.1008,0.8,50.9027,50.9028,52.8876,left,1,1.9663,,52.8889,53.8771,0,0,0,11,1,total,1,images/Ex4.jpg,left,training,hard,2,,,,,
,,,,,5f160514e2a4062d2a0ded58,001,27,male,british,A levels,2024-03-06_12h16.28.212,CRL1h,2023.2.3,Win32,60.24096386,65e67470ae2fbf2172c317b2,65e85e5f7f7d93ab53a62a7f,,,,,,,,,,,53.8792,1.1,54.9686,54.9687,56.0669,right,0,1.0945,,56.0677,57.0594,0,1,1,8,1,total,1,images/Ex1.jpg,left,training,hard,2,,,,,
,,,,,5f160514e2a4062d2a0ded58,001,27,male,british,A levels,2024-03-06_12h16.28.212,CRL1h,2023.2.3,Win32,60.24096386,65e67470ae2fbf2172c317b2,65e85e5f7f7d93ab53a62a7f,,,,,,,,,,,57.0626,1.5,58.5654,58.5656,59.6305,right,1,1.0591,,59.6306,60.6271,0,2,2,5,1,total,1,images/Ex6.jpg,right,training,hard,2,,,,,
,,,,,5f160514e2a4062d2a0ded58,001,27,male,british,A levels,2024-03-06_12h16.28.212,CRL1h,2023.2.3,Win32,60.24096386,65e67470ae2fbf2172c317b2,65e85e5f7f7d93ab53a62a7f,,,,,,,,,,,60.6277,1.3,61.9205,61.9207,62.7918,right,1,0.8648,,62.7919,63.7858,0,3,3,4,1,total,1,images/Ex5.jpg,right,training,hard,2,,,,,
,,,,,5f160514e2a4062d2a0ded58,001,27,male,british,A levels,2024-03-06_12h16.28.212,CRL1h,2023.2.3,Win32,60.24096386,65e67470ae2fbf2172c317b2,65e85e5f7f7d93ab53a62a7f,,,,,,,,,,,63.7884,0.9,64.6859,64.6865,65.6217,right,0,0.9334,,65.6217,66.625,0,4,4,10,1,total,1,images/Ex3.jpg,left,training,hard,2,,,,,
,,,,,5f160514e2a4062d2a0ded58,001,27,male,british,A levels,2024-03-06_12h16.28.212,CRL1h,2023.2.3,Win32,60.24096386,65e67470ae2fbf2172c317b2,65e85e5f7f7d93ab53a62a7f,,,,,,,,,,,66.6255,0.8,67.4229,67.423,68.3029,left,1,0.8744,,68.3029,69.2916,0,5,5,0,1,total,1,images/Ex1.jpg,left,training,hard,2,,,,,
,,,,,5f160514e2a4062d2a0ded58,001,27,male,british,A levels,2024-03-06_12h16.28.212,CRL1h,2023.2.3,Win32,60.24096386,65e67470ae2fbf2172c317b2,65e85e5f7f7d93ab53a62a7f,,,,,,,,,,,69.2933,0.9,70.1822,70.1823,70.653,right,0,0.4662,,70.6531,71.6517,0,6,6,2,1,total,1,images/Ex3.jpg,left,training,hard,2,,,,,
,,,,,5f160514e2a4062d2a0ded58,001,27,male,british,A levels,2024-03-06_12h16.28.212,CRL1h,2023.2.3,Win32,60.24096386,65e67470ae2fbf2172c317b2,65e85e5f7f7d93ab53a62a7f,,,,,,,,,,,71.6522,1.4,73.0503,73.0504,73.639,right,1,0.5864,,73.6391,74.6289,0,7,7,15,1,total,1,images/Ex8.jpg,right,training,hard,2,,,,,
,,,,,5f160514e2a4062d2a0ded58,001,27,male,british,A levels,2024-03-06_12h16.28.212,CRL1h,2023.2.3,Win32,60.24096386,65e67470ae2fbf2172c317b2,65e85e5f7f7d93ab53a62a7f,,,,,,,,,,,74.6294,0.8,75.4195,75.4198,76.0291,right,1,0.6074,,76.0292,77.0309,0,8,8,12,1,total,1,images/Ex5.jpg,right,training,hard,2,,,,,
,,,,,5f160514e2a4062d2a0ded58,001,27,male,british,A levels,2024-03-06_12h16.28.212,CRL1h,2023.2.3,Win32,60.24096386,65e67470ae2fbf2172c317b2,65e85e5f7f7d93ab53a62a7f,,,,,,,,,,,77.0334,1.3,78.3294,78.3297,79.2455,left,0,0.9068,,79.2455,80.2444,0,9,9,14,1,total,1,images/Ex7.jpg,right,training,hard,2,,,,,
,,,,,5f160514e2a4062d2a0ded58,001,27,male,british,A levels,2024-03-06_12h16.28.212,CRL1h,2023.2.3,Win32,60.24096386,65e67470ae2fbf2172c317b2,65e85e5f7f7d93ab53a62a7f,,,,,,,,,,,80.2469,1.4,81.6416,81.6417,82.5219,right,0,0.8768,,82.5221,83.9263,0,10,10,1,1,total,1,images/Ex2.jpg,left,training,hard,2,,,,,
,,,,,5f160514e2a4062d2a0ded58,001,27,male,british,A levels,2024-03-06_12h16.28.212,CRL1h,2023.2.3,Win32,60.24096386,65e67470ae2fbf2172c317b2,65e85e5f7f7d93ab53a62a7f,,,,,,,,,,,83.9267,0.8,83.9522,83.9523,85.355,right,1,1.4001,,85.3551,86.3539,0,11,11,6,1,total,1,images/Ex7.jpg,right,training,hard,2,,,,,
,,,,,5f160514e2a4062d2a0ded58,001,27,male,british,A levels,2024-03-06_12h16.28.212,CRL1h,2023.2.3,Win32,60.24096386,65e67470ae2fbf2172c317b2,65e85e5f7f7d93ab53a62a7f,,,,,,,,,,,86.3546,1.2,87.5523,87.5524,88.1988,right,1,0.6451,,88.1988,89.2008,0,12,12,13,1,total,1,images/Ex6.jpg,right,training,hard,2,,,,,
,,,,,5f160514e2a4062d2a0ded58,001,27,male,british,A levels,2024-03-06_12h16.28.212,CRL1h,2023.2.3,Win32,60.24096386,65e67470ae2fbf2172c317b2,65e85e5f7f7d93ab53a62a7f,,,,,,,,,,,89.2015,0.9,90.0998,90.0999,90.613,right,0,0.512,,90.6131,91.6153,0,13,13,3,1,total,1,images/Ex4.jpg,left,training,hard,2,,,,,
,,,,,5f160514e2a4062d2a0ded58,001,27,male,british,A levels,2024-03-06_12h16.28.212,CRL1h,2023.2.3,Win32,60.24096386,65e67470ae2fbf2172c317b2,65e85e5f7f7d93ab53a62a7f,,,,,,,,,,,91.6158,0.8,92.4119,92.412,93.029,right,1,0.6158,,93.0291,94.0294,0,14,14,7,1,total,1,images/Ex8.jpg,right,training,hard,2,,,,,
,,,,,5f160514e2a4062d2a0ded58,001,27,male,british,A levels,2024-03-06_12h16.28.212,CRL1h,2023.2.3,Win32,60.24096386,65e67470ae2fbf2172c317b2,65e85e5f7f7d93ab53a62a7f,,,,,,,,,,,94.03,0.9,94.9285,94.9285,95.5947,right,0,0.6587,,95.5947,96.5934,0,15,15,9,1,total,1,images/Ex2.jpg,left,training,hard,2,,,,,
,,,,,5f160514e2a4062d2a0ded58,001,27,male,british,A levels,2024-03-06_12h16.28.212,CRL1h,2023.2.3,Win32,60.24096386,65e67470ae2fbf2172c317b2,65e85e5f7f7d93ab53a62a7f,,,,,,,,,,,96.5939,0.8,97.3927,97.3927,98.0754,right,1,0.6753,,98.0756,99.0743,1,0,16,15,1,total,1,images/Ex8.jpg,right,training,hard,2,,,,,
,,,,,5f160514e2a4062d2a0ded58,001,27,male,british,A levels,2024-03-06_12h16.28.212,CRL1h,2023.2.3,Win32,60.24096386,65e67470ae2fbf2172c317b2,65e85e5f7f7d93ab53a62a7f,,,,,,,,,,,99.0751,0.9,99.9733,99.9734,100.6744,right,1,0.6959,,100.6746,101.6735,1,1,17,12,1,total,1,images/Ex5.jpg,right,training,hard,2,,,,,
,,,,,5f160514e2a4062d2a0ded58,001,27,male,british,A levels,2024-03-06_12h16.28.212,CRL1h,2023.2.3,Win32,60.24096386,65e67470ae2fbf2172c317b2,65e85e5f7f7d93ab53a62a7f,,,,,,,,,,,101.6768,1,102.6726,102.6728,103.3517,right,1,0.6758,,103.3517,104.3523,1,2,18,4,1,total,1,images/Ex5.jpg,right,training,hard,2,,,,,
,,,,,5f160514e2a4062d2a0ded58,001,27,male,british,A levels,2024-03-06_12h16.28.212,CRL1h,2023.2.3,Win32,60.24096386,65e67470ae2fbf2172c317b2,65e85e5f7f7d93ab53a62a7f,,,,,,,,,,,104.3529,0.6,104.9517,104.9518,105.5512,left,1,0.5965,,105.5514,106.5501,1,3,19,11,1,total,1,images/Ex4.jpg,left,training,hard,2,,,,,
,,,,,5f160514e2a4062d2a0ded58,001,27,male,british,A levels,2024-03-06_12h16.28.212,CRL1h,2023.2.3,Win32,60.24096386,65e67470ae2fbf2172c317b2,65e85e5f7f7d93ab53a62a7f,,,,,,,,,,,106.5507,1.4,107.9463,107.9464,108.8281,left,0,0.8786,,108.8281,109.8259,1,4,20,14,1,total,1,images/Ex7.jpg,right,training,hard,2,,,,,
,,,,,5f160514e2a4062d2a0ded58,001,27,male,british,A levels,2024-03-06_12h16.28.212,CRL1h,2023.2.3,Win32,60.24096386,65e67470ae2fbf2172c317b2,65e85e5f7f7d93ab53a62a7f,,,,,,,,,,,109.8264,1,110.8305,110.8307,111.354,right,0,0.5191,,111.3541,112.3482,1,5,21,2,1,total,1,images/Ex3.jpg,left,training,hard,2,,,,,
,,,,,5f160514e2a4062d2a0ded58,001,27,male,british,A levels,2024-03-06_12h16.28.212,CRL1h,2023.2.3,Win32,60.24096386,65e67470ae2fbf2172c317b2,65e85e5f7f7d93ab53a62a7f,,,,,,,,,,,112.3498,0.7,113.0566,113.0567,113.6234,left,1,0.566,,113.6235,114.6253,1,6,22,10,1,total,1,images/Ex3.jpg,left,training,hard,2,,,,,
,,,,,5f160514e2a4062d2a0ded58,001,27,male,british,A levels,2024-03-06_12h16.28.212,CRL1h,2023.2.3,Win32,60.24096386,65e67470ae2fbf2172c317b2,65e85e5f7f7d93ab53a62a7f,,,,,,,,,,,114.6258,1.5,116.1239,116.124,116.9378,left,0,0.8123,,116.9378,117.9387,1,7,23,6,1,total,1,images/Ex7.jpg,right,training,hard,2,,,,,
,,,,,5f160514e2a4062d2a0ded58,001,27,male,british,A levels,2024-03-06_12h16.28.212,CRL1h,2023.2.3,Win32,60.24096386,65e67470ae2fbf2172c317b2,65e85e5f7f7d93ab53a62a7f,,,,,,,,,,,117.9392,0.5,118.4381,118.4381,119.7175,left,1,1.2781,,119.7176,120.7192,1,8,24,9,1,total,1,images/Ex2.jpg,left,training,hard,2,,,,,
,,,,,5f160514e2a4062d2a0ded58,001,27,male,british,A levels,2024-03-06_12h16.28.212,CRL1h,2023.2.3,Win32,60.24096386,65e67470ae2fbf2172c317b2,65e85e5f7f7d93ab53a62a7f,,,,,,,,,,,120.7198,1.3,122.0178,122.0179,122.6178,right,0,0.593,,122.6179,123.6176,1,9,25,1,1,total,1,images/Ex2.jpg,left,training,hard,2,,,,,
,,,,,5f160514e2a4062d2a0ded58,001,27,male,british,A levels,2024-03-06_12h16.28.212,CRL1h,2023.2.3,Win32,60.24096386,65e67470ae2fbf2172c317b2,65e85e5f7f7d93ab53a62a7f,,,,,,,,,,,123.6203,0.9,124.5083,124.5084,125.1152,right,1,0.6014,,125.1153,126.1111,1,10,26,5,1,total,1,images/Ex6.jpg,right,training,hard,2,,,,,
,,,,,5f160514e2a4062d2a0ded58,001,27,male,british,A levels,2024-03-06_12h16.28.212,CRL1h,2023.2.3,Win32,60.24096386,65e67470ae2fbf2172c317b2,65e85e5f7f7d93ab53a62a7f,,,,,,,,,,,126.1115,1.2,127.3083,127.3084,127.8422,right,0,0.5326,,127.8422,128.8468,1,11,27,3,1,total,1,images/Ex4.jpg,left,training,hard,2,,,,,
,,,,,5f160514e2a4062d2a0ded58,001,27,male,british,A levels,2024-03-06_12h16.28.212,CRL1h,2023.2.3,Win32,60.24096386,65e67470ae2fbf2172c317b2,65e85e5f7f7d93ab53a62a7f,,,,,,,,,,,128.8483,1,129.8449,129.8452,130.5394,right,0,0.6903,,130.5394,131.5345,1,12,28,8,1,total,1,images/Ex1.jpg,left,training,hard,2,,,,,
,,,,,5f160514e2a4062d2a0ded58,001,27,male,british,A levels,2024-03-06_12h16.28.212,CRL1h,2023.2.3,Win32,60.24096386,65e67470ae2fbf2172c317b2,65e85e5f7f7d93ab53a62a7f,,,,,,,,,,,131.537,0.7,132.2264,132.2269,132.8923,left,0,0.6596,,132.8927,133.8852,1,13,29,13,1,total,1,images/Ex6.jpg,right,training,hard,2,,,,,
,,,,,5f160514e2a4062d2a0ded58,001,27,male,british,A levels,2024-03-06_12h16.28.212,CRL1h,2023.2.3,Win32,60.24096386,65e67470ae2fbf2172c317b2,65e85e5f7f7d93ab53a62a7f,,,,,,,,,,,133.8859,1.1,134.978,134.9781,135.764,left,1,0.7809,,135.764,136.7533,1,14,30,0,1,total,1,images/Ex1.jpg,left,training,hard,2,,,,,
,,,,,5f160514e2a4062d2a0ded58,001,27,male,british,A levels,2024-03-06_12h16.28.212,CRL1h,2023.2.3,Win32,60.24096386,65e67470ae2fbf2172c317b2,65e85e5f7f7d93ab53a62a7f,,,,,,,,,,,136.7548,0.6,137.3527,137.3528,138.0858,right,1,0.729,,138.0861,139.0845,1,15,31,7,1,total,1,images/Ex8.jpg,right,training,hard,2,,,,,
,,,,,5f160514e2a4062d2a0ded58,001,27,male,british,A levels,2024-03-06_12h16.28.212,CRL1h,2023.2.3,Win32,60.24096386,65e67470ae2fbf2172c317b2,65e85e5f7f7d93ab53a62a7f,,,,,,,,,,,139.0861,1.1,140.1831,140.1832,140.7837,right,0,0.5966,,140.784,141.7815,2,0,32,9,1,total,1,images/Ex2.jpg,left,training,hard,2,,,,,
,,,,,5f160514e2a4062d2a0ded58,001,27,male,british,A levels,2024-03-06_12h16.28.212,CRL1h,2023.2.3,Win32,60.24096386,65e67470ae2fbf2172c317b2,65e85e5f7f7d93ab53a62a7f,,,,,,,,,,,141.7819,0.6,142.3809,142.381,143.1471,right,1,0.7623,,143.1471,144.1459,2,1,33,5,1,total,1,images/Ex6.jpg,right,training,hard,2,,,,,
,,,,,5f160514e2a4062d2a0ded58,001,27,male,british,A levels,2024-03-06_12h16.28.212,CRL1h,2023.2.3,Win32,60.24096386,65e67470ae2fbf2172c317b2,65e85e5f7f7d93ab53a62a7f,,,,,,,,,,,144.1472,1.4,145.5446,145.5447,146.4946,right,1,0.9456,,146.4946,147.4926,2,2,34,6,1,total,1,images/Ex7.jpg,right,training,hard,2,,,,,
,,,,,5f160514e2a4062d2a0ded58,001,27,male,british,A levels,2024-03-06_12h16.28.212,CRL1h,2023.2.3,Win32,60.24096386,65e67470ae2fbf2172c317b2,65e85e5f7f7d93ab53a62a7f,,,,,,,,,,,147.4941,1.2,148.6914,148.6915,149.3584,right,1,0.6628,,149.3585,150.3564,2,3,35,7,1,total,1,images/Ex8.jpg,right,training,hard,2,,,,,
,,,,,5f160514e2a4062d2a0ded58,001,27,male,british,A levels,2024-03-06_12h16.28.212,CRL1h,2023.2.3,Win32,60.24096386,65e67470ae2fbf2172c317b2,65e85e5f7f7d93ab53a62a7f,,,,,,,,,,,150.3572,1.4,151.755,151.7551,152.6715,right,0,0.9123,,152.6715,153.6697,2,4,36,2,1,total,1,images/Ex3.jpg,left,training,hard,2,,,,,
,,,,,5f160514e2a4062d2a0ded58,001,27,male,british,A levels,2024-03-06_12h16.28.212,CRL1h,2023.2.3,Win32,60.24096386,65e67470ae2fbf2172c317b2,65e85e5f7f7d93ab53a62a7f,,,,,,,,,,,153.6711,0.7,154.369,154.369,155.2518,left,1,0.8793,,155.2519,156.2503,2,5,37,10,1,total,1,images/Ex3.jpg,left,training,hard,2,,,,,
,,,,,5f160514e2a4062d2a0ded58,001,27,male,british,A levels,2024-03-06_12h16.28.212,CRL1h,2023.2.3,Win32,60.24096386,65e67470ae2fbf2172c317b2,65e85e5f7f7d93ab53a62a7f,,,,,,,,,,,156.2512,1.3,157.5493,157.5494,158.2826,left,1,0.7291,,158.2827,159.2807,2,6,38,11,1,total,1,images/Ex4.jpg,left,training,hard,2,,,,,
,,,,,5f160514e2a4062d2a0ded58,001,27,male,british,A levels,2024-03-06_12h16.28.212,CRL1h,2023.2.3,Win32,60.24096386,65e67470ae2fbf2172c317b2,65e85e5f7f7d93ab53a62a7f,,,,,,,,,,,159.2817,1.2,160.4794,160.4795,161.2795,left,1,0.7965,,161.2795,162.2777,2,7,39,8,1,total,1,images/Ex1.jpg,left,training,hard,2,,,,,
,,,,,5f160514e2a4062d2a0ded58,001,27,male,british,A levels,2024-03-06_12h16.28.212,CRL1h,2023.2.3,Win32,60.24096386,65e67470ae2fbf2172c317b2,65e85e5f7f7d93ab53a62a7f,,,,,,,,,,,162.279,0.9,163.1767,163.1768,164.0267,left,0,0.8445,,164.0267,165.025,2,8,40,15,1,total,1,images/Ex8.jpg,right,training,hard,2,,,,,
,,,,,5f160514e2a4062d2a0ded58,001,27,male,british,A levels,2024-03-06_12h16.28.212,CRL1h,2023.2.3,Win32,60.24096386,65e67470ae2fbf2172c317b2,65e85e5f7f7d93ab53a62a7f,,,,,,,,,,,165.026,0.5,165.5245,165.5246,166.1907,right,1,0.6598,,166.1907,167.1893,2,9,41,13,1,total,1,images/Ex6.jpg,right,training,hard,2,,,,,
,,,,,5f160514e2a4062d2a0ded58,001,27,male,british,A levels,2024-03-06_12h16.28.212,CRL1h,2023.2.3,Win32,60.24096386,65e67470ae2fbf2172c317b2,65e85e5f7f7d93ab53a62a7f,,,,,,,,,,,167.1903,1,168.1884,168.1885,169.0049,right,1,0.8102,,169.005,170.0032,2,10,42,4,1,total,1,images/Ex5.jpg,right,training,hard,2,,,,,
,,,,,5f160514e2a4062d2a0ded58,001,27,male,british,A levels,2024-03-06_12h16.28.212,CRL1h,2023.2.3,Win32,60.24096386,65e67470ae2fbf2172c317b2,65e85e5f7f7d93ab53a62a7f,,,,,,,,,,,170.0041,1.2,171.2021,171.2021,171.7854,right,0,0.5779,,171.7856,172.784,2,11,43,1,1,total,1,images/Ex2.jpg,left,training,hard,2,,,,,
,,,,,5f160514e2a4062d2a0ded58,001,27,male,british,A levels,2024-03-06_12h16.28.212,CRL1h,2023.2.3,Win32,60.24096386,65e67470ae2fbf2172c317b2,65e85e5f7f7d93ab53a62a7f,,,,,,,,,,,172.7855,1.4,174.1824,174.1825,174.683,right,0,0.4957,,174.683,175.6809,2,12,44,3,1,total,1,images/Ex4.jpg,left,training,hard,2,,,,,
,,,,,5f160514e2a4062d2a0ded58,001,27,male,british,A levels,2024-03-06_12h16.28.212,CRL1h,2023.2.3,Win32,60.24096386,65e67470ae2fbf2172c317b2,65e85e5f7f7d93ab53a62a7f,,,,,,,,,,,175.6816,1,176.6799,176.68,177.1963,right,0,0.5124,,177.1963,178.1951,2,13,45,0,1,total,1,images/Ex1.jpg,left,training,hard,2,,,,,
,,,,,5f160514e2a4062d2a0ded58,001,27,male,british,A levels,2024-03-06_12h16.28.212,CRL1h,2023.2.3,Win32,60.24096386,65e67470ae2fbf2172c317b2,65e85e5f7f7d93ab53a62a7f,,,,,,,,,,,178.1959,0.5,178.6945,178.6946,179.9106,right,1,1.2114,,179.9106,180.9089,2,14,46,12,1,total,1,images/Ex5.jpg,right,training,hard,2,,,,,
,,,,,5f160514e2a4062d2a0ded58,001,27,male,british,A levels,2024-03-06_12h16.28.212,CRL1h,2023.2.3,Win32,60.24096386,65e67470ae2fbf2172c317b2,65e85e5f7f7d93ab53a62a7f,,,,,,,,,,,180.9099,1.3,182.2078,182.2078,183.1741,right,1,0.9609,,183.1742,184.1724,2,15,47,14,1,total,1,images/Ex7.jpg,right,training,hard,2,,,,,
,,,,,5f160514e2a4062d2a0ded58,001,27,male,british,A levels,2024-03-06_12h16.28.212,CRL1h,2023.2.3,Win32,60.24096386,65e67470ae2fbf2172c317b2,65e85e5f7f7d93ab53a62a7f,,,,,,,,,,,184.1743,0.8,184.9717,184.9718,185.7378,left,1,0.7614,,185.7379,186.7365,3,0,48,9,1,total,1,images/Ex2.jpg,left,training,hard,2,,,,,
,,,,,5f160514e2a4062d2a0ded58,001,27,male,british,A levels,2024-03-06_12h16.28.212,CRL1h,2023.2.3,Win32,60.24096386,65e67470ae2fbf2172c317b2,65e85e5f7f7d93ab53a62a7f,,,,,,,,,,,186.738,0.8,187.5357,187.5358,188.1355,left,1,0.5962,,188.1356,189.1342,3,1,49,1,1,total,1,images/Ex2.jpg,left,training,hard,2,,,,,
,,,,,5f160514e2a4062d2a0ded58,001,27,male,british,A levels,2024-03-06_12h16.28.212,CRL1h,2023.2.3,Win32,60.24096386,65e67470ae2fbf2172c317b2,65e85e5f7f7d93ab53a62a7f,,,,,,,,,,,189.1353,1.4,190.5328,190.5328,191.6323,right,1,1.0932,,191.6323,192.6307,3,2,50,12,1,total,1,images/Ex5.jpg,right,training,hard,2,,,,,
,,,,,5f160514e2a4062d2a0ded58,001,27,male,british,A levels,2024-03-06_12h16.28.212,CRL1h,2023.2.3,Win32,60.24096386,65e67470ae2fbf2172c317b2,65e85e5f7f7d93ab53a62a7f,,,,,,,,,,,192.6319,0.8,193.4297,193.4297,194.0793,left,1,0.6438,,194.0794,195.0782,3,3,51,3,1,total,1,images/Ex4.jpg,left,training,hard,2,,,,,
,,,,,5f160514e2a4062d2a0ded58,001,27,male,british,A levels,2024-03-06_12h16.28.212,CRL1h,2023.2.3,Win32,60.24096386,65e67470ae2fbf2172c317b2,65e85e5f7f7d93ab53a62a7f,,,,,,,,,,,195.0788,1.4,196.4767,196.4767,197.0602,right,1,0.5784,,197.0602,198.0587,3,4,52,6,1,total,1,images/Ex7.jpg,right,training,hard,2,,,,,
,,,,,5f160514e2a4062d2a0ded58,001,27,male,british,A levels,2024-03-06_12h16.28.212,CRL1h,2023.2.3,Win32,60.24096386,65e67470ae2fbf2172c317b2,65e85e5f7f7d93ab53a62a7f,,,,,,,,,,,198.0601,1.5,199.557,199.557,200.307,right,1,0.7459,,200.307,201.3053,3,5,53,5,1,total,1,images/Ex6.jpg,right,training,hard,2,,,,,
,,,,,5f160514e2a4062d2a0ded58,001,27,male,british,A levels,2024-03-06_12h16.28.212,CRL1h,2023.2.3,Win32,60.24096386,65e67470ae2fbf2172c317b2,65e85e5f7f7d93ab53a62a7f,,,,,,,,,,,201.3065,0.7,202.0047,202.0047,202.8873,left,1,0.877,,202.8874,203.8861,3,6,54,0,1,total,1,images/Ex1.jpg,left,training,hard,2,,,,,
,,,,,5f160514e2a4062d2a0ded58,001,27,male,british,A levels,2024-03-06_12h16.28.212,CRL1h,2023.2.3,Win32,60.24096386,65e67470ae2fbf2172c317b2,65e85e5f7f7d93ab53a62a7f,,,,,,,,,,,203.8873,1.3,205.1854,205.1858,206.2257,left,1,1.0345,,206.226,207.2204,3,7,55,10,1,total,1,images/Ex3.jpg,left,training,hard,2,,,,,
,,,,,5f160514e2a4062d2a0ded58,001,27,male,british,A levels,2024-03-06_12h16.28.212,CRL1h,2023.2.3,Win32,60.24096386,65e67470ae2fbf2172c317b2,65e85e5f7f7d93ab53a62a7f,,,,,,,,,,,207.2223,1,208.2161,208.2165,208.8792,left,1,0.6566,,208.8793,209.88,3,8,56,8,1,total,1,images/Ex1.jpg,left,training,hard,2,,,,,
,,,,,5f160514e2a4062d2a0ded58,001,27,male,british,A levels,2024-03-06_12h16.28.212,CRL1h,2023.2.3,Win32,60.24096386,65e67470ae2fbf2172c317b2,65e85e5f7f7d93ab53a62a7f,,,,,,,,,,,209.8817,1,210.8788,210.8791,211.7174,right,1,0.8356,,211.7174,212.7078,3,9,57,15,1,total,1,images/Ex8.jpg,right,training,hard,2,,,,,
,,,,,5f160514e2a4062d2a0ded58,001,27,male,british,A levels,2024-03-06_12h16.28.212,CRL1h,2023.2.3,Win32,60.24096386,65e67470ae2fbf2172c317b2,65e85e5f7f7d93ab53a62a7f,,,,,,,,,,,212.7082,0.9,213.6059,213.606,214.2758,right,1,0.6679,,214.2758,215.279,3,10,58,13,1,total,1,images/Ex6.jpg,right,training,hard,2,,,,,
,,,,,5f160514e2a4062d2a0ded58,001,27,male,british,A levels,2024-03-06_12h16.28.212,CRL1h,2023.2.3,Win32,60.24096386,65e67470ae2fbf2172c317b2,65e85e5f7f7d93ab53a62a7f,,,,,,,,,,,215.2802,0.8,216.0755,216.0759,217.0058,left,1,0.9262,,217.0059,218.0175,3,11,59,11,1,total,1,images/Ex4.jpg,left,training,hard,2,,,,,
,,,,,5f160514e2a4062d2a0ded58,001,27,male,british,A levels,2024-03-06_12h16.28.212,CRL1h,2023.2.3,Win32,60.24096386,65e67470ae2fbf2172c317b2,65e85e5f7f7d93ab53a62a7f,,,,,,,,,,,218.018,0.7,218.7169,218.717,219.493,right,1,0.7726,,219.4933,220.4832,3,12,60,4,1,total,1,images/Ex5.jpg,right,training,hard,2,,,,,
,,,,,5f160514e2a4062d2a0ded58,001,27,male,british,A levels,2024-03-06_12h16.28.212,CRL1h,2023.2.3,Win32,60.24096386,65e67470ae2fbf2172c317b2,65e85e5f7f7d93ab53a62a7f,,,,,,,,,,,220.4837,1.1,221.5818,221.5818,222.5479,right,0,0.9647,,222.5479,223.5495,3,13,61,2,1,total,1,images/Ex3.jpg,left,training,hard,2,,,,,
,,,,,5f160514e2a4062d2a0ded58,001,27,male,british,A levels,2024-03-06_12h16.28.212,CRL1h,2023.2.3,Win32,60.24096386,65e67470ae2fbf2172c317b2,65e85e5f7f7d93ab53a62a7f,,,,,,,,,,,223.5501,0.7,224.2488,224.2489,224.945,right,1,0.6945,,224.9451,225.9471,3,14,62,14,1,total,1,images/Ex7.jpg,right,training,hard,2,,,,,
,,,,,5f160514e2a4062d2a0ded58,001,27,male,british,A levels,2024-03-06_12h16.28.212,CRL1h,2023.2.3,Win32,60.24096386,65e67470ae2fbf2172c317b2,65e85e5f7f7d93ab53a62a7f,,,,,,,,,,,225.9475,1,226.9462,226.9462,227.8622,right,1,0.9131,,227.8623,228.8622,3,15,63,7,1,total,1,images/Ex8.jpg,right,training,hard,2,,,,,
,,,,,5f160514e2a4062d2a0ded58,001,27,male,british,A levels,2024-03-06_12h16.28.212,CRL1h,2023.2.3,Win32,60.24096386,65e67470ae2fbf2172c317b2,65e85e5f7f7d93ab53a62a7f,,,,,,,,,,,228.8659,1.2,230.0618,230.0621,230.72,right,1,0.6524,,230.7201,231.7117,4,0,64,13,1,total,1,images/Ex6.jpg,right,training,hard,2,,,,,
,,,,,5f160514e2a4062d2a0ded58,001,27,male,british,A levels,2024-03-06_12h16.28.212,CRL1h,2023.2.3,Win32,60.24096386,65e67470ae2fbf2172c317b2,65e85e5f7f7d93ab53a62a7f,,,,,,,,,,,231.7139,1.1,232.8212,232.8212,233.6039,left,1,0.7816,,233.6039,234.6052,4,1,65,9,1,total,1,images/Ex2.jpg,left,training,hard,2,,,,,
,,,,,5f160514e2a4062d2a0ded58,001,27,male,british,A levels,2024-03-06_12h16.28.212,CRL1h,2023.2.3,Win32,60.24096386,65e67470ae2fbf2172c317b2,65e85e5f7f7d93ab53a62a7f,,,,,,,,,,,234.6056,0.5,235.1046,235.1047,235.7185,left,1,0.6125,,235.7185,236.7197,4,2,66,11,1,total,1,images/Ex4.jpg,left,training,hard,2,,,,,
,,,,,5f160514e2a4062d2a0ded58,001,27,male,british,A levels,2024-03-06_12h16.28.212,CRL1h,2023.2.3,Win32,60.24096386,65e67470ae2fbf2172c317b2,65e85e5f7f7d93ab53a62a7f,,,,,,,,,,,236.7203,1,237.7187,237.7188,238.5662,left,1,0.846,,238.5662,239.5571,4,3,67,10,1,total,1,images/Ex3.jpg,left,training,hard,2,,,,,
,,,,,5f160514e2a4062d2a0ded58,001,27,male,british,A levels,2024-03-06_12h16.28.212,CRL1h,2023.2.3,Win32,60.24096386,65e67470ae2fbf2172c317b2,65e85e5f7f7d93ab53a62a7f,,,,,,,,,,,239.5593,0.9,240.4529,240.4531,241.0802,left,1,0.6228,,241.0803,242.0718,4,4,68,3,1,total,1,images/Ex4.jpg,left,training,hard,2,,,,,
,,,,,5f160514e2a4062d2a0ded58,001,27,male,british,A levels,2024-03-06_12h16.28.212,CRL1h,2023.2.3,Win32,60.24096386,65e67470ae2fbf2172c317b2,65e85e5f7f7d93ab53a62a7f,,,,,,,,,,,242.0735,1.5,243.5747,243.5747,244.4067,right,1,0.8269,,244.4068,245.4016,4,5,69,7,1,total,1,images/Ex8.jpg,right,training,hard,2,,,,,
,,,,,5f160514e2a4062d2a0ded58,001,27,male,british,A levels,2024-03-06_12h16.28.212,CRL1h,2023.2.3,Win32,60.24096386,65e67470ae2fbf2172c317b2,65e85e5f7f7d93ab53a62a7f,,,,,,,,,,,245.4038,1.2,246.5982,246.5984,247.5866,right,1,0.9821,,247.5867,248.5746,4,6,70,4,1,total,1,images/Ex5.jpg,right,training,hard,2,,,,,
,,,,,5f160514e2a4062d2a0ded58,001,27,male,british,A levels,2024-03-06_12h16.28.212,CRL1h,2023.2.3,Win32,60.24096386,65e67470ae2fbf2172c317b2,65e85e5f7f7d93ab53a62a7f,,,,,,,,,,,248.5762,1.3,249.8736,249.8739,250.7902,right,1,0.9111,,250.7902,251.7882,4,7,71,6,1,total,1,images/Ex7.jpg,right,training,hard,2,,,,,
,,,,,5f160514e2a4062d2a0ded58,001,27,male,british,A levels,2024-03-06_12h16.28.212,CRL1h,2023.2.3,Win32,60.24096386,65e67470ae2fbf2172c317b2,65e85e5f7f7d93ab53a62a7f,,,,,,,,,,,251.7899,0.9,252.6871,252.6871,253.3905,right,1,0.6962,,253.3907,254.3855,4,8,72,14,1,total,1,images/Ex7.jpg,right,training,hard,2,,,,,
,,,,,5f160514e2a4062d2a0ded58,001,27,male,british,A levels,2024-03-06_12h16.28.212,CRL1h,2023.2.3,Win32,60.24096386,65e67470ae2fbf2172c317b2,65e85e5f7f7d93ab53a62a7f,,,,,,,,,,,254.3867,1.2,255.5861,255.5861,256.2326,right,0,0.643,,256.2326,257.2223,4,9,73,1,1,total,1,images/Ex2.jpg,left,training,hard,2,,,,,
,,,,,5f160514e2a4062d2a0ded58,001,27,male,british,A levels,2024-03-06_12h16.28.212,CRL1h,2023.2.3,Win32,60.24096386,65e67470ae2fbf2172c317b2,65e85e5f7f7d93ab53a62a7f,,,,,,,,,,,257.225,1.4,258.6162,258.6165,259.364,right,1,0.7415,,259.3641,260.3543,4,10,74,5,1,total,1,images/Ex6.jpg,right,training,hard,2,,,,,
,,,,,5f160514e2a4062d2a0ded58,001,27,male,british,A levels,2024-03-06_12h16.28.212,CRL1h,2023.2.3,Win32,60.24096386,65e67470ae2fbf2172c317b2,65e85e5f7f7d93ab53a62a7f,,,,,,,,,,,260.3566,1.3,261.6508,261.6509,262.3413,right,1,0.6855,,262.3416,263.3362,4,11,75,15,1,total,1,images/Ex8.jpg,right,training,hard,2,,,,,
,,,,,5f160514e2a4062d2a0ded58,001,27,male,british,A levels,2024-03-06_12h16.28.212,CRL1h,2023.2.3,Win32,60.24096386,65e67470ae2fbf2172c317b2,65e85e5f7f7d93ab53a62a7f,,,,,,,,,,,263.337,0.8,264.1353,264.1354,264.8718,left,1,0.7312,,264.8719,265.8712,4,12,76,0,1,total,1,images/Ex1.jpg,left,training,hard,2,,,,,
,,,,,5f160514e2a4062d2a0ded58,001,27,male,british,A levels,2024-03-06_12h16.28.212,CRL1h,2023.2.3,Win32,60.24096386,65e67470ae2fbf2172c317b2,65e85e5f7f7d93ab53a62a7f,,,,,,,,,,,265.8717,1,266.8695,266.8696,267.3682,left,1,0.4957,,267.3682,268.3712,4,13,77,8,1,total,1,images/Ex1.jpg,left,training,hard,2,,,,,
,,,,,5f160514e2a4062d2a0ded58,001,27,male,british,A levels,2024-03-06_12h16.28.212,CRL1h,2023.2.3,Win32,60.24096386,65e67470ae2fbf2172c317b2,65e85e5f7f7d93ab53a62a7f,,,,,,,,,,,268.3717,0.6,268.9707,268.9708,269.692,right,1,0.719,,269.692,270.682,4,14,78,12,1,total,1,images/Ex5.jpg,right,training,hard,2,,,,,
,,,,,5f160514e2a4062d2a0ded58,001,27,male,british,A levels,2024-03-06_12h16.28.212,CRL1h,2023.2.3,Win32,60.24096386,65e67470ae2fbf2172c317b2,65e85e5f7f7d93ab53a62a7f,,,,,,,,,,,270.6826,1.1,271.7798,271.7799,272.4948,right,0,0.7116,,272.4949,273.4829,4,15,79,2,1,total,1,images/Ex3.jpg,left,training,hard,2,,,,,
,,,,,5f160514e2a4062d2a0ded58,001,27,male,british,A levels,2024-03-06_12h16.28.212,CRL1h,2023.2.3,Win32,60.24096386,65e67470ae2fbf2172c317b2,65e85e5f7f7d93ab53a62a7f,,,,,,,,,,,273.4836,0.9,274.3821,274.3821,274.9705,left,1,0.5859,,274.9705,275.9608,5,0,80,10,1,total,1,images/Ex3.jpg,left,training,hard,2,,,,,
,,,,,5f160514e2a4062d2a0ded58,001,27,male,british,A levels,2024-03-06_12h16.28.212,CRL1h,2023.2.3,Win32,60.24096386,65e67470ae2fbf2172c317b2,65e85e5f7f7d93ab53a62a7f,,,,,,,,,,,275.9615,0.7,276.6653,276.6656,277.3247,right,1,0.654,,277.3248,278.3256,5,1,81,12,1,total,1,images/Ex5.jpg,right,training,hard,2,,,,,
,,,,,5f160514e2a4062d2a0ded58,001,27,male,british,A levels,2024-03-06_12h16.28.212,CRL1h,2023.2.3,Win32,60.24096386,65e67470ae2fbf2172c317b2,65e85e5f7f7d93ab53a62a7f,,,,,,,,,,,278.3263,0.7,279.0199,279.02,279.5907,right,1,0.5643,,279.5909,280.5948,5,2,82,15,1,total,1,images/Ex8.jpg,right,training,hard,2,,,,,
,,,,,5f160514e2a4062d2a0ded58,001,27,male,british,A levels,2024-03-06_12h16.28.212,CRL1h,2023.2.3,Win32,60.24096386,65e67470ae2fbf2172c317b2,65e85e5f7f7d93ab53a62a7f,,,,,,,,,,,280.5974,1.5,282.0976,282.0978,282.7814,left,1,0.6803,,282.7815,283.784,5,3,83,9,1,total,1,images/Ex2.jpg,left,training,hard,2,,,,,
,,,,,5f160514e2a4062d2a0ded58,001,27,male,british,A levels,2024-03-06_12h16.28.212,CRL1h,2023.2.3,Win32,60.24096386,65e67470ae2fbf2172c317b2,65e85e5f7f7d93ab53a62a7f,,,,,,,,,,,283.7844,1.1,284.8729,284.8731,285.4019,left,1,0.5252,,285.4019,286.4001,5,4,84,1,1,total,1,images/Ex2.jpg,left,training,hard,2,,,,,
,,,,,5f160514e2a4062d2a0ded58,001,27,male,british,A levels,2024-03-06_12h16.28.212,CRL1h,2023.2.3,Win32,60.24096386,65e67470ae2fbf2172c317b2,65e85e5f7f7d93ab53a62a7f,,,,,,,,,,,286.4007,1.4,287.7943,287.7945,288.346,right,1,0.5495,,288.346,289.3433,5,5,85,7,1,total,1,images/Ex8.jpg,right,training,hard,2,,,,,
,,,,,5f160514e2a4062d2a0ded58,001,27,male,british,A levels,2024-03-06_12h16.28.212,CRL1h,2023.2.3,Win32,60.24096386,65e67470ae2fbf2172c317b2,65e85e5f7f7d93ab53a62a7f,,,,,,,,,,,289.3455,1.2,290.5386,290.5388,291.214,left,1,0.673,,291.214,292.212,5,6,86,3,1,total,1,images/Ex4.jpg,left,training,hard,2,,,,,
,,,,,5f160514e2a4062d2a0ded58,001,27,male,british,A levels,2024-03-06_12h16.28.212,CRL1h,2023.2.3,Win32,60.24096386,65e67470ae2fbf2172c317b2,65e85e5f7f7d93ab53a62a7f,,,,,,,,,,,292.2125,0.6,292.8027,292.8028,293.6081,right,0,0.8004,,293.6082,294.6118,5,7,87,2,1,total,1,images/Ex3.jpg,left,training,hard,2,,,,,
,,,,,5f160514e2a4062d2a0ded58,001,27,male,british,A levels,2024-03-06_12h16.28.212,CRL1h,2023.2.3,Win32,60.24096386,65e67470ae2fbf2172c317b2,65e85e5f7f7d93ab53a62a7f,,,,,,,,,,,294.6124,0.5,295.1112,295.1113,295.8566,left,1,0.7412,,295.8566,296.8557,5,8,88,8,1,total,1,images/Ex1.jpg,left,training,hard,2,,,,,
,,,,,5f160514e2a4062d2a0ded58,001,27,male,british,A levels,2024-03-06_12h16.28.212,CRL1h,2023.2.3,Win32,60.24096386,65e67470ae2fbf2172c317b2,65e85e5f7f7d93ab53a62a7f,,,,,,,,,,,296.8562,1.2,298.0556,298.0557,298.7891,right,1,0.732,,298.7892,299.7798,5,9,89,4,1,total,1,images/Ex5.jpg,right,training,hard,2,,,,,
,,,,,5f160514e2a4062d2a0ded58,001,27,male,british,A levels,2024-03-06_12h16.28.212,CRL1h,2023.2.3,Win32,60.24096386,65e67470ae2fbf2172c317b2,65e85e5f7f7d93ab53a62a7f,,,,,,,,,,,299.7823,1.3,301.0846,301.0846,302.0345,right,1,0.9464,,302.0345,303.0342,5,10,90,14,1,total,1,images/Ex7.jpg,right,training,hard,2,,,,,
,,,,,5f160514e2a4062d2a0ded58,001,27,male,british,A levels,2024-03-06_12h16.28.212,CRL1h,2023.2.3,Win32,60.24096386,65e67470ae2fbf2172c317b2,65e85e5f7f7d93ab53a62a7f,,,,,,,,,,,303.0347,0.6,303.6325,303.6327,304.4973,left,1,0.8612,,304.4974,305.4977,5,11,91,11,1,total,1,images/Ex4.jpg,left,training,hard,2,,,,,
,,,,,5f160514e2a4062d2a0ded58,001,27,male,british,A levels,2024-03-06_12h16.28.212,CRL1h,2023.2.3,Win32,60.24096386,65e67470ae2fbf2172c317b2,65e85e5f7f7d93ab53a62a7f,,,,,,,,,,,305.4981,1.2,306.712,306.7121,307.4308,right,1,0.7172,,307.4309,308.4312,5,12,92,6,1,total,1,images/Ex7.jpg,right,training,hard,2,,,,,
,,,,,5f160514e2a4062d2a0ded58,001,27,male,british,A levels,2024-03-06_12h16.28.212,CRL1h,2023.2.3,Win32,60.24096386,65e67470ae2fbf2172c317b2,65e85e5f7f7d93ab53a62a7f,,,,,,,,,,,308.4318,1.2,309.63,309.63,310.2941,right,1,0.6623,,310.2941,311.295,5,13,93,5,1,total,1,images/Ex6.jpg,right,training,hard,2,,,,,
,,,,,5f160514e2a4062d2a0ded58,001,27,male,british,A levels,2024-03-06_12h16.28.212,CRL1h,2023.2.3,Win32,60.24096386,65e67470ae2fbf2172c317b2,65e85e5f7f7d93ab53a62a7f,,,,,,,,,,,311.2955,1.3,312.5937,312.5937,313.255,left,1,0.6581,,313.255,314.2587,5,14,94,0,1,total,1,images/Ex1.jpg,left,training,hard,2,,,,,
,,,,,5f160514e2a4062d2a0ded58,001,27,male,british,A levels,2024-03-06_12h16.28.212,CRL1h,2023.2.3,Win32,60.24096386,65e67470ae2fbf2172c317b2,65e85e5f7f7d93ab53a62a7f,,,,,,,,,,,314.2592,0.6,314.8581,314.8581,315.541,right,1,0.6771,,315.541,316.537,5,15,95,13,1,total,1,images/Ex6.jpg,right,training,hard,2,,,,,
,,,,,5f160514e2a4062d2a0ded58,001,27,male,british,A levels,2024-03-06_12h16.28.212,CRL1h,2023.2.3,Win32,60.24096386,65e67470ae2fbf2172c317b2,65e85e5f7f7d93ab53a62a7f,,,,,,,,,,,316.5374,1.2,317.728,317.7281,318.3365,right,1,0.6055,,318.3366,319.3345,6,0,96,6,1,total,1,images/Ex7.jpg,right,training,hard,2,,,,,
,,,,,5f160514e2a4062d2a0ded58,001,27,male,british,A levels,2024-03-06_12h16.28.212,CRL1h,2023.2.3,Win32,60.24096386,65e67470ae2fbf2172c317b2,65e85e5f7f7d93ab53a62a7f,,,,,,,,,,,319.3351,1.1,320.4321,320.4321,320.9161,right,1,0.4811,,320.9162,321.9115,6,1,97,14,1,total,1,images/Ex7.jpg,right,training,hard,2,,,,,
,,,,,5f160514e2a4062d2a0ded58,001,27,male,british,A levels,2024-03-06_12h16.28.212,CRL1h,2023.2.3,Win32,60.24096386,65e67470ae2fbf2172c317b2,65e85e5f7f7d93ab53a62a7f,,,,,,,,,,,321.912,1.4,323.3126,323.3127,323.8638,left,1,0.5499,,323.8639,324.8551,6,2,98,3,1,total,1,images/Ex4.jpg,left,training,hard,2,,,,,
,,,,,5f160514e2a4062d2a0ded58,001,27,male,british,A levels,2024-03-06_12h16.28.212,CRL1h,2023.2.3,Win32,60.24096386,65e67470ae2fbf2172c317b2,65e85e5f7f7d93ab53a62a7f,,,,,,,,,,,324.857,0.9,325.7606,325.7606,326.3917,right,1,0.6275,,326.3918,327.3855,6,3,99,4,1,total,1,images/Ex5.jpg,right,training,hard,2,,,,,
,,,,,5f160514e2a4062d2a0ded58,001,27,male,british,A levels,2024-03-06_12h16.28.212,CRL1h,2023.2.3,Win32,60.24096386,65e67470ae2fbf2172c317b2,65e85e5f7f7d93ab53a62a7f,,,,,,,,,,,327.3876,1.1,328.4908,328.4909,329.4717,right,1,0.9778,,329.4719,330.4723,6,4,100,12,1,total,1,images/Ex5.jpg,right,training,hard,2,,,,,
,,,,,5f160514e2a4062d2a0ded58,001,27,male,british,A levels,2024-03-06_12h16.28.212,CRL1h,2023.2.3,Win32,60.24096386,65e67470ae2fbf2172c317b2,65e85e5f7f7d93ab53a62a7f,,,,,,,,,,,330.4728,1.4,331.8708,331.8709,332.5353,left,1,0.6599,,332.5354,333.5358,6,5,101,1,1,total,1,images/Ex2.jpg,left,training,hard,2,,,,,
,,,,,5f160514e2a4062d2a0ded58,001,27,male,british,A levels,2024-03-06_12h16.28.212,CRL1h,2023.2.3,Win32,60.24096386,65e67470ae2fbf2172c317b2,65e85e5f7f7d93ab53a62a7f,,,,,,,,,,,333.5363,1.3,334.829,334.829,335.4498,right,1,0.6163,,335.4499,336.4531,6,6,102,7,1,total,1,images/Ex8.jpg,right,training,hard,2,,,,,
,,,,,5f160514e2a4062d2a0ded58,001,27,male,british,A levels,2024-03-06_12h16.28.212,CRL1h,2023.2.3,Win32,60.24096386,65e67470ae2fbf2172c317b2,65e85e5f7f7d93ab53a62a7f,,,,,,,,,,,336.4536,0.5,336.9526,336.9526,337.7354,left,1,0.7782,,337.7355,338.7292,6,7,103,10,1,total,1,images/Ex3.jpg,left,training,hard,2,,,,,
,,,,,5f160514e2a4062d2a0ded58,001,27,male,british,A levels,2024-03-06_12h16.28.212,CRL1h,2023.2.3,Win32,60.24096386,65e67470ae2fbf2172c317b2,65e85e5f7f7d93ab53a62a7f,,,,,,,,,,,338.7298,0.8,339.5218,339.5219,340.1472,left,1,0.6212,,340.1472,341.1366,6,8,104,8,1,total,1,images/Ex1.jpg,left,training,hard,2,,,,,
,,,,,5f160514e2a4062d2a0ded58,001,27,male,british,A levels,2024-03-06_12h16.28.212,CRL1h,2023.2.3,Win32,60.24096386,65e67470ae2fbf2172c317b2,65e85e5f7f7d93ab53a62a7f,,,,,,,,,,,341.1387,1.2,342.3355,342.3358,342.9943,right,1,0.6549,,342.9944,343.9923,6,9,105,5,1,total,1,images/Ex6.jpg,right,training,hard,2,,,,,
,,,,,5f160514e2a4062d2a0ded58,001,27,male,british,A levels,2024-03-06_12h16.28.212,CRL1h,2023.2.3,Win32,60.24096386,65e67470ae2fbf2172c317b2,65e85e5f7f7d93ab53a62a7f,,,,,,,,,,,343.9928,0.7,344.686,344.6862,345.3589,left,1,0.6688,,345.359,346.3528,6,10,106,11,1,total,1,images/Ex4.jpg,left,training,hard,2,,,,,
,,,,,5f160514e2a4062d2a0ded58,001,27,male,british,A levels,2024-03-06_12h16.28.212,CRL1h,2023.2.3,Win32,60.24096386,65e67470ae2fbf2172c317b2,65e85e5f7f7d93ab53a62a7f,,,,,,,,,,,346.3542,0.7,347.0486,347.0487,347.6568,right,0,0.606,,347.6569,348.6552,6,11,107,2,1,total,1,images/Ex3.jpg,left,training,hard,2,,,,,
,,,,,5f160514e2a4062d2a0ded58,001,27,male,british,A levels,2024-03-06_12h16.28.212,CRL1h,2023.2.3,Win32,60.24096386,65e67470ae2fbf2172c317b2,65e85e5f7f7d93ab53a62a7f,,,,,,,,,,,348.6556,1.4,350.0474,350.0475,350.5868,left,1,0.538,,350.5869,351.5861,6,12,108,0,1,total,1,images/Ex1.jpg,left,training,hard,2,,,,,
,,,,,5f160514e2a4062d2a0ded58,001,27,male,british,A levels,2024-03-06_12h16.28.212,CRL1h,2023.2.3,Win32,60.24096386,65e67470ae2fbf2172c317b2,65e85e5f7f7d93ab53a62a7f,,,,,,,,,,,351.5865,0.5,352.0799,352.0801,352.8519,right,1,0.7683,,352.852,353.8436,6,13,109,13,1,total,1,images/Ex6.jpg,right,training,hard,2,,,,,
,,,,,5f160514e2a4062d2a0ded58,001,27,male,british,A levels,2024-03-06_12h16.28.212,CRL1h,2023.2.3,Win32,60.24096386,65e67470ae2fbf2172c317b2,65e85e5f7f7d93ab53a62a7f,,,,,,,,,,,353.8459,0.8,354.6441,354.6443,355.1848,right,1,0.5322,,355.1848,356.1744,6,14,110,15,1,total,1,images/Ex8.jpg,right,training,hard,2,,,,,
,,,,,5f160514e2a4062d2a0ded58,001,27,male,british,A levels,2024-03-06_12h16.28.212,CRL1h,2023.2.3,Win32,60.24096386,65e67470ae2fbf2172c317b2,65e85e5f7f7d93ab53a62a7f,,,,,,,,,,,356.1765,0.8,356.9798,356.9798,357.578,left,1,0.5952,,357.578,358.5809,6,15,111,9,1,total,1,images/Ex2.jpg,left,training,hard,2,,,,,
,,,,,5f160514e2a4062d2a0ded58,001,27,male,british,A levels,2024-03-06_12h16.28.212,CRL1h,2023.2.3,Win32,60.24096386,65e67470ae2fbf2172c317b2,65e85e5f7f7d93ab53a62a7f,,,,,,,,,,,358.5814,1.1,359.6798,359.6799,360.1597,right,1,0.4765,,360.1598,361.1543,7,0,112,6,1,total,1,images/Ex7.jpg,right,training,hard,2,,,,,
,,,,,5f160514e2a4062d2a0ded58,001,27,male,british,A levels,2024-03-06_12h16.28.212,CRL1h,2023.2.3,Win32,60.24096386,65e67470ae2fbf2172c317b2,65e85e5f7f7d93ab53a62a7f,,,,,,,,,,,361.1557,1.2,362.3575,362.3575,362.908,left,1,0.5493,,362.9081,363.906,7,1,113,3,1,total,1,images/Ex4.jpg,left,training,hard,2,,,,,
,,,,,5f160514e2a4062d2a0ded58,001,27,male,british,A levels,2024-03-06_12h16.28.212,CRL1h,2023.2.3,Win32,60.24096386,65e67470ae2fbf2172c317b2,65e85e5f7f7d93ab53a62a7f,,,,,,,,,,,363.9066,0.9,364.8097,364.8099,365.3384,left,1,0.5239,,365.3384,366.3364,7,2,114,11,1,total,1,images/Ex4.jpg,left,training,hard,2,,,,,
,,,,,5f160514e2a4062d2a0ded58,001,27,male,british,A levels,2024-03-06_12h16.28.212,CRL1h,2023.2.3,Win32,60.24096386,65e67470ae2fbf2172c317b2,65e85e5f7f7d93ab53a62a7f,,,,,,,,,,,366.337,0.5,366.832,366.8321,367.4389,right,1,0.6014,,367.439,368.4271,7,3,115,14,1,total,1,images/Ex7.jpg,right,training,hard,2,,,,,
,,,,,5f160514e2a4062d2a0ded58,001,27,male,british,A levels,2024-03-06_12h16.28.212,CRL1h,2023.2.3,Win32,60.24096386,65e67470ae2fbf2172c317b2,65e85e5f7f7d93ab53a62a7f,,,,,,,,,,,368.4292,1.4,369.8338,369.8339,370.6328,left,1,0.7976,,370.6328,371.6304,7,4,116,10,1,total,1,images/Ex3.jpg,left,training,hard,2,,,,,
,,,,,5f160514e2a4062d2a0ded58,001,27,male,british,A levels,2024-03-06_12h16.28.212,CRL1h,2023.2.3,Win32,60.24096386,65e67470ae2fbf2172c317b2,65e85e5f7f7d93ab53a62a7f,,,,,,,,,,,371.631,1,372.6271,372.6272,373.2976,left,1,0.6681,,373.2977,374.2901,7,5,117,2,1,total,1,images/Ex3.jpg,left,training,hard,2,,,,,
,,,,,5f160514e2a4062d2a0ded58,001,27,male,british,A levels,2024-03-06_12h16.28.212,CRL1h,2023.2.3,Win32,60.24096386,65e67470ae2fbf2172c317b2,65e85e5f7f7d93ab53a62a7f,,,,,,,,,,,374.2922,1.3,375.5856,375.5859,376.2282,right,1,0.6385,,376.2282,377.2227,7,6,118,7,1,total,1,images/Ex8.jpg,right,training,hard,2,,,,,
,,,,,5f160514e2a4062d2a0ded58,001,27,male,british,A levels,2024-03-06_12h16.28.212,CRL1h,2023.2.3,Win32,60.24096386,65e67470ae2fbf2172c317b2,65e85e5f7f7d93ab53a62a7f,,,,,,,,,,,377.2246,1.1,378.318,378.3181,378.8759,right,1,0.5559,,378.8759,379.8686,7,7,119,15,1,total,1,images/Ex8.jpg,right,training,hard,2,,,,,
,,,,,5f160514e2a4062d2a0ded58,001,27,male,british,A levels,2024-03-06_12h16.28.212,CRL1h,2023.2.3,Win32,60.24096386,65e67470ae2fbf2172c317b2,65e85e5f7f7d93ab53a62a7f,,,,,,,,,,,379.8701,1.2,381.0682,381.0683,381.74,right,1,0.6683,,381.74,382.732,7,8,120,5,1,total,1,images/Ex6.jpg,right,training,hard,2,,,,,
,,,,,5f160514e2a4062d2a0ded58,001,27,male,british,A levels,2024-03-06_12h16.28.212,CRL1h,2023.2.3,Win32,60.24096386,65e67470ae2fbf2172c317b2,65e85e5f7f7d93ab53a62a7f,,,,,,,,,,,382.7345,1.3,384.0356,384.0356,384.8685,right,1,0.8297,,384.8687,385.8715,7,9,121,13,1,total,1,images/Ex6.jpg,right,training,hard,2,,,,,
,,,,,5f160514e2a4062d2a0ded58,001,27,male,british,A levels,2024-03-06_12h16.28.212,CRL1h,2023.2.3,Win32,60.24096386,65e67470ae2fbf2172c317b2,65e85e5f7f7d93ab53a62a7f,,,,,,,,,,,385.8743,1.4,387.2821,387.2822,387.9983,left,1,0.7149,,387.9983,389.0004,7,10,122,1,1,total,1,images/Ex2.jpg,left,training,hard,2,,,,,
,,,,,5f160514e2a4062d2a0ded58,001,27,male,british,A levels,2024-03-06_12h16.28.212,CRL1h,2023.2.3,Win32,60.24096386,65e67470ae2fbf2172c317b2,65e85e5f7f7d93ab53a62a7f,,,,,,,,,,,389.001,0.5,389.4999,389.5,390.0971,left,1,0.5956,,390.0971,391.0956,7,11,123,0,1,total,1,images/Ex1.jpg,left,training,hard,2,,,,,
,,,,,5f160514e2a4062d2a0ded58,001,27,male,british,A levels,2024-03-06_12h16.28.212,CRL1h,2023.2.3,Win32,60.24096386,65e67470ae2fbf2172c317b2,65e85e5f7f7d93ab53a62a7f,,,,,,,,,,,391.0961,1.3,392.3877,392.3878,393.028,left,1,0.636,,393.028,394.0185,7,12,124,9,1,total,1,images/Ex2.jpg,left,training,hard,2,,,,,
,,,,,5f160514e2a4062d2a0ded58,001,27,male,british,A levels,2024-03-06_12h16.28.212,CRL1h,2023.2.3,Win32,60.24096386,65e67470ae2fbf2172c317b2,65e85e5f7f7d93ab53a62a7f,,,,,,,,,,,394.0205,1.3,395.3243,395.3243,395.8589,left,1,0.5326,,395.8589,396.8491,7,13,125,8,1,total,1,images/Ex1.jpg,left,training,hard,2,,,,,
,,,,,5f160514e2a4062d2a0ded58,001,27,male,british,A levels,2024-03-06_12h16.28.212,CRL1h,2023.2.3,Win32,60.24096386,65e67470ae2fbf2172c317b2,65e85e5f7f7d93ab53a62a7f,,,,,,,,,,,396.8516,1.3,398.1484,398.1486,398.6251,left,0,0.4714,,398.6251,399.6234,7,14,126,12,1,total,1,images/Ex5.jpg,right,training,hard,2,,,,,
,,,,,5f160514e2a4062d2a0ded58,001,27,male,british,A levels,2024-03-06_12h16.28.212,CRL1h,2023.2.3,Win32,60.24096386,65e67470ae2fbf2172c317b2,65e85e5f7f7d93ab53a62a7f,,,,,,,,,,,399.6247,0.5,400.1228,400.1228,400.589,right,1,0.4636,,400.5891,401.5877,7,15,127,4,1,total,1,images/Ex5.jpg,right,training,hard,2,,,,,
,,,,,5f160514e2a4062d2a0ded58,001,27,male,british,A levels,2024-03-06_12h16.28.212,CRL1h,2023.2.3,Win32,60.24096386,65e67470ae2fbf2172c317b2,65e85e5f7f7d93ab53a62a7f,,,,,,,,,,,401.6028,1.2,402.7914,402.7917,403.4486,right,0,0.6515,,403.4487,404.4516,0,0,0,13,1,total,2,images/Ex6.jpg,left,reversed,hard,2,,,,,
,,,,,5f160514e2a4062d2a0ded58,001,27,male,british,A levels,2024-03-06_12h16.28.212,CRL1h,2023.2.3,Win32,60.24096386,65e67470ae2fbf2172c317b2,65e85e5f7f7d93ab53a62a7f,,,,,,,,,,,404.4523,0.8,405.2508,405.2508,405.8318,right,0,0.5797,,405.8318,406.8326,0,1,1,4,1,total,2,images/Ex5.jpg,left,reversed,hard,2,,,,,
,,,,,5f160514e2a4062d2a0ded58,001,27,male,british,A levels,2024-03-06_12h16.28.212,CRL1h,2023.2.3,Win32,60.24096386,65e67470ae2fbf2172c317b2,65e85e5f7f7d93ab53a62a7f,,,,,,,,,,,406.8333,1.4,408.2311,408.2313,409.1606,right,1,0.9278,,409.1606,410.1532,0,2,2,1,1,total,2,images/Ex2.jpg,right,reversed,hard,2,,,,,
,,,,,5f160514e2a4062d2a0ded58,001,27,male,british,A levels,2024-03-06_12h16.28.212,CRL1h,2023.2.3,Win32,60.24096386,65e67470ae2fbf2172c317b2,65e85e5f7f7d93ab53a62a7f,,,,,,,,,,,410.1561,1.4,411.5492,411.5495,412.4751,right,1,0.9222,,412.4751,413.4726,0,3,3,3,1,total,2,images/Ex4.jpg,right,reversed,hard,2,,,,,
,,,,,5f160514e2a4062d2a0ded58,001,27,male,british,A levels,2024-03-06_12h16.28.212,CRL1h,2023.2.3,Win32,60.24096386,65e67470ae2fbf2172c317b2,65e85e5f7f7d93ab53a62a7f,,,,,,,,,,,413.4732,0.6,414.0671,414.0673,414.8894,left,1,0.8182,,414.8895,415.8871,0,4,4,15,1,total,2,images/Ex8.jpg,left,reversed,hard,2,,,,,
,,,,,5f160514e2a4062d2a0ded58,001,27,male,british,A levels,2024-03-06_12h16.28.212,CRL1h,2023.2.3,Win32,60.24096386,65e67470ae2fbf2172c317b2,65e85e5f7f7d93ab53a62a7f,,,,,,,,,,,415.8877,0.7,416.5773,416.5775,417.2869,right,1,0.7056,,417.287,418.2786,0,5,5,11,1,total,2,images/Ex4.jpg,right,reversed,hard,2,,,,,
,,,,,5f160514e2a4062d2a0ded58,001,27,male,british,A levels,2024-03-06_12h16.28.212,CRL1h,2023.2.3,Win32,60.24096386,65e67470ae2fbf2172c317b2,65e85e5f7f7d93ab53a62a7f,,,,,,,,,,,418.2808,0.6,418.8777,418.8778,419.6655,left,1,0.7832,,419.6656,420.6603,0,6,6,14,1,total,2,images/Ex7.jpg,left,reversed,hard,2,,,,,
,,,,,5f160514e2a4062d2a0ded58,001,27,male,british,A levels,2024-03-06_12h16.28.212,CRL1h,2023.2.3,Win32,60.24096386,65e67470ae2fbf2172c317b2,65e85e5f7f7d93ab53a62a7f,,,,,,,,,,,420.6624,0.9,421.5564,421.5567,422.3139,left,0,0.7529,,422.314,423.3128,0,7,7,10,1,total,2,images/Ex3.jpg,right,reversed,hard,2,,,,,
,,,,,5f160514e2a4062d2a0ded58,001,27,male,british,A levels,2024-03-06_12h16.28.212,CRL1h,2023.2.3,Win32,60.24096386,65e67470ae2fbf2172c317b2,65e85e5f7f7d93ab53a62a7f,,,,,,,,,,,423.3133,1.4,424.712,424.7121,425.7292,right,1,1.0157,,425.7293,426.7201,0,8,8,9,1,total,2,images/Ex2.jpg,right,reversed,hard,2,,,,,
,,,,,5f160514e2a4062d2a0ded58,001,27,male,british,A levels,2024-03-06_12h16.28.212,CRL1h,2023.2.3,Win32,60.24096386,65e67470ae2fbf2172c317b2,65e85e5f7f7d93ab53a62a7f,,,,,,,,,,,426.7223,1.1,427.8161,427.8163,428.4569,right,1,0.6366,,428.457,429.4567,0,9,9,8,1,total,2,images/Ex1.jpg,right,reversed,hard,2,,,,,
,,,,,5f160514e2a4062d2a0ded58,001,27,male,british,A levels,2024-03-06_12h16.28.212,CRL1h,2023.2.3,Win32,60.24096386,65e67470ae2fbf2172c317b2,65e85e5f7f7d93ab53a62a7f,,,,,,,,,,,429.4573,0.7,430.1512,430.1514,431.723,left,1,1.5682,,431.723,432.7204,0,10,10,12,1,total,2,images/Ex5.jpg,left,reversed,hard,2,,,,,
,,,,,5f160514e2a4062d2a0ded58,001,27,male,british,A levels,2024-03-06_12h16.28.212,CRL1h,2023.2.3,Win32,60.24096386,65e67470ae2fbf2172c317b2,65e85e5f7f7d93ab53a62a7f,,,,,,,,,,,432.7208,0.8,433.5137,433.5139,434.5369,right,1,1.0193,,434.5369,435.5324,0,11,11,2,1,total,2,images/Ex3.jpg,right,reversed,hard,2,,,,,
,,,,,5f160514e2a4062d2a0ded58,001,27,male,british,A levels,2024-03-06_12h16.28.212,CRL1h,2023.2.3,Win32,60.24096386,65e67470ae2fbf2172c317b2,65e85e5f7f7d93ab53a62a7f,,,,,,,,,,,435.533,1.5,437.0263,437.0267,437.7661,left,1,0.7374,,437.7661,438.7673,0,12,12,7,1,total,2,images/Ex8.jpg,left,reversed,hard,2,,,,,
,,,,,5f160514e2a4062d2a0ded58,001,27,male,british,A levels,2024-03-06_12h16.28.212,CRL1h,2023.2.3,Win32,60.24096386,65e67470ae2fbf2172c317b2,65e85e5f7f7d93ab53a62a7f,,,,,,,,,,,438.7678,1.4,440.1658,440.1659,440.8094,right,1,0.64,,440.8095,441.8094,0,13,13,0,1,total,2,images/Ex1.jpg,right,reversed,hard,2,,,,,
,,,,,5f160514e2a4062d2a0ded58,001,27,male,british,A levels,2024-03-06_12h16.28.212,CRL1h,2023.2.3,Win32,60.24096386,65e67470ae2fbf2172c317b2,65e85e5f7f7d93ab53a62a7f,,,,,,,,,,,441.8099,1.1,442.9148,442.9151,443.6926,left,1,0.7738,,443.6927,444.6946,0,14,14,5,1,total,2,images/Ex6.jpg,left,reversed,hard,2,,,,,
,,,,,5f160514e2a4062d2a0ded58,001,27,male,british,A levels,2024-03-06_12h16.28.212,CRL1h,2023.2.3,Win32,60.24096386,65e67470ae2fbf2172c317b2,65e85e5f7f7d93ab53a62a7f,,,,,,,,,,,444.6952,0.7,445.3939,445.3939,446.0936,left,1,0.6954,,446.0937,447.0921,0,15,15,6,1,total,2,images/Ex7.jpg,left,reversed,hard,2,,,,,
,,,,,5f160514e2a4062d2a0ded58,001,27,male,british,A levels,2024-03-06_12h16.28.212,CRL1h,2023.2.3,Win32,60.24096386,65e67470ae2fbf2172c317b2,65e85e5f7f7d93ab53a62a7f,,,,,,,,,,,447.0925,1,448.0912,448.0912,449.0573,left,0,0.9593,,449.0574,450.0559,1,0,16,3,1,total,2,images/Ex4.jpg,right,reversed,hard,2,,,,,
,,,,,5f160514e2a4062d2a0ded58,001,27,male,british,A levels,2024-03-06_12h16.28.212,CRL1h,2023.2.3,Win32,60.24096386,65e67470ae2fbf2172c317b2,65e85e5f7f7d93ab53a62a7f,,,,,,,,,,,450.0564,1,451.0549,451.055,451.701,left,1,0.6448,,451.701,452.6928,1,1,17,4,1,total,2,images/Ex5.jpg,left,reversed,hard,2,,,,,
,,,,,5f160514e2a4062d2a0ded58,001,27,male,british,A levels,2024-03-06_12h16.28.212,CRL1h,2023.2.3,Win32,60.24096386,65e67470ae2fbf2172c317b2,65e85e5f7f7d93ab53a62a7f,,,,,,,,,,,452.6956,1.3,453.9915,453.9916,454.6983,right,1,0.7055,,454.6984,455.7001,1,2,18,0,1,total,2,images/Ex1.jpg,right,reversed,hard,2,,,,,
,,,,,5f160514e2a4062d2a0ded58,001,27,male,british,A levels,2024-03-06_12h16.28.212,CRL1h,2023.2.3,Win32,60.24096386,65e67470ae2fbf2172c317b2,65e85e5f7f7d93ab53a62a7f,,,,,,,,,,,455.7007,1.4,457.0988,457.099,457.6072,right,1,0.5051,,457.6073,458.6044,1,3,19,11,1,total,2,images/Ex4.jpg,right,reversed,hard,2,,,,,
,,,,,5f160514e2a4062d2a0ded58,001,27,male,british,A levels,2024-03-06_12h16.28.212,CRL1h,2023.2.3,Win32,60.24096386,65e67470ae2fbf2172c317b2,65e85e5f7f7d93ab53a62a7f,,,,,,,,,,,458.6072,0.5,459.1093,459.1093,459.6465,right,0,0.5339,,459.6467,460.6453,1,4,20,12,1,total,2,images/Ex5.jpg,left,reversed,hard,2,,,,,
,,,,,5f160514e2a4062d2a0ded58,001,27,male,british,A levels,2024-03-06_12h16.28.212,CRL1h,2023.2.3,Win32,60.24096386,65e67470ae2fbf2172c317b2,65e85e5f7f7d93ab53a62a7f,,,,,,,,,,,460.6459,1.5,462.144,462.144,462.8767,left,1,0.7262,,462.8768,463.8755,1,5,21,5,1,total,2,images/Ex6.jpg,left,reversed,hard,2,,,,,
,,,,,5f160514e2a4062d2a0ded58,001,27,male,british,A levels,2024-03-06_12h16.28.212,CRL1h,2023.2.3,Win32,60.24096386,65e67470ae2fbf2172c317b2,65e85e5f7f7d93ab53a62a7f,,,,,,,,,,,463.876,0.9,464.7745,464.7746,465.6243,left,1,0.8429,,465.6244,466.619,1,6,22,7,1,total,2,images/Ex8.jpg,left,reversed,hard,2,,,,,
,,,,,5f160514e2a4062d2a0ded58,001,27,male,british,A levels,2024-03-06_12h16.28.212,CRL1h,2023.2.3,Win32,60.24096386,65e67470ae2fbf2172c317b2,65e85e5f7f7d93ab53a62a7f,,,,,,,,,,,466.6195,1.4,468.0174,468.0174,468.8042,right,1,0.7804,,468.8043,469.8048,1,7,23,1,1,total,2,images/Ex2.jpg,right,reversed,hard,2,,,,,
,,,,,5f160514e2a4062d2a0ded58,001,27,male,british,A levels,2024-03-06_12h16.28.212,CRL1h,2023.2.3,Win32,60.24096386,65e67470ae2fbf2172c317b2,65e85e5f7f7d93ab53a62a7f,,,,,,,,,,,469.8072,0.5,470.3041,470.3043,471.0445,left,0,0.7362,,471.0445,472.034,1,8,24,10,1,total,2,images/Ex3.jpg,right,reversed,hard,2,,,,,
,,,,,5f160514e2a4062d2a0ded58,001,27,male,british,A levels,2024-03-06_12h16.28.212,CRL1h,2023.2.3,Win32,60.24096386,65e67470ae2fbf2172c317b2,65e85e5f7f7d93ab53a62a7f,,,,,,,,,,,472.0346,1.2,473.2326,473.2327,474.0459,left,1,0.8114,,474.0459,475.0475,1,9,25,15,1,total,2,images/Ex8.jpg,left,reversed,hard,2,,,,,
,,,,,5f160514e2a4062d2a0ded58,001,27,male,british,A levels,2024-03-06_12h16.28.212,CRL1h,2023.2.3,Win32,60.24096386,65e67470ae2fbf2172c317b2,65e85e5f7f7d93ab53a62a7f,,,,,,,,,,,475.048,0.8,475.8467,475.8467,476.5771,right,0,0.7291,,476.5771,477.5783,1,10,26,13,1,total,2,images/Ex6.jpg,left,reversed,hard,2,,,,,
,,,,,5f160514e2a4062d2a0ded58,001,27,male,british,A levels,2024-03-06_12h16.28.212,CRL1h,2023.2.3,Win32,60.24096386,65e67470ae2fbf2172c317b2,65e85e5f7f7d93ab53a62a7f,,,,,,,,,,,477.5789,0.9,478.4775,478.4776,479.6043,right,1,1.1231,,479.6044,480.6064,1,11,27,2,1,total,2,images/Ex3.jpg,right,reversed,hard,2,,,,,
,,,,,5f160514e2a4062d2a0ded58,001,27,male,british,A levels,2024-03-06_12h16.28.212,CRL1h,2023.2.3,Win32,60.24096386,65e67470ae2fbf2172c317b2,65e85e5f7f7d93ab53a62a7f,,,,,,,,,,,480.6071,1.2,481.7967,481.7969,482.5825,right,1,0.7807,,482.5827,483.5864,1,12,28,9,1,total,2,images/Ex2.jpg,right,reversed,hard,2,,,,,
,,,,,5f160514e2a4062d2a0ded58,001,27,male,british,A levels,2024-03-06_12h16.28.212,CRL1h,2023.2.3,Win32,60.24096386,65e67470ae2fbf2172c317b2,65e85e5f7f7d93ab53a62a7f,,,,,,,,,,,483.5867,1.2,484.7889,484.7892,485.8821,left,1,1.0872,,485.8822,486.8856,1,13,29,14,1,total,2,images/Ex7.jpg,left,reversed,hard,2,,,,,
,,,,,5f160514e2a4062d2a0ded58,001,27,male,british,A levels,2024-03-06_12h16.28.212,CRL1h,2023.2.3,Win32,60.24096386,65e67470ae2fbf2172c317b2,65e85e5f7f7d93ab53a62a7f,,,,,,,,,,,486.8863,1.3,488.1844,488.1845,489.4499,left,1,1.26,,489.45,490.4391,1,14,30,6,1,total,2,images/Ex7.jpg,left,reversed,hard,2,,,,,
,,,,,5f160514e2a4062d2a0ded58,001,27,male,british,A levels,2024-03-06_12h16.28.212,CRL1h,2023.2.3,Win32,60.24096386,65e67470ae2fbf2172c317b2,65e85e5f7f7d93ab53a62a7f,,,,,,,,,,,490.4408,0.8,491.2371,491.2372,491.9494,right,1,0.7045,,491.9497,492.9464,1,15,31,8,1,total,2,images/Ex1.jpg,right,reversed,hard,2,,,,,
,,,,,5f160514e2a4062d2a0ded58,001,27,male,british,A levels,2024-03-06_12h16.28.212,CRL1h,2023.2.3,Win32,60.24096386,65e67470ae2fbf2172c317b2,65e85e5f7f7d93ab53a62a7f,,,,,,,,,,,492.9471,0.6,493.5457,493.5458,494.3287,left,1,0.7789,,494.3288,495.3273,2,0,32,13,1,total,2,images/Ex6.jpg,left,reversed,hard,2,,,,,
,,,,,5f160514e2a4062d2a0ded58,001,27,male,british,A levels,2024-03-06_12h16.28.212,CRL1h,2023.2.3,Win32,60.24096386,65e67470ae2fbf2172c317b2,65e85e5f7f7d93ab53a62a7f,,,,,,,,,,,495.3287,0.9,496.2264,496.2264,497.3427,right,1,1.112,,497.3427,498.3411,2,1,33,2,1,total,2,images/Ex3.jpg,right,reversed,hard,2,,,,,
,,,,,5f160514e2a4062d2a0ded58,001,27,male,british,A levels,2024-03-06_12h16.28.212,CRL1h,2023.2.3,Win32,60.24096386,65e67470ae2fbf2172c317b2,65e85e5f7f7d93ab53a62a7f,,,,,,,,,,,498.343,1.5,499.8394,499.8394,500.623,right,1,0.7781,,500.623,501.621,2,2,34,9,1,total,2,images/Ex2.jpg,right,reversed,hard,2,,,,,
,,,,,5f160514e2a4062d2a0ded58,001,27,male,british,A levels,2024-03-06_12h16.28.212,CRL1h,2023.2.3,Win32,60.24096386,65e67470ae2fbf2172c317b2,65e85e5f7f7d93ab53a62a7f,,,,,,,,,,,501.6223,1.4,503.0195,503.0195,503.6696,right,1,0.6451,,503.6697,504.6679,2,3,35,3,1,total,2,images/Ex4.jpg,right,reversed,hard,2,,,,,
,,,,,5f160514e2a4062d2a0ded58,001,27,male,british,A levels,2024-03-06_12h16.28.212,CRL1h,2023.2.3,Win32,60.24096386,65e67470ae2fbf2172c317b2,65e85e5f7f7d93ab53a62a7f,,,,,,,,,,,504.6689,1.1,505.7668,505.7669,506.7173,left,1,0.9472,,506.7174,507.7149,2,4,36,5,1,total,2,images/Ex6.jpg,left,reversed,hard,2,,,,,
,,,,,5f160514e2a4062d2a0ded58,001,27,male,british,A levels,2024-03-06_12h16.28.212,CRL1h,2023.2.3,Win32,60.24096386,65e67470ae2fbf2172c317b2,65e85e5f7f7d93ab53a62a7f,,,,,,,,,,,507.7164,1.4,509.1135,509.1135,509.8137,right,1,0.6948,,509.8138,510.8118,2,5,37,1,1,total,2,images/Ex2.jpg,right,reversed,hard,2,,,,,
,,,,,5f160514e2a4062d2a0ded58,001,27,male,british,A levels,2024-03-06_12h16.28.212,CRL1h,2023.2.3,Win32,60.24096386,65e67470ae2fbf2172c317b2,65e85e5f7f7d93ab53a62a7f,,,,,,,,,,,510.813,1,511.8107,511.8107,512.4807,left,1,0.665,,512.4809,513.4758,2,6,38,14,1,total,2,images/Ex7.jpg,left,reversed,hard,2,,,,,
,,,,,5f160514e2a4062d2a0ded58,001,27,male,british,A levels,2024-03-06_12h16.28.212,CRL1h,2023.2.3,Win32,60.24096386,65e67470ae2fbf2172c317b2,65e85e5f7f7d93ab53a62a7f,,,,,,,,,,,513.4772,0.6,514.0751,514.0753,514.976,left,1,0.895,,514.9762,515.9732,2,7,39,12,1,total,2,images/Ex5.jpg,left,reversed,hard,2,,,,,
,,,,,5f160514e2a4062d2a0ded58,001,27,male,british,A levels,2024-03-06_12h16.28.212,CRL1h,2023.2.3,Win32,60.24096386,65e67470ae2fbf2172c317b2,65e85e5f7f7d93ab53a62a7f,,,,,,,,,,,515.9741,0.8,516.7725,516.7727,517.5054,left,1,0.7268,,517.5054,518.5042,2,8,40,15,1,total,2,images/Ex8.jpg,left,reversed,hard,2,,,,,
,,,,,5f160514e2a4062d2a0ded58,001,27,male,british,A levels,2024-03-06_12h16.28.212,CRL1h,2023.2.3,Win32,60.24096386,65e67470ae2fbf2172c317b2,65e85e5f7f7d93ab53a62a7f,,,,,,,,,,,518.5059,0.7,519.2034,519.2034,519.9363,right,1,0.7272,,519.9363,520.935,2,9,41,0,1,total,2,images/Ex1.jpg,right,reversed,hard,2,,,,,
,,,,,5f160514e2a4062d2a0ded58,001,27,male,british,A levels,2024-03-06_12h16.28.212,CRL1h,2023.2.3,Win32,60.24096386,65e67470ae2fbf2172c317b2,65e85e5f7f7d93ab53a62a7f,,,,,,,,,,,520.936,0.7,521.6344,521.6344,522.2672,left,1,0.6284,,522.2673,523.2659,2,10,42,7,1,total,2,images/Ex8.jpg,left,reversed,hard,2,,,,,
,,,,,5f160514e2a4062d2a0ded58,001,27,male,british,A levels,2024-03-06_12h16.28.212,CRL1h,2023.2.3,Win32,60.24096386,65e67470ae2fbf2172c317b2,65e85e5f7f7d93ab53a62a7f,,,,,,,,,,,523.2671,0.9,524.1651,524.1652,524.8147,left,1,0.6454,,524.8147,525.8134,2,11,43,6,1,total,2,images/Ex7.jpg,left,reversed,hard,2,,,,,
,,,,,5f160514e2a4062d2a0ded58,001,27,male,british,A levels,2024-03-06_12h16.28.212,CRL1h,2023.2.3,Win32,60.24096386,65e67470ae2fbf2172c317b2,65e85e5f7f7d93ab53a62a7f,,,,,,,,,,,525.8149,0.7,526.5128,526.5128,527.3288,left,1,0.8107,,527.3288,528.3276,2,12,44,4,1,total,2,images/Ex5.jpg,left,reversed,hard,2,,,,,
,,,,,5f160514e2a4062d2a0ded58,001,27,male,british,A levels,2024-03-06_12h16.28.212,CRL1h,2023.2.3,Win32,60.24096386,65e67470ae2fbf2172c317b2,65e85e5f7f7d93ab53a62a7f,,,,,,,,,,,528.3286,1.3,529.6262,529.6263,530.5429,right,1,0.912,,530.5429,531.541,2,13,45,10,1,total,2,images/Ex3.jpg,right,reversed,hard,2,,,,,
,,,,,5f160514e2a4062d2a0ded58,001,27,male,british,A levels,2024-03-06_12h16.28.212,CRL1h,2023.2.3,Win32,60.24096386,65e67470ae2fbf2172c317b2,65e85e5f7f7d93ab53a62a7f,,,,,,,,,,,531.5423,1.3,532.8397,532.8398,533.4899,right,1,0.6458,,533.4899,534.4882,2,14,46,8,1,total,2,images/Ex1.jpg,right,reversed,hard,2,,,,,
,,,,,5f160514e2a4062d2a0ded58,001,27,male,british,A levels,2024-03-06_12h16.28.212,CRL1h,2023.2.3,Win32,60.24096386,65e67470ae2fbf2172c317b2,65e85e5f7f7d93ab53a62a7f,,,,,,,,,,,534.4894,0.7,535.1874,535.1875,536.0511,right,1,0.8601,,536.0511,537.0521,2,15,47,11,1,total,2,images/Ex4.jpg,right,reversed,hard,2,,,,,
,,,,,5f160514e2a4062d2a0ded58,001,27,male,british,A levels,2024-03-06_12h16.28.212,CRL1h,2023.2.3,Win32,60.24096386,65e67470ae2fbf2172c317b2,65e85e5f7f7d93ab53a62a7f,,,,,,,,,,,537.0527,0.8,537.8513,537.8513,539.0171,right,1,1.1599,,539.0171,540.0158,3,0,48,3,1,total,2,images/Ex4.jpg,right,reversed,hard,2,,,,,
,,,,,5f160514e2a4062d2a0ded58,001,27,male,british,A levels,2024-03-06_12h16.28.212,CRL1h,2023.2.3,Win32,60.24096386,65e67470ae2fbf2172c317b2,65e85e5f7f7d93ab53a62a7f,,,,,,,,,,,540.0164,1.3,541.3145,541.3145,542.2764,left,0,0.9568,,542.2765,543.2793,3,1,49,9,1,total,2,images/Ex2.jpg,right,reversed,hard,2,,,,,
,,,,,5f160514e2a4062d2a0ded58,001,27,male,british,A levels,2024-03-06_12h16.28.212,CRL1h,2023.2.3,Win32,60.24096386,65e67470ae2fbf2172c317b2,65e85e5f7f7d93ab53a62a7f,,,,,,,,,,,543.2799,1,544.2782,544.2782,545.0583,right,1,0.779,,545.0584,546.0597,3,2,50,8,1,total,2,images/Ex1.jpg,right,reversed,hard,2,,,,,
,,,,,5f160514e2a4062d2a0ded58,001,27,male,british,A levels,2024-03-06_12h16.28.212,CRL1h,2023.2.3,Win32,60.24096386,65e67470ae2fbf2172c317b2,65e85e5f7f7d93ab53a62a7f,,,,,,,,,,,546.0603,0.7,546.759,546.759,547.8053,left,1,1.0417,,547.8053,548.807,3,3,51,4,1,total,2,images/Ex5.jpg,left,reversed,hard,2,,,,,
,,,,,5f160514e2a4062d2a0ded58,001,27,male,british,A levels,2024-03-06_12h16.28.212,CRL1h,2023.2.3,Win32,60.24096386,65e67470ae2fbf2172c317b2,65e85e5f7f7d93ab53a62a7f,,,,,,,,,,,548.8075,0.6,549.4064,549.4064,550.1707,left,1,0.763,,550.1708,551.1713,3,4,52,14,1,total,2,images/Ex7.jpg,left,reversed,hard,2,,,,,
,,,,,5f160514e2a4062d2a0ded58,001,27,male,british,A levels,2024-03-06_12h16.28.212,CRL1h,2023.2.3,Win32,60.24096386,65e67470ae2fbf2172c317b2,65e85e5f7f7d93ab53a62a7f,,,,,,,,,,,551.1718,1,552.1702,552.1703,553.1674,right,1,0.9955,,553.1674,554.1682,3,5,53,11,1,total,2,images/Ex4.jpg,right,reversed,hard,2,,,,,
,,,,,5f160514e2a4062d2a0ded58,001,27,male,british,A levels,2024-03-06_12h16.28.212,CRL1h,2023.2.3,Win32,60.24096386,65e67470ae2fbf2172c317b2,65e85e5f7f7d93ab53a62a7f,,,,,,,,,,,554.1688,0.7,554.8675,554.8675,555.6337,left,1,0.7597,,555.6337,556.6226,3,6,54,13,1,total,2,images/Ex6.jpg,left,reversed,hard,2,,,,,
,,,,,5f160514e2a4062d2a0ded58,001,27,male,british,A levels,2024-03-06_12h16.28.212,CRL1h,2023.2.3,Win32,60.24096386,65e67470ae2fbf2172c317b2,65e85e5f7f7d93ab53a62a7f,,,,,,,,,,,556.6251,0.6,557.2218,557.2221,558.0925,left,1,0.866,,558.0926,559.0966,3,7,55,7,1,total,2,images/Ex8.jpg,left,reversed,hard,2,,,,,
,,,,,5f160514e2a4062d2a0ded58,001,27,male,british,A levels,2024-03-06_12h16.28.212,CRL1h,2023.2.3,Win32,60.24096386,65e67470ae2fbf2172c317b2,65e85e5f7f7d93ab53a62a7f,,,,,,,,,,,559.0971,1.4,560.4952,560.4953,561.3733,left,0,0.8745,,561.3738,562.3767,3,8,56,2,1,total,2,images/Ex3.jpg,right,reversed,hard,2,,,,,
,,,,,5f160514e2a4062d2a0ded58,001,27,male,british,A levels,2024-03-06_12h16.28.212,CRL1h,2023.2.3,Win32,60.24096386,65e67470ae2fbf2172c317b2,65e85e5f7f7d93ab53a62a7f,,,,,,,,,,,562.3771,1.3,563.6757,563.6758,564.3537,right,1,0.6767,,564.3538,565.3536,3,9,57,10,1,total,2,images/Ex3.jpg,right,reversed,hard,2,,,,,
,,,,,5f160514e2a4062d2a0ded58,001,27,male,british,A levels,2024-03-06_12h16.28.212,CRL1h,2023.2.3,Win32,60.24096386,65e67470ae2fbf2172c317b2,65e85e5f7f7d93ab53a62a7f,,,,,,,,,,,565.3542,1.2,566.5525,566.5527,567.4025,left,1,0.8485,,567.4026,568.3999,3,10,58,15,1,total,2,images/Ex8.jpg,left,reversed,hard,2,,,,,
,,,,,5f160514e2a4062d2a0ded58,001,27,male,british,A levels,2024-03-06_12h16.28.212,CRL1h,2023.2.3,Win32,60.24096386,65e67470ae2fbf2172c317b2,65e85e5f7f7d93ab53a62a7f,,,,,,,,,,,568.4004,1.1,569.4909,569.4911,570.8104,right,1,1.3138,,570.8105,571.8006,3,11,59,1,1,total,2,images/Ex2.jpg,right,reversed,hard,2,,,,,
,,,,,5f160514e2a4062d2a0ded58,001,27,male,british,A levels,2024-03-06_12h16.28.212,CRL1h,2023.2.3,Win32,60.24096386,65e67470ae2fbf2172c317b2,65e85e5f7f7d93ab53a62a7f,,,,,,,,,,,571.8011,0.6,572.4,572.4,573.0498,left,1,0.6466,,573.0501,574.0483,3,12,60,6,1,total,2,images/Ex7.jpg,left,reversed,hard,2,,,,,
,,,,,5f160514e2a4062d2a0ded58,001,27,male,british,A levels,2024-03-06_12h16.28.212,CRL1h,2023.2.3,Win32,60.24096386,65e67470ae2fbf2172c317b2,65e85e5f7f7d93ab53a62a7f,,,,,,,,,,,574.0493,1.2,575.2474,575.2475,576.2801,right,1,1.0272,,576.2801,577.2784,3,13,61,0,1,total,2,images/Ex1.jpg,right,reversed,hard,2,,,,,
,,,,,5f160514e2a4062d2a0ded58,001,27,male,british,A levels,2024-03-06_12h16.28.212,CRL1h,2023.2.3,Win32,60.24096386,65e67470ae2fbf2172c317b2,65e85e5f7f7d93ab53a62a7f,,,,,,,,,,,577.2803,0.5,577.782,577.7822,578.8271,right,0,1.0413,,578.8273,579.826,3,14,62,5,1,total,2,images/Ex6.jpg,left,reversed,hard,2,,,,,
,,,,,5f160514e2a4062d2a0ded58,001,27,male,british,A levels,2024-03-06_12h16.28.212,CRL1h,2023.2.3,Win32,60.24096386,65e67470ae2fbf2172c317b2,65e85e5f7f7d93ab53a62a7f,,,,,,,,,,,579.827,1.4,581.2246,581.2246,582.0412,left,1,0.8123,,582.0413,583.0394,3,15,63,12,1,total,2,images/Ex5.jpg,left,reversed,hard,2,,,,,
,,,,,5f160514e2a4062d2a0ded58,001,27,male,british,A levels,2024-03-06_12h16.28.212,CRL1h,2023.2.3,Win32,60.24096386,65e67470ae2fbf2172c317b2,65e85e5f7f7d93ab53a62a7f,,,,,,583.0422,622.2472,space,39.192,,622.2582,1.5,623.749,623.749,624.5077,right,0,0.7545,,624.5077,625.5066,0,0,0,1,1,partial,1,images/Ex10.jpg,left,training,hard,2,,,,,
,,,,,5f160514e2a4062d2a0ded58,001,27,male,british,A levels,2024-03-06_12h16.28.212,CRL1h,2023.2.3,Win32,60.24096386,65e67470ae2fbf2172c317b2,65e85e5f7f7d93ab53a62a7f,,,,,,,,,,,625.5089,1.4,626.9045,626.9046,627.8271,right,1,0.9184,,627.8272,628.8269,0,1,1,12,1,partial,1,images/Ex13.jpg,right,training,hard,2,,,,,
,,,,,5f160514e2a4062d2a0ded58,001,27,male,british,A levels,2024-03-06_12h16.28.212,CRL1h,2023.2.3,Win32,60.24096386,65e67470ae2fbf2172c317b2,65e85e5f7f7d93ab53a62a7f,,,,,,,,,,,628.8275,1.3,630.1182,630.1184,630.9387,right,0,0.8168,,630.9389,631.9403,0,2,2,3,1,partial,1,images/Ex12.jpg,left,training,hard,2,,,,,
,,,,,5f160514e2a4062d2a0ded58,001,27,male,british,A levels,2024-03-06_12h16.28.212,CRL1h,2023.2.3,Win32,60.24096386,65e67470ae2fbf2172c317b2,65e85e5f7f7d93ab53a62a7f,,,,,,,,,,,631.9409,1.4,633.3389,633.3389,634.4549,left,1,1.1125,,634.4552,635.4442,0,3,3,2,1,partial,1,images/Ex11.jpg,left,training,hard,2,,,,,
,,,,,5f160514e2a4062d2a0ded58,001,27,male,british,A levels,2024-03-06_12h16.28.212,CRL1h,2023.2.3,Win32,60.24096386,65e67470ae2fbf2172c317b2,65e85e5f7f7d93ab53a62a7f,,,,,,,,,,,635.4453,1.3,636.7338,636.7339,637.5517,right,1,0.8123,,637.5518,638.5504,0,4,4,14,1,partial,1,images/Ex15.jpg,right,training,hard,2,,,,,
,,,,,5f160514e2a4062d2a0ded58,001,27,male,british,A levels,2024-03-06_12h16.28.212,CRL1h,2023.2.3,Win32,60.24096386,65e67470ae2fbf2172c317b2,65e85e5f7f7d93ab53a62a7f,,,,,,,,,,,638.5509,0.7,639.2497,639.2497,640.8464,left,1,1.5953,,640.8465,641.8428,0,5,5,0,1,partial,1,images/Ex9.jpg,left,training,hard,2,,,,,
,,,,,5f160514e2a4062d2a0ded58,001,27,male,british,A levels,2024-03-06_12h16.28.212,CRL1h,2023.2.3,Win32,60.24096386,65e67470ae2fbf2172c317b2,65e85e5f7f7d93ab53a62a7f,,,,,,,,,,,641.8433,0.6,642.4314,642.4316,643.2084,right,0,0.7706,,643.2085,644.2114,0,6,6,9,1,partial,1,images/Ex10.jpg,left,training,hard,2,,,,,
,,,,,5f160514e2a4062d2a0ded58,001,27,male,british,A levels,2024-03-06_12h16.28.212,CRL1h,2023.2.3,Win32,60.24096386,65e67470ae2fbf2172c317b2,65e85e5f7f7d93ab53a62a7f,,,,,,,,,,,644.2121,0.6,644.8109,644.8109,645.9662,right,1,1.1527,,645.9663,646.9719,0,7,7,5,1,partial,1,images/Ex14.jpg,right,training,hard,2,,,,,
,,,,,5f160514e2a4062d2a0ded58,001,27,male,british,A levels,2024-03-06_12h16.28.212,CRL1h,2023.2.3,Win32,60.24096386,65e67470ae2fbf2172c317b2,65e85e5f7f7d93ab53a62a7f,,,,,,,,,,,646.9725,0.6,647.5664,647.5665,648.5572,left,1,0.9842,,648.5573,649.5522,0,8,8,8,1,partial,1,images/Ex9.jpg,left,training,hard,2,,,,,
,,,,,5f160514e2a4062d2a0ded58,001,27,male,british,A levels,2024-03-06_12h16.28.212,CRL1h,2023.2.3,Win32,60.24096386,65e67470ae2fbf2172c317b2,65e85e5f7f7d93ab53a62a7f,,,,,,,,,,,649.5528,1.2,650.7675,650.7675,651.7009,right,1,0.932,,651.7009,652.7027,0,9,9,15,1,partial,1,images/Ex16.jpg,right,training,hard,2,,,,,
,,,,,5f160514e2a4062d2a0ded58,001,27,male,british,A levels,2024-03-06_12h16.28.212,CRL1h,2023.2.3,Win32,60.24096386,65e67470ae2fbf2172c317b2,65e85e5f7f7d93ab53a62a7f,,,,,,,,,,,652.7033,1.3,654.0016,654.0016,654.5377,right,1,0.5263,,654.5381,655.5461,0,10,10,7,1,partial,1,images/Ex16.jpg,right,training,hard,2,,,,,
,,,,,5f160514e2a4062d2a0ded58,001,27,male,british,A levels,2024-03-06_12h16.28.212,CRL1h,2023.2.3,Win32,60.24096386,65e67470ae2fbf2172c317b2,65e85e5f7f7d93ab53a62a7f,,,,,,,,,,,655.5467,1.3,656.8388,656.839,657.9411,left,1,1.098,,657.9411,658.9301,0,11,11,11,1,partial,1,images/Ex12.jpg,left,training,hard,2,,,,,
,,,,,5f160514e2a4062d2a0ded58,001,27,male,british,A levels,2024-03-06_12h16.28.212,CRL1h,2023.2.3,Win32,60.24096386,65e67470ae2fbf2172c317b2,65e85e5f7f7d93ab53a62a7f,,,,,,,,,,,658.9312,0.9,659.8291,659.8292,660.6596,left,1,0.827,,660.6598,661.6513,0,12,12,10,1,partial,1,images/Ex11.jpg,left,training,hard,2,,,,,
,,,,,5f160514e2a4062d2a0ded58,001,27,male,british,A levels,2024-03-06_12h16.28.212,CRL1h,2023.2.3,Win32,60.24096386,65e67470ae2fbf2172c317b2,65e85e5f7f7d93ab53a62a7f,,,,,,,,,,,661.6536,1.5,663.146,663.1462,664.0053,right,1,0.8556,,664.0053,665.0072,0,13,13,6,1,partial,1,images/Ex15.jpg,right,training,hard,2,,,,,
,,,,,5f160514e2a4062d2a0ded58,001,27,male,british,A levels,2024-03-06_12h16.28.212,CRL1h,2023.2.3,Win32,60.24096386,65e67470ae2fbf2172c317b2,65e85e5f7f7d93ab53a62a7f,,,,,,,,,,,665.0077,0.8,665.8064,665.8065,666.8697,right,1,1.0618,,666.8697,667.8615,0,14,14,4,1,partial,1,images/Ex13.jpg,right,training,hard,2,,,,,
,,,,,5f160514e2a4062d2a0ded58,001,27,male,british,A levels,2024-03-06_12h16.28.212,CRL1h,2023.2.3,Win32,60.24096386,65e67470ae2fbf2172c317b2,65e85e5f7f7d93ab53a62a7f,,,,,,,,,,,667.8647,1.3,669.1649,669.165,670.0667,left,0,0.9004,,670.0667,671.0677,0,15,15,13,1,partial,1,images/Ex14.jpg,right,training,hard,2,,,,,
,,,,,5f160514e2a4062d2a0ded58,001,27,male,british,A levels,2024-03-06_12h16.28.212,CRL1h,2023.2.3,Win32,60.24096386,65e67470ae2fbf2172c317b2,65e85e5f7f7d93ab53a62a7f,,,,,,,,,,,671.0683,1.3,672.3664,672.3665,673.266,left,1,0.8962,,673.266,674.2645,1,0,16,8,1,partial,1,images/Ex9.jpg,left,training,hard,2,,,,,
,,,,,5f160514e2a4062d2a0ded58,001,27,male,british,A levels,2024-03-06_12h16.28.212,CRL1h,2023.2.3,Win32,60.24096386,65e67470ae2fbf2172c317b2,65e85e5f7f7d93ab53a62a7f,,,,,,,,,,,674.2649,1.2,675.4635,675.4635,676.207,left,1,0.7408,,676.2071,677.1949,1,1,17,10,1,partial,1,images/Ex11.jpg,left,training,hard,2,,,,,
,,,,,5f160514e2a4062d2a0ded58,001,27,male,british,A levels,2024-03-06_12h16.28.212,CRL1h,2023.2.3,Win32,60.24096386,65e67470ae2fbf2172c317b2,65e85e5f7f7d93ab53a62a7f,,,,,,,,,,,677.1955,0.9,678.094,678.0941,678.6923,right,1,0.5969,,678.6923,679.6897,1,2,18,7,1,partial,1,images/Ex16.jpg,right,training,hard,2,,,,,
,,,,,5f160514e2a4062d2a0ded58,001,27,male,british,A levels,2024-03-06_12h16.28.212,CRL1h,2023.2.3,Win32,60.24096386,65e67470ae2fbf2172c317b2,65e85e5f7f7d93ab53a62a7f,,,,,,,,,,,679.6905,1.4,681.0872,681.0873,681.838,left,0,0.7496,,681.838,682.8262,1,3,19,13,1,partial,1,images/Ex14.jpg,right,training,hard,2,,,,,
,,,,,5f160514e2a4062d2a0ded58,001,27,male,british,A levels,2024-03-06_12h16.28.212,CRL1h,2023.2.3,Win32,60.24096386,65e67470ae2fbf2172c317b2,65e85e5f7f7d93ab53a62a7f,,,,,,,,,,,682.8266,1.3,684.1174,684.1175,684.9479,left,1,0.8266,,684.9479,685.9491,1,4,20,11,1,partial,1,images/Ex12.jpg,left,training,hard,2,,,,,
,,,,,5f160514e2a4062d2a0ded58,001,27,male,british,A levels,2024-03-06_12h16.28.212,CRL1h,2023.2.3,Win32,60.24096386,65e67470ae2fbf2172c317b2,65e85e5f7f7d93ab53a62a7f,,,,,,,,,,,685.9496,0.8,686.7499,686.7499,687.4487,right,1,0.6975,,687.4488,688.4503,1,5,21,6,1,partial,1,images/Ex15.jpg,right,training,hard,2,,,,,
,,,,,5f160514e2a4062d2a0ded58,001,27,male,british,A levels,2024-03-06_12h16.28.212,CRL1h,2023.2.3,Win32,60.24096386,65e67470ae2fbf2172c317b2,65e85e5f7f7d93ab53a62a7f,,,,,,,,,,,688.451,1.5,689.9487,689.9488,690.7449,left,1,0.7947,,690.745,691.7472,1,6,22,0,1,partial,1,images/Ex9.jpg,left,training,hard,2,,,,,
,,,,,5f160514e2a4062d2a0ded58,001,27,male,british,A levels,2024-03-06_12h16.28.212,CRL1h,2023.2.3,Win32,60.24096386,65e67470ae2fbf2172c317b2,65e85e5f7f7d93ab53a62a7f,,,,,,,,,,,691.7476,1,692.7459,692.746,693.3752,right,1,0.6274,,693.3752,694.3779,1,7,23,5,1,partial,1,images/Ex14.jpg,right,training,hard,2,,,,,
,,,,,5f160514e2a4062d2a0ded58,001,27,male,british,A levels,2024-03-06_12h16.28.212,CRL1h,2023.2.3,Win32,60.24096386,65e67470ae2fbf2172c317b2,65e85e5f7f7d93ab53a62a7f,,,,,,,,,,,694.3784,1.3,695.6763,695.6763,696.4927,right,1,0.8123,,696.4927,697.4912,1,8,24,14,1,partial,1,images/Ex15.jpg,right,training,hard,2,,,,,
,,,,,5f160514e2a4062d2a0ded58,001,27,male,british,A levels,2024-03-06_12h16.28.212,CRL1h,2023.2.3,Win32,60.24096386,65e67470ae2fbf2172c317b2,65e85e5f7f7d93ab53a62a7f,,,,,,,,,,,697.4919,1.5,698.9897,698.9897,699.9201,left,0,0.9291,,699.9202,700.9212,1,9,25,12,1,partial,1,images/Ex13.jpg,right,training,hard,2,,,,,
,,,,,5f160514e2a4062d2a0ded58,001,27,male,british,A levels,2024-03-06_12h16.28.212,CRL1h,2023.2.3,Win32,60.24096386,65e67470ae2fbf2172c317b2,65e85e5f7f7d93ab53a62a7f,,,,,,,,,,,700.9217,0.8,701.7203,701.7203,702.468,left,1,0.7464,,702.468,703.4597,1,10,26,2,1,partial,1,images/Ex11.jpg,left,training,hard,2,,,,,
,,,,,5f160514e2a4062d2a0ded58,001,27,male,british,A levels,2024-03-06_12h16.28.212,CRL1h,2023.2.3,Win32,60.24096386,65e67470ae2fbf2172c317b2,65e85e5f7f7d93ab53a62a7f,,,,,,,,,,,703.4623,0.5,703.9594,703.9597,704.5827,right,1,0.6192,,704.5828,705.5741,1,11,27,15,1,partial,1,images/Ex16.jpg,right,training,hard,2,,,,,
,,,,,5f160514e2a4062d2a0ded58,001,27,male,british,A levels,2024-03-06_12h16.28.212,CRL1h,2023.2.3,Win32,60.24096386,65e67470ae2fbf2172c317b2,65e85e5f7f7d93ab53a62a7f,,,,,,,,,,,705.5763,1.1,706.6795,706.6795,707.7452,right,0,1.0644,,707.7452,708.7466,1,12,28,1,1,partial,1,images/Ex10.jpg,left,training,hard,2,,,,,
,,,,,5f160514e2a4062d2a0ded58,001,27,male,british,A levels,2024-03-06_12h16.28.212,CRL1h,2023.2.3,Win32,60.24096386,65e67470ae2fbf2172c317b2,65e85e5f7f7d93ab53a62a7f,,,,,,,,,,,708.7472,0.6,709.3461,709.3461,710.0789,left,1,0.7308,,710.079,711.0741,1,13,29,9,1,partial,1,images/Ex10.jpg,left,training,hard,2,,,,,
,,,,,5f160514e2a4062d2a0ded58,001,27,male,british,A levels,2024-03-06_12h16.28.212,CRL1h,2023.2.3,Win32,60.24096386,65e67470ae2fbf2172c317b2,65e85e5f7f7d93ab53a62a7f,,,,,,,,,,,711.0746,0.7,711.7711,711.7712,712.5547,right,0,0.7788,,712.5548,713.5555,1,14,30,3,1,partial,1,images/Ex12.jpg,left,training,hard,2,,,,,
,,,,,5f160514e2a4062d2a0ded58,001,27,male,british,A levels,2024-03-06_12h16.28.212,CRL1h,2023.2.3,Win32,60.24096386,65e67470ae2fbf2172c317b2,65e85e5f7f7d93ab53a62a7f,,,,,,,,,,,713.556,1,714.5544,714.5545,715.4099,left,0,0.8499,,715.4102,716.4018,1,15,31,4,1,partial,1,images/Ex13.jpg,right,training,hard,2,,,,,
,,,,,5f160514e2a4062d2a0ded58,001,27,male,british,A levels,2024-03-06_12h16.28.212,CRL1h,2023.2.3,Win32,60.24096386,65e67470ae2fbf2172c317b2,65e85e5f7f7d93ab53a62a7f,,,,,,,,,,,716.4024,0.6,716.9922,716.9924,717.7855,left,1,0.7906,,717.7855,718.7835,2,0,32,3,1,partial,1,images/Ex12.jpg,left,training,hard,2,,,,,
,,,,,5f160514e2a4062d2a0ded58,001,27,male,british,A levels,2024-03-06_12h16.28.212,CRL1h,2023.2.3,Win32,60.24096386,65e67470ae2fbf2172c317b2,65e85e5f7f7d93ab53a62a7f,,,,,,,,,,,718.784,1.1,719.8835,719.8837,720.5829,left,1,0.698,,720.583,721.5837,2,1,33,8,1,partial,1,images/Ex9.jpg,left,training,hard,2,,,,,
,,,,,5f160514e2a4062d2a0ded58,001,27,male,british,A levels,2024-03-06_12h16.28.212,CRL1h,2023.2.3,Win32,60.24096386,65e67470ae2fbf2172c317b2,65e85e5f7f7d93ab53a62a7f,,,,,,,,,,,721.5843,1.2,722.7827,722.7827,723.564,right,1,0.7799,,723.5641,724.5523,2,2,34,12,1,partial,1,images/Ex13.jpg,right,training,hard,2,,,,,
,,,,,5f160514e2a4062d2a0ded58,001,27,male,british,A levels,2024-03-06_12h16.28.212,CRL1h,2023.2.3,Win32,60.24096386,65e67470ae2fbf2172c317b2,65e85e5f7f7d93ab53a62a7f,,,,,,,,,,,724.5539,0.8,725.3429,725.3429,725.9912,right,1,0.6468,,725.9912,726.9912,2,3,35,5,1,partial,1,images/Ex14.jpg,right,training,hard,2,,,,,
,,,,,5f160514e2a4062d2a0ded58,001,27,male,british,A levels,2024-03-06_12h16.28.212,CRL1h,2023.2.3,Win32,60.24096386,65e67470ae2fbf2172c317b2,65e85e5f7f7d93ab53a62a7f,,,,,,,,,,,726.9917,0.6,727.5903,727.5903,728.1778,right,0,0.5862,,728.1779,729.1728,2,4,36,1,1,partial,1,images/Ex10.jpg,left,training,hard,2,,,,,
,,,,,5f160514e2a4062d2a0ded58,001,27,male,british,A levels,2024-03-06_12h16.28.212,CRL1h,2023.2.3,Win32,60.24096386,65e67470ae2fbf2172c317b2,65e85e5f7f7d93ab53a62a7f,,,,,,,,,,,729.1733,1.2,730.3723,730.3723,731.0892,right,1,0.7155,,731.0892,732.0855,2,5,37,13,1,partial,1,images/Ex14.jpg,right,training,hard,2,,,,,
,,,,,5f160514e2a4062d2a0ded58,001,27,male,british,A levels,2024-03-06_12h16.28.212,CRL1h,2023.2.3,Win32,60.24096386,65e67470ae2fbf2172c317b2,65e85e5f7f7d93ab53a62a7f,,,,,,,,,,,732.086,0.8,732.8856,732.8856,733.4555,right,1,0.563,,733.4556,734.4503,2,6,38,15,1,partial,1,images/Ex16.jpg,right,training,hard,2,,,,,
,,,,,5f160514e2a4062d2a0ded58,001,27,male,british,A levels,2024-03-06_12h16.28.212,CRL1h,2023.2.3,Win32,60.24096386,65e67470ae2fbf2172c317b2,65e85e5f7f7d93ab53a62a7f,,,,,,,,,,,734.4509,0.6,735.0503,735.0504,735.77,left,1,0.7133,,735.7701,736.7645,2,7,39,10,1,partial,1,images/Ex11.jpg,left,training,hard,2,,,,,
,,,,,5f160514e2a4062d2a0ded58,001,27,male,british,A levels,2024-03-06_12h16.28.212,CRL1h,2023.2.3,Win32,60.24096386,65e67470ae2fbf2172c317b2,65e85e5f7f7d93ab53a62a7f,,,,,,,,,,,736.765,1.2,737.9638,737.9638,738.5629,right,1,0.5965,,738.563,739.552,2,8,40,7,1,partial,1,images/Ex16.jpg,right,training,hard,2,,,,,
,,,,,5f160514e2a4062d2a0ded58,001,27,male,british,A levels,2024-03-06_12h16.28.212,CRL1h,2023.2.3,Win32,60.24096386,65e67470ae2fbf2172c317b2,65e85e5f7f7d93ab53a62a7f,,,,,,,,,,,739.5547,1.3,740.8493,740.8496,741.7112,left,1,0.8577,,741.7112,742.7146,2,9,41,11,1,partial,1,images/Ex12.jpg,left,training,hard,2,,,,,
,,,,,5f160514e2a4062d2a0ded58,001,27,male,british,A levels,2024-03-06_12h16.28.212,CRL1h,2023.2.3,Win32,60.24096386,65e67470ae2fbf2172c317b2,65e85e5f7f7d93ab53a62a7f,,,,,,,,,,,742.7167,0.8,743.5086,743.5087,744.4239,right,1,0.9115,,744.4239,745.4266,2,10,42,14,1,partial,1,images/Ex15.jpg,right,training,hard,2,,,,,
,,,,,5f160514e2a4062d2a0ded58,001,27,male,british,A levels,2024-03-06_12h16.28.212,CRL1h,2023.2.3,Win32,60.24096386,65e67470ae2fbf2172c317b2,65e85e5f7f7d93ab53a62a7f,,,,,,,,,,,745.4271,1.5,746.9251,746.9252,747.7548,left,1,0.8283,,747.7549,748.7486,2,11,43,0,1,partial,1,images/Ex9.jpg,left,training,hard,2,,,,,
,,,,,5f160514e2a4062d2a0ded58,001,27,male,british,A levels,2024-03-06_12h16.28.212,CRL1h,2023.2.3,Win32,60.24096386,65e67470ae2fbf2172c317b2,65e85e5f7f7d93ab53a62a7f,,,,,,,,,,,748.7507,1.3,750.0468,750.0469,750.8731,right,1,0.8217,,750.8733,751.8642,2,12,44,4,1,partial,1,images/Ex13.jpg,right,training,hard,2,,,,,
,,,,,5f160514e2a4062d2a0ded58,001,27,male,british,A levels,2024-03-06_12h16.28.212,CRL1h,2023.2.3,Win32,60.24096386,65e67470ae2fbf2172c317b2,65e85e5f7f7d93ab53a62a7f,,,,,,,,,,,751.8654,0.6,752.4646,752.4646,753.2653,right,1,0.7994,,753.2654,754.2676,2,13,45,6,1,partial,1,images/Ex15.jpg,right,training,hard,2,,,,,
,,,,,5f160514e2a4062d2a0ded58,001,27,male,british,A levels,2024-03-06_12h16.28.212,CRL1h,2023.2.3,Win32,60.24096386,65e67470ae2fbf2172c317b2,65e85e5f7f7d93ab53a62a7f,,,,,,,,,,,754.268,0.7,754.967,754.9671,755.9315,left,1,0.9629,,755.9315,756.9222,2,14,46,9,1,partial,1,images/Ex10.jpg,left,training,hard,2,,,,,
,,,,,5f160514e2a4062d2a0ded58,001,27,male,british,A levels,2024-03-06_12h16.28.212,CRL1h,2023.2.3,Win32,60.24096386,65e67470ae2fbf2172c317b2,65e85e5f7f7d93ab53a62a7f,,,,,,,,,,,756.9251,0.9,757.8266,757.8266,758.5275,left,1,0.6996,,758.5275,759.5291,2,15,47,2,1,partial,1,images/Ex11.jpg,left,training,hard,2,,,,,
,,,,,5f160514e2a4062d2a0ded58,001,27,male,british,A levels,2024-03-06_12h16.28.212,CRL1h,2023.2.3,Win32,60.24096386,65e67470ae2fbf2172c317b2,65e85e5f7f7d93ab53a62a7f,,,,,,,,,,,759.5297,1.4,760.9277,760.9278,761.5442,left,1,0.6145,,761.5443,762.5395,3,0,48,2,1,partial,1,images/Ex11.jpg,left,training,hard,2,,,,,
,,,,,5f160514e2a4062d2a0ded58,001,27,male,british,A levels,2024-03-06_12h16.28.212,CRL1h,2023.2.3,Win32,60.24096386,65e67470ae2fbf2172c317b2,65e85e5f7f7d93ab53a62a7f,,,,,,,,,,,762.5401,0.8,763.3315,763.3316,764.1216,left,1,0.7872,,764.1216,765.1234,3,1,49,8,1,partial,1,images/Ex9.jpg,left,training,hard,2,,,,,
,,,,,5f160514e2a4062d2a0ded58,001,27,male,british,A levels,2024-03-06_12h16.28.212,CRL1h,2023.2.3,Win32,60.24096386,65e67470ae2fbf2172c317b2,65e85e5f7f7d93ab53a62a7f,,,,,,,,,,,765.124,0.7,765.8228,765.8229,766.5028,right,1,0.6784,,766.5029,767.5045,3,2,50,13,1,partial,1,images/Ex14.jpg,right,training,hard,2,,,,,
,,,,,5f160514e2a4062d2a0ded58,001,27,male,british,A levels,2024-03-06_12h16.28.212,CRL1h,2023.2.3,Win32,60.24096386,65e67470ae2fbf2172c317b2,65e85e5f7f7d93ab53a62a7f,,,,,,,,,,,767.5049,1,768.5034,768.5035,769.0634,right,1,0.5554,,769.0637,770.0522,3,3,51,7,1,partial,1,images/Ex16.jpg,right,training,hard,2,,,,,
,,,,,5f160514e2a4062d2a0ded58,001,27,male,british,A levels,2024-03-06_12h16.28.212,CRL1h,2023.2.3,Win32,60.24096386,65e67470ae2fbf2172c317b2,65e85e5f7f7d93ab53a62a7f,,,,,,,,,,,770.0546,0.9,770.951,770.9511,771.6173,right,1,0.6617,,771.6174,772.6202,3,4,52,4,1,partial,1,images/Ex13.jpg,right,training,hard,2,,,,,
,,,,,5f160514e2a4062d2a0ded58,001,27,male,british,A levels,2024-03-06_12h16.28.212,CRL1h,2023.2.3,Win32,60.24096386,65e67470ae2fbf2172c317b2,65e85e5f7f7d93ab53a62a7f,,,,,,,,,,,772.6227,0.6,773.2155,773.2155,774.365,left,1,1.1444,,774.3651,775.3633,3,5,53,3,1,partial,1,images/Ex12.jpg,left,training,hard,2,,,,,
,,,,,5f160514e2a4062d2a0ded58,001,27,male,british,A levels,2024-03-06_12h16.28.212,CRL1h,2023.2.3,Win32,60.24096386,65e67470ae2fbf2172c317b2,65e85e5f7f7d93ab53a62a7f,,,,,,,,,,,775.3645,0.9,776.2626,776.2627,777.0291,right,1,0.7624,,777.0291,778.0274,3,6,54,14,1,partial,1,images/Ex15.jpg,right,training,hard,2,,,,,
,,,,,5f160514e2a4062d2a0ded58,001,27,male,british,A levels,2024-03-06_12h16.28.212,CRL1h,2023.2.3,Win32,60.24096386,65e67470ae2fbf2172c317b2,65e85e5f7f7d93ab53a62a7f,,,,,,,,,,,778.0284,1,779.0263,779.0264,779.7096,right,1,0.679,,779.7096,780.708,3,7,55,12,1,partial,1,images/Ex13.jpg,right,training,hard,2,,,,,
,,,,,5f160514e2a4062d2a0ded58,001,27,male,british,A levels,2024-03-06_12h16.28.212,CRL1h,2023.2.3,Win32,60.24096386,65e67470ae2fbf2172c317b2,65e85e5f7f7d93ab53a62a7f,,,,,,,,,,,780.7091,0.8,781.5073,781.5075,782.507,left,1,0.9955,,782.507,783.5052,3,8,56,11,1,partial,1,images/Ex12.jpg,left,training,hard,2,,,,,
,,,,,5f160514e2a4062d2a0ded58,001,27,male,british,A levels,2024-03-06_12h16.28.212,CRL1h,2023.2.3,Win32,60.24096386,65e67470ae2fbf2172c317b2,65e85e5f7f7d93ab53a62a7f,,,,,,,,,,,783.5066,1.2,784.7041,784.7042,785.3206,left,1,0.6112,,785.3206,786.3189,3,9,57,0,1,partial,1,images/Ex9.jpg,left,training,hard,2,,,,,
,,,,,5f160514e2a4062d2a0ded58,001,27,male,british,A levels,2024-03-06_12h16.28.212,CRL1h,2023.2.3,Win32,60.24096386,65e67470ae2fbf2172c317b2,65e85e5f7f7d93ab53a62a7f,,,,,,,,,,,786.32,0.8,787.1182,787.1182,787.7042,right,1,0.5806,,787.7043,788.7001,3,10,58,5,1,partial,1,images/Ex14.jpg,right,training,hard,2,,,,,
,,,,,5f160514e2a4062d2a0ded58,001,27,male,british,A levels,2024-03-06_12h16.28.212,CRL1h,2023.2.3,Win32,60.24096386,65e67470ae2fbf2172c317b2,65e85e5f7f7d93ab53a62a7f,,,,,,,,,,,788.7015,1.3,789.9988,789.9988,790.5825,right,1,0.5799,,790.5826,791.5804,3,11,59,6,1,partial,1,images/Ex15.jpg,right,training,hard,2,,,,,
,,,,,5f160514e2a4062d2a0ded58,001,27,male,british,A levels,2024-03-06_12h16.28.212,CRL1h,2023.2.3,Win32,60.24096386,65e67470ae2fbf2172c317b2,65e85e5f7f7d93ab53a62a7f,,,,,,,,,,,791.5815,0.6,792.1799,792.1799,792.9339,left,1,0.7491,,792.934,793.9283,3,12,60,10,1,partial,1,images/Ex11.jpg,left,training,hard,2,,,,,
,,,,,5f160514e2a4062d2a0ded58,001,27,male,british,A levels,2024-03-06_12h16.28.212,CRL1h,2023.2.3,Win32,60.24096386,65e67470ae2fbf2172c317b2,65e85e5f7f7d93ab53a62a7f,,,,,,,,,,,793.9305,1.4,795.3304,795.3306,795.8741,right,1,0.5393,,795.8741,796.8649,3,13,61,15,1,partial,1,images/Ex16.jpg,right,training,hard,2,,,,,
,,,,,5f160514e2a4062d2a0ded58,001,27,male,british,A levels,2024-03-06_12h16.28.212,CRL1h,2023.2.3,Win32,60.24096386,65e67470ae2fbf2172c317b2,65e85e5f7f7d93ab53a62a7f,,,,,,,,,,,796.867,0.5,797.3566,797.3567,798.089,left,1,0.7313,,798.0891,799.078,3,14,62,1,1,partial,1,images/Ex10.jpg,left,training,hard,2,,,,,
,,,,,5f160514e2a4062d2a0ded58,001,27,male,british,A levels,2024-03-06_12h16.28.212,CRL1h,2023.2.3,Win32,60.24096386,65e67470ae2fbf2172c317b2,65e85e5f7f7d93ab53a62a7f,,,,,,,,,,,799.0787,1.3,800.3688,800.3688,800.9352,left,1,0.5654,,800.9353,801.9333,3,15,63,9,1,partial,1,images/Ex10.jpg,left,training,hard,2,,,,,
,,,,,5f160514e2a4062d2a0ded58,001,27,male,british,A levels,2024-03-06_12h16.28.212,CRL1h,2023.2.3,Win32,60.24096386,65e67470ae2fbf2172c317b2,65e85e5f7f7d93ab53a62a7f,,,,,,,,,,,801.9338,1.3,803.2322,803.2323,803.8279,left,1,0.592,,803.8279,804.8258,4,0,64,2,1,partial,1,images/Ex11.jpg,left,training,hard,2,,,,,
,,,,,5f160514e2a4062d2a0ded58,001,27,male,british,A levels,2024-03-06_12h16.28.212,CRL1h,2023.2.3,Win32,60.24096386,65e67470ae2fbf2172c317b2,65e85e5f7f7d93ab53a62a7f,,,,,,,,,,,804.828,1.3,806.1218,806.1219,806.7653,left,1,0.6349,,806.7654,807.7567,4,1,65,1,1,partial,1,images/Ex10.jpg,left,training,hard,2,,,,,
,,,,,5f160514e2a4062d2a0ded58,001,27,male,british,A levels,2024-03-06_12h16.28.212,CRL1h,2023.2.3,Win32,60.24096386,65e67470ae2fbf2172c317b2,65e85e5f7f7d93ab53a62a7f,,,,,,,,,,,807.7581,1,808.7607,808.7607,809.4074,right,1,0.6435,,809.4075,810.4116,4,2,66,4,1,partial,1,images/Ex13.jpg,right,training,hard,2,,,,,
,,,,,5f160514e2a4062d2a0ded58,001,27,male,british,A levels,2024-03-06_12h16.28.212,CRL1h,2023.2.3,Win32,60.24096386,65e67470ae2fbf2172c317b2,65e85e5f7f7d93ab53a62a7f,,,,,,,,,,,810.4122,1,811.4105,811.4106,812.1253,left,1,0.7131,,812.1254,813.1222,4,3,67,11,1,partial,1,images/Ex12.jpg,left,training,hard,2,,,,,
,,,,,5f160514e2a4062d2a0ded58,001,27,male,british,A levels,2024-03-06_12h16.28.212,CRL1h,2023.2.3,Win32,60.24096386,65e67470ae2fbf2172c317b2,65e85e5f7f7d93ab53a62a7f,,,,,,,,,,,813.1228,1.2,814.3144,814.3146,814.9049,right,1,0.5844,,814.9049,815.9017,4,4,68,14,1,partial,1,images/Ex15.jpg,right,training,hard,2,,,,,
,,,,,5f160514e2a4062d2a0ded58,001,27,male,british,A levels,2024-03-06_12h16.28.212,CRL1h,2023.2.3,Win32,60.24096386,65e67470ae2fbf2172c317b2,65e85e5f7f7d93ab53a62a7f,,,,,,,,,,,815.9023,1.2,817.102,817.102,817.6847,right,1,0.5782,,817.6849,818.6824,4,5,69,5,1,partial,1,images/Ex14.jpg,right,training,hard,2,,,,,
,,,,,5f160514e2a4062d2a0ded58,001,27,male,british,A levels,2024-03-06_12h16.28.212,CRL1h,2023.2.3,Win32,60.24096386,65e67470ae2fbf2172c317b2,65e85e5f7f7d93ab53a62a7f,,,,,,,,,,,818.6829,1.2,819.8821,819.8821,820.6156,left,1,0.7322,,820.6157,821.6131,4,6,70,10,1,partial,1,images/Ex11.jpg,left,training,hard,2,,,,,
,,,,,5f160514e2a4062d2a0ded58,001,27,male,british,A levels,2024-03-06_12h16.28.212,CRL1h,2023.2.3,Win32,60.24096386,65e67470ae2fbf2172c317b2,65e85e5f7f7d93ab53a62a7f,,,,,,,,,,,821.6136,0.9,822.5134,822.5134,823.1404,right,1,0.624,,823.1405,824.1449,4,7,71,7,1,partial,1,images/Ex16.jpg,right,training,hard,2,,,,,
,,,,,5f160514e2a4062d2a0ded58,001,27,male,british,A levels,2024-03-06_12h16.28.212,CRL1h,2023.2.3,Win32,60.24096386,65e67470ae2fbf2172c317b2,65e85e5f7f7d93ab53a62a7f,,,,,,,,,,,824.1455,1,825.1378,825.1381,826.0107,right,1,0.8688,,826.0108,827.0019,4,8,72,13,1,partial,1,images/Ex14.jpg,right,training,hard,2,,,,,
,,,,,5f160514e2a4062d2a0ded58,001,27,male,british,A levels,2024-03-06_12h16.28.212,CRL1h,2023.2.3,Win32,60.24096386,65e67470ae2fbf2172c317b2,65e85e5f7f7d93ab53a62a7f,,,,,,,,,,,827.0023,0.6,827.5961,827.5964,828.9064,left,1,1.3064,,828.9064,829.9086,4,9,73,8,1,partial,1,images/Ex9.jpg,left,training,hard,2,,,,,
,,,,,5f160514e2a4062d2a0ded58,001,27,male,british,A levels,2024-03-06_12h16.28.212,CRL1h,2023.2.3,Win32,60.24096386,65e67470ae2fbf2172c317b2,65e85e5f7f7d93ab53a62a7f,,,,,,,,,,,829.9092,1.1,831.0075,831.0075,831.7546,right,1,0.7456,,831.7546,832.7557,4,10,74,15,1,partial,1,images/Ex16.jpg,right,training,hard,2,,,,,
,,,,,5f160514e2a4062d2a0ded58,001,27,male,british,A levels,2024-03-06_12h16.28.212,CRL1h,2023.2.3,Win32,60.24096386,65e67470ae2fbf2172c317b2,65e85e5f7f7d93ab53a62a7f,,,,,,,,,,,832.7563,0.9,833.6549,833.655,834.6846,right,0,1.0275,,834.6846,835.6861,4,11,75,0,1,partial,1,images/Ex9.jpg,left,training,hard,2,,,,,
,,,,,5f160514e2a4062d2a0ded58,001,27,male,british,A levels,2024-03-06_12h16.28.212,CRL1h,2023.2.3,Win32,60.24096386,65e67470ae2fbf2172c317b2,65e85e5f7f7d93ab53a62a7f,,,,,,,,,,,835.6866,0.6,836.2856,836.2856,837.0773,left,1,0.7888,,837.0775,838.0672,4,12,76,3,1,partial,1,images/Ex12.jpg,left,training,hard,2,,,,,
,,,,,5f160514e2a4062d2a0ded58,001,27,male,british,A levels,2024-03-06_12h16.28.212,CRL1h,2023.2.3,Win32,60.24096386,65e67470ae2fbf2172c317b2,65e85e5f7f7d93ab53a62a7f,,,,,,,,,,,838.0682,0.6,838.6665,838.6666,839.4992,right,1,0.8266,,839.4993,840.4979,4,13,77,12,1,partial,1,images/Ex13.jpg,right,training,hard,2,,,,,
,,,,,5f160514e2a4062d2a0ded58,001,27,male,british,A levels,2024-03-06_12h16.28.212,CRL1h,2023.2.3,Win32,60.24096386,65e67470ae2fbf2172c317b2,65e85e5f7f7d93ab53a62a7f,,,,,,,,,,,840.4996,0.5,840.9976,840.9977,842.2303,left,1,1.2272,,842.2304,843.2286,4,14,78,9,1,partial,1,images/Ex10.jpg,left,training,hard,2,,,,,
,,,,,5f160514e2a4062d2a0ded58,001,27,male,british,A levels,2024-03-06_12h16.28.212,CRL1h,2023.2.3,Win32,60.24096386,65e67470ae2fbf2172c317b2,65e85e5f7f7d93ab53a62a7f,,,,,,,,,,,843.2297,0.9,844.1276,844.1277,845.1442,right,1,1.0117,,845.1442,846.1424,4,15,79,6,1,partial,1,images/Ex15.jpg,right,training,hard,2,,,,,
,,,,,5f160514e2a4062d2a0ded58,001,27,male,british,A levels,2024-03-06_12h16.28.212,CRL1h,2023.2.3,Win32,60.24096386,65e67470ae2fbf2172c317b2,65e85e5f7f7d93ab53a62a7f,,,,,,,,,,,846.144,1.5,847.641,847.641,848.3409,right,1,0.6963,,848.3409,849.3392,5,0,80,6,1,partial,1,images/Ex15.jpg,right,training,hard,2,,,,,
,,,,,5f160514e2a4062d2a0ded58,001,27,male,british,A levels,2024-03-06_12h16.28.212,CRL1h,2023.2.3,Win32,60.24096386,65e67470ae2fbf2172c317b2,65e85e5f7f7d93ab53a62a7f,,,,,,,,,,,849.341,1.4,850.7378,850.7379,851.7208,left,1,0.9791,,851.7208,852.7191,5,1,81,8,1,partial,1,images/Ex9.jpg,left,training,hard,2,,,,,
,,,,,5f160514e2a4062d2a0ded58,001,27,male,british,A levels,2024-03-06_12h16.28.212,CRL1h,2023.2.3,Win32,60.24096386,65e67470ae2fbf2172c317b2,65e85e5f7f7d93ab53a62a7f,,,,,,,,,,,852.7204,0.7,853.4184,853.4184,854.2678,right,1,0.8442,,854.268,855.2665,5,2,82,5,1,partial,1,images/Ex14.jpg,right,training,hard,2,,,,,
,,,,,5f160514e2a4062d2a0ded58,001,27,male,british,A levels,2024-03-06_12h16.28.212,CRL1h,2023.2.3,Win32,60.24096386,65e67470ae2fbf2172c317b2,65e85e5f7f7d93ab53a62a7f,,,,,,,,,,,855.2679,0.6,855.866,855.866,856.8153,left,1,0.9444,,856.8154,857.8144,5,3,83,0,1,partial,1,images/Ex9.jpg,left,training,hard,2,,,,,
,,,,,5f160514e2a4062d2a0ded58,001,27,male,british,A levels,2024-03-06_12h16.28.212,CRL1h,2023.2.3,Win32,60.24096386,65e67470ae2fbf2172c317b2,65e85e5f7f7d93ab53a62a7f,,,,,,,,,,,857.816,0.9,858.7131,858.7132,859.2628,right,1,0.5442,,859.2628,860.2616,5,4,84,15,1,partial,1,images/Ex16.jpg,right,training,hard,2,,,,,
,,,,,5f160514e2a4062d2a0ded58,001,27,male,british,A levels,2024-03-06_12h16.28.212,CRL1h,2023.2.3,Win32,60.24096386,65e67470ae2fbf2172c317b2,65e85e5f7f7d93ab53a62a7f,,,,,,,,,,,860.2637,1.1,861.3606,861.3607,861.9792,left,1,0.6115,,861.9794,862.9755,5,5,85,10,1,partial,1,images/Ex11.jpg,left,training,hard,2,,,,,
,,,,,5f160514e2a4062d2a0ded58,001,27,male,british,A levels,2024-03-06_12h16.28.212,CRL1h,2023.2.3,Win32,60.24096386,65e67470ae2fbf2172c317b2,65e85e5f7f7d93ab53a62a7f,,,,,,,,,,,862.9767,1.1,864.0744,864.0745,864.6411,left,1,0.5608,,864.6412,865.6395,5,6,86,11,1,partial,1,images/Ex12.jpg,left,training,hard,2,,,,,
,,,,,5f160514e2a4062d2a0ded58,001,27,male,british,A levels,2024-03-06_12h16.28.212,CRL1h,2023.2.3,Win32,60.24096386,65e67470ae2fbf2172c317b2,65e85e5f7f7d93ab53a62a7f,,,,,,,,,,,865.6411,0.7,866.3388,866.3388,866.8885,left,1,0.5462,,866.8886,867.8873,5,7,87,9,1,partial,1,images/Ex10.jpg,left,training,hard,2,,,,,
,,,,,5f160514e2a4062d2a0ded58,001,27,male,british,A levels,2024-03-06_12h16.28.212,CRL1h,2023.2.3,Win32,60.24096386,65e67470ae2fbf2172c317b2,65e85e5f7f7d93ab53a62a7f,,,,,,,,,,,867.8889,1.2,869.0861,869.0861,869.6364,left,1,0.5456,,869.6364,870.6345,5,8,88,3,1,partial,1,images/Ex12.jpg,left,training,hard,2,,,,,
,,,,,5f160514e2a4062d2a0ded58,001,27,male,british,A levels,2024-03-06_12h16.28.212,CRL1h,2023.2.3,Win32,60.24096386,65e67470ae2fbf2172c317b2,65e85e5f7f7d93ab53a62a7f,,,,,,,,,,,870.6362,1.2,871.8333,871.8333,872.334,right,1,0.4988,,872.3341,873.3319,5,9,89,12,1,partial,1,images/Ex13.jpg,right,training,hard,2,,,,,
,,,,,5f160514e2a4062d2a0ded58,001,27,male,british,A levels,2024-03-06_12h16.28.212,CRL1h,2023.2.3,Win32,60.24096386,65e67470ae2fbf2172c317b2,65e85e5f7f7d93ab53a62a7f,,,,,,,,,,,873.3338,1.2,874.5308,874.5309,875.0307,right,1,0.4925,,875.0307,876.0292,5,10,90,13,1,partial,1,images/Ex14.jpg,right,training,hard,2,,,,,
,,,,,5f160514e2a4062d2a0ded58,001,27,male,british,A levels,2024-03-06_12h16.28.212,CRL1h,2023.2.3,Win32,60.24096386,65e67470ae2fbf2172c317b2,65e85e5f7f7d93ab53a62a7f,,,,,,,,,,,876.0307,0.8,876.8283,876.8283,877.3614,right,1,0.5297,,877.3614,878.3602,5,11,91,7,1,partial,1,images/Ex16.jpg,right,training,hard,2,,,,,
,,,,,5f160514e2a4062d2a0ded58,001,27,male,british,A levels,2024-03-06_12h16.28.212,CRL1h,2023.2.3,Win32,60.24096386,65e67470ae2fbf2172c317b2,65e85e5f7f7d93ab53a62a7f,,,,,,,,,,,878.3619,0.9,879.2594,879.2594,879.8256,right,1,0.5602,,879.8259,880.8245,5,12,92,4,1,partial,1,images/Ex13.jpg,right,training,hard,2,,,,,
,,,,,5f160514e2a4062d2a0ded58,001,27,male,british,A levels,2024-03-06_12h16.28.212,CRL1h,2023.2.3,Win32,60.24096386,65e67470ae2fbf2172c317b2,65e85e5f7f7d93ab53a62a7f,,,,,,,,,,,880.8256,0.7,881.5236,881.5237,882.1566,left,1,0.6279,,882.1568,883.1553,5,13,93,1,1,partial,1,images/Ex10.jpg,left,training,hard,2,,,,,
,,,,,5f160514e2a4062d2a0ded58,001,27,male,british,A levels,2024-03-06_12h16.28.212,CRL1h,2023.2.3,Win32,60.24096386,65e67470ae2fbf2172c317b2,65e85e5f7f7d93ab53a62a7f,,,,,,,,,,,883.1568,1.2,884.3541,884.3542,885.1374,left,1,0.779,,885.1374,886.1357,5,14,94,2,1,partial,1,images/Ex11.jpg,left,training,hard,2,,,,,
,,,,,5f160514e2a4062d2a0ded58,001,27,male,british,A levels,2024-03-06_12h16.28.212,CRL1h,2023.2.3,Win32,60.24096386,65e67470ae2fbf2172c317b2,65e85e5f7f7d93ab53a62a7f,,,,,,,,,,,886.1367,0.7,886.835,886.835,887.7342,right,1,0.8941,,887.7343,888.734,5,15,95,14,1,partial,1,images/Ex15.jpg,right,training,hard,2,,,,,
,,,,,5f160514e2a4062d2a0ded58,001,27,male,british,A levels,2024-03-06_12h16.28.212,CRL1h,2023.2.3,Win32,60.24096386,65e67470ae2fbf2172c317b2,65e85e5f7f7d93ab53a62a7f,,,,,,,,,,,888.7347,0.7,889.429,889.429,891.0303,left,1,1.5998,,891.0303,892.0203,6,0,96,8,1,partial,1,images/Ex9.jpg,left,training,hard,2,,,,,
,,,,,5f160514e2a4062d2a0ded58,001,27,male,british,A levels,2024-03-06_12h16.28.212,CRL1h,2023.2.3,Win32,60.24096386,65e67470ae2fbf2172c317b2,65e85e5f7f7d93ab53a62a7f,,,,,,,,,,,892.0226,0.6,892.6242,892.6243,893.5604,left,1,0.9339,,893.5605,894.5585,6,1,97,11,1,partial,1,images/Ex12.jpg,left,training,hard,2,,,,,
,,,,,5f160514e2a4062d2a0ded58,001,27,male,british,A levels,2024-03-06_12h16.28.212,CRL1h,2023.2.3,Win32,60.24096386,65e67470ae2fbf2172c317b2,65e85e5f7f7d93ab53a62a7f,,,,,,,,,,,894.559,0.9,895.4566,895.4566,896.5056,right,1,1.0451,,896.5057,897.5035,6,2,98,14,1,partial,1,images/Ex15.jpg,right,training,hard,2,,,,,
,,,,,5f160514e2a4062d2a0ded58,001,27,male,british,A levels,2024-03-06_12h16.28.212,CRL1h,2023.2.3,Win32,60.24096386,65e67470ae2fbf2172c317b2,65e85e5f7f7d93ab53a62a7f,,,,,,,,,,,897.504,1.3,898.8033,898.8033,900.0116,left,1,1.2049,,900.0118,901.0174,6,3,99,1,1,partial,1,images/Ex10.jpg,left,training,hard,2,,,,,
,,,,,5f160514e2a4062d2a0ded58,001,27,male,british,A levels,2024-03-06_12h16.28.212,CRL1h,2023.2.3,Win32,60.24096386,65e67470ae2fbf2172c317b2,65e85e5f7f7d93ab53a62a7f,,,,,,,,,,,901.0178,0.7,901.7122,901.7124,905.0826,right,1,3.3672,,905.0826,906.0824,6,4,100,5,1,partial,1,images/Ex14.jpg,right,training,hard,2,,,,,
,,,,,5f160514e2a4062d2a0ded58,001,27,male,british,A levels,2024-03-06_12h16.28.212,CRL1h,2023.2.3,Win32,60.24096386,65e67470ae2fbf2172c317b2,65e85e5f7f7d93ab53a62a7f,,,,,,,,,,,906.083,1.4,907.4783,907.4784,908.1105,left,1,0.6309,,908.1105,909.1006,6,5,101,3,1,partial,1,images/Ex12.jpg,left,training,hard,2,,,,,
,,,,,5f160514e2a4062d2a0ded58,001,27,male,british,A levels,2024-03-06_12h16.28.212,CRL1h,2023.2.3,Win32,60.24096386,65e67470ae2fbf2172c317b2,65e85e5f7f7d93ab53a62a7f,,,,,,,,,,,909.1033,0.6,909.6916,909.6917,910.3948,right,1,0.7007,,910.3949,911.3905,6,6,102,4,1,partial,1,images/Ex13.jpg,right,training,hard,2,,,,,
,,,,,5f160514e2a4062d2a0ded58,001,27,male,british,A levels,2024-03-06_12h16.28.212,CRL1h,2023.2.3,Win32,60.24096386,65e67470ae2fbf2172c317b2,65e85e5f7f7d93ab53a62a7f,,,,,,,,,,,911.3908,0.5,911.8834,911.8837,912.5237,left,1,0.6366,,912.5238,913.525,6,7,103,9,1,partial,1,images/Ex10.jpg,left,training,hard,2,,,,,
,,,,,5f160514e2a4062d2a0ded58,001,27,male,british,A levels,2024-03-06_12h16.28.212,CRL1h,2023.2.3,Win32,60.24096386,65e67470ae2fbf2172c317b2,65e85e5f7f7d93ab53a62a7f,,,,,,,,,,,913.5265,1.3,914.8236,914.8236,915.407,right,0,0.5794,,915.4071,916.4054,6,8,104,0,1,partial,1,images/Ex9.jpg,left,training,hard,2,,,,,
,,,,,5f160514e2a4062d2a0ded58,001,27,male,british,A levels,2024-03-06_12h16.28.212,CRL1h,2023.2.3,Win32,60.24096386,65e67470ae2fbf2172c317b2,65e85e5f7f7d93ab53a62a7f,,,,,,,,,,,916.4065,1.4,917.8039,917.804,918.5207,left,1,0.7114,,918.5207,919.519,6,9,105,2,1,partial,1,images/Ex11.jpg,left,training,hard,2,,,,,
,,,,,5f160514e2a4062d2a0ded58,001,27,male,british,A levels,2024-03-06_12h16.28.212,CRL1h,2023.2.3,Win32,60.24096386,65e67470ae2fbf2172c317b2,65e85e5f7f7d93ab53a62a7f,,,,,,,,,,,919.5199,1,920.5179,920.5179,921.2514,right,1,0.7286,,921.2515,922.2495,6,10,106,15,1,partial,1,images/Ex16.jpg,right,training,hard,2,,,,,
,,,,,5f160514e2a4062d2a0ded58,001,27,male,british,A levels,2024-03-06_12h16.28.212,CRL1h,2023.2.3,Win32,60.24096386,65e67470ae2fbf2172c317b2,65e85e5f7f7d93ab53a62a7f,,,,,,,,,,,922.2509,0.6,922.849,922.849,924.3979,right,1,1.5428,,924.398,925.3963,6,11,107,6,1,partial,1,images/Ex15.jpg,right,training,hard,2,,,,,
,,,,,5f160514e2a4062d2a0ded58,001,27,male,british,A levels,2024-03-06_12h16.28.212,CRL1h,2023.2.3,Win32,60.24096386,65e67470ae2fbf2172c317b2,65e85e5f7f7d93ab53a62a7f,,,,,,,,,,,925.398,1,926.3953,926.3953,927.7115,left,1,1.3115,,927.7115,928.7096,6,12,108,10,1,partial,1,images/Ex11.jpg,left,training,hard,2,,,,,
,,,,,5f160514e2a4062d2a0ded58,001,27,male,british,A levels,2024-03-06_12h16.28.212,CRL1h,2023.2.3,Win32,60.24096386,65e67470ae2fbf2172c317b2,65e85e5f7f7d93ab53a62a7f,,,,,,,,,,,928.7105,1.5,930.208,930.208,931.1079,right,1,0.8944,,931.1079,932.1061,6,13,109,7,1,partial,1,images/Ex16.jpg,right,training,hard,2,,,,,
,,,,,5f160514e2a4062d2a0ded58,001,27,male,british,A levels,2024-03-06_12h16.28.212,CRL1h,2023.2.3,Win32,60.24096386,65e67470ae2fbf2172c317b2,65e85e5f7f7d93ab53a62a7f,,,,,,,,,,,932.1072,0.9,933.0053,933.0053,933.6216,right,1,0.6103,,933.6217,934.6203,6,14,110,12,1,partial,1,images/Ex13.jpg,right,training,hard,2,,,,,
,,,,,5f160514e2a4062d2a0ded58,001,27,male,british,A levels,2024-03-06_12h16.28.212,CRL1h,2023.2.3,Win32,60.24096386,65e67470ae2fbf2172c317b2,65e85e5f7f7d93ab53a62a7f,,,,,,,,,,,934.6214,1.4,936.019,936.0191,936.8022,right,1,0.7771,,936.8023,937.8006,6,15,111,13,1,partial,1,images/Ex14.jpg,right,training,hard,2,,,,,
,,,,,5f160514e2a4062d2a0ded58,001,27,male,british,A levels,2024-03-06_12h16.28.212,CRL1h,2023.2.3,Win32,60.24096386,65e67470ae2fbf2172c317b2,65e85e5f7f7d93ab53a62a7f,,,,,,,,,,,937.8017,0.9,938.6997,938.6997,939.3492,right,1,0.645,,939.3492,940.3483,7,0,112,12,1,partial,1,images/Ex13.jpg,right,training,hard,2,,,,,
,,,,,5f160514e2a4062d2a0ded58,001,27,male,british,A levels,2024-03-06_12h16.28.212,CRL1h,2023.2.3,Win32,60.24096386,65e67470ae2fbf2172c317b2,65e85e5f7f7d93ab53a62a7f,,,,,,,,,,,940.3503,0.7,941.0473,941.0473,941.9465,left,1,0.8934,,941.9466,942.9452,7,1,113,2,1,partial,1,images/Ex11.jpg,left,training,hard,2,,,,,
,,,,,5f160514e2a4062d2a0ded58,001,27,male,british,A levels,2024-03-06_12h16.28.212,CRL1h,2023.2.3,Win32,60.24096386,65e67470ae2fbf2172c317b2,65e85e5f7f7d93ab53a62a7f,,,,,,,,,,,942.9463,1.4,944.344,944.344,945.0106,left,1,0.6624,,945.0106,946.0089,7,2,114,8,1,partial,1,images/Ex9.jpg,left,training,hard,2,,,,,
,,,,,5f160514e2a4062d2a0ded58,001,27,male,british,A levels,2024-03-06_12h16.28.212,CRL1h,2023.2.3,Win32,60.24096386,65e67470ae2fbf2172c317b2,65e85e5f7f7d93ab53a62a7f,,,,,,,,,,,946.0104,1,947.0079,947.008,947.675,right,1,0.6621,,947.675,948.673,7,3,115,14,1,partial,1,images/Ex15.jpg,right,training,hard,2,,,,,
,,,,,5f160514e2a4062d2a0ded58,001,27,male,british,A levels,2024-03-06_12h16.28.212,CRL1h,2023.2.3,Win32,60.24096386,65e67470ae2fbf2172c317b2,65e85e5f7f7d93ab53a62a7f,,,,,,,,,,,948.674,1.1,949.772,949.772,950.7215,left,1,0.944,,950.7215,951.7198,7,4,116,10,1,partial,1,images/Ex11.jpg,left,training,hard,2,,,,,
,,,,,5f160514e2a4062d2a0ded58,001,27,male,british,A levels,2024-03-06_12h16.28.212,CRL1h,2023.2.3,Win32,60.24096386,65e67470ae2fbf2172c317b2,65e85e5f7f7d93ab53a62a7f,,,,,,,,,,,951.7203,1,952.719,952.719,953.3525,left,1,0.6276,,953.3526,954.3506,7,5,117,11,1,partial,1,images/Ex12.jpg,left,training,hard,2,,,,,
,,,,,5f160514e2a4062d2a0ded58,001,27,male,british,A levels,2024-03-06_12h16.28.212,CRL1h,2023.2.3,Win32,60.24096386,65e67470ae2fbf2172c317b2,65e85e5f7f7d93ab53a62a7f,,,,,,,,,,,954.3529,1.3,955.6493,955.6493,956.0998,left,0,0.4461,,956.0998,957.0979,7,6,118,4,1,partial,1,images/Ex13.jpg,right,training,hard,2,,,,,
,,,,,5f160514e2a4062d2a0ded58,001,27,male,british,A levels,2024-03-06_12h16.28.212,CRL1h,2023.2.3,Win32,60.24096386,65e67470ae2fbf2172c317b2,65e85e5f7f7d93ab53a62a7f,,,,,,,,,,,957.0989,0.6,957.6972,957.6973,958.53,left,1,0.8267,,958.53,959.5288,7,7,119,0,1,partial,1,images/Ex9.jpg,left,training,hard,2,,,,,
,,,,,5f160514e2a4062d2a0ded58,001,27,male,british,A levels,2024-03-06_12h16.28.212,CRL1h,2023.2.3,Win32,60.24096386,65e67470ae2fbf2172c317b2,65e85e5f7f7d93ab53a62a7f,,,,,,,,,,,959.5303,0.5,960.0282,960.0282,960.761,right,1,0.7279,,960.7611,961.7598,7,8,120,5,1,partial,1,images/Ex14.jpg,right,training,hard,2,,,,,
,,,,,5f160514e2a4062d2a0ded58,001,27,male,british,A levels,2024-03-06_12h16.28.212,CRL1h,2023.2.3,Win32,60.24096386,65e67470ae2fbf2172c317b2,65e85e5f7f7d93ab53a62a7f,,,,,,,,,,,961.7608,0.5,962.2594,962.2594,962.909,left,1,0.6447,,962.9093,963.9076,7,9,121,1,1,partial,1,images/Ex10.jpg,left,training,hard,2,,,,,
,,,,,5f160514e2a4062d2a0ded58,001,27,male,british,A levels,2024-03-06_12h16.28.212,CRL1h,2023.2.3,Win32,60.24096386,65e67470ae2fbf2172c317b2,65e85e5f7f7d93ab53a62a7f,,,,,,,,,,,963.9085,1.1,965.0066,965.0066,965.6083,right,1,0.598,,965.6085,966.6051,7,10,122,13,1,partial,1,images/Ex14.jpg,right,training,hard,2,,,,,
,,,,,5f160514e2a4062d2a0ded58,001,27,male,british,A levels,2024-03-06_12h16.28.212,CRL1h,2023.2.3,Win32,60.24096386,65e67470ae2fbf2172c317b2,65e85e5f7f7d93ab53a62a7f,,,,,,,,,,,966.6065,1.3,967.9036,967.9037,968.3705,right,0,0.4622,,968.3706,969.3689,7,11,123,9,1,partial,1,images/Ex10.jpg,left,training,hard,2,,,,,
,,,,,5f160514e2a4062d2a0ded58,001,27,male,british,A levels,2024-03-06_12h16.28.212,CRL1h,2023.2.3,Win32,60.24096386,65e67470ae2fbf2172c317b2,65e85e5f7f7d93ab53a62a7f,,,,,,,,,,,969.3701,0.8,970.1681,970.1681,970.7178,right,1,0.5444,,970.7178,971.7165,7,12,124,7,1,partial,1,images/Ex16.jpg,right,training,hard,2,,,,,
