infCons.started,infCons.stopped,resp_consent.keys,resp_consent.rt,resp_consent.duration,participant,session,Age?,Gender?,Nationality?,Highest Educational Degree?,date,expName,psychopyVersion,OS,frameRate,STUDY_ID,SESSION_ID,instructions.started,instructions.stopped,resp_instructions.keys,resp_instructions.rt,resp_instructions.duration,nextTask.started,nextTask.stopped,ready_task.keys,ready_task.rt,ready_task.duration,fixation.started,ITI,fixation.stopped,stim.started,stim.stopped,response.keys,response.corr,response.rt,response.duration,feedback.started,feedback.stopped,trials.thisRepN,trials.thisTrialN,trials.thisN,trials.thisIndex,trials.ran,task,phase,Exemplars,r_correct,condition,difficulty,set,end.started,end.stopped,resp_end.keys,resp_end.rt,resp_end.duration
0.0008,39.1086,space,38.9205,,5f3ec93efbd299158253f283,001,51,male,UK,BA hons,2024-03-06_15h52.32.295,CRL1h,2023.2.3,Win32,19.84126984,65e67470ae2fbf2172c317b2,65e890bfdff7ad8b253a0bec,,,,,,,,,,,,,,,,,,,,,,,,,,,,,,,,,,,,,,
,,,,,5f3ec93efbd299158253f283,001,51,male,UK,BA hons,2024-03-06_15h52.32.295,CRL1h,2023.2.3,Win32,19.84126984,65e67470ae2fbf2172c317b2,65e890bfdff7ad8b253a0bec,39.1093,77.0016,space,37.8186,,,,,,,,,,,,,,,,,,,,,,,,,,,,,,,,,,
,,,,,5f3ec93efbd299158253f283,001,51,male,UK,BA hons,2024-03-06_15h52.32.295,CRL1h,2023.2.3,Win32,19.84126984,65e67470ae2fbf2172c317b2,65e890bfdff7ad8b253a0bec,,,,,,77.0545,82.3081,space,5.1898,,82.3634,0.6,82.9522,82.9526,88.6403,right,0,5.5979,,88.6759,89.6322,0,0,0,8,1,partial,1,images/Ex1.jpg,left,training,hard,4,,,,,
,,,,,5f3ec93efbd299158253f283,001,51,male,UK,BA hons,2024-03-06_15h52.32.295,CRL1h,2023.2.3,Win32,19.84126984,65e67470ae2fbf2172c317b2,65e890bfdff7ad8b253a0bec,,,,,,,,,,,89.634,0.5,90.1287,90.1291,91.6416,right,1,1.5087,,91.6417,92.6638,0,1,1,4,1,partial,1,images/Ex5.jpg,right,training,hard,4,,,,,
,,,,,5f3ec93efbd299158253f283,001,51,male,UK,BA hons,2024-03-06_15h52.32.295,CRL1h,2023.2.3,Win32,19.84126984,65e67470ae2fbf2172c317b2,65e890bfdff7ad8b253a0bec,,,,,,,,,,,92.6651,0.7,93.3504,93.3504,94.6673,right,0,1.3132,,94.6674,95.6325,0,2,2,10,1,partial,1,images/Ex3.jpg,left,training,hard,4,,,,,
,,,,,5f3ec93efbd299158253f283,001,51,male,UK,BA hons,2024-03-06_15h52.32.295,CRL1h,2023.2.3,Win32,19.84126984,65e67470ae2fbf2172c317b2,65e890bfdff7ad8b253a0bec,,,,,,,,,,,95.6336,1.5,97.1333,97.1334,98.2664,left,1,1.1304,,98.2665,99.2786,0,3,3,1,1,partial,1,images/Ex2.jpg,left,training,hard,4,,,,,
,,,,,5f3ec93efbd299158253f283,001,51,male,UK,BA hons,2024-03-06_15h52.32.295,CRL1h,2023.2.3,Win32,19.84126984,65e67470ae2fbf2172c317b2,65e890bfdff7ad8b253a0bec,,,,,,,,,,,99.2802,1.4,100.6429,100.6429,101.473,left,1,0.8276,,101.4731,102.4286,0,4,4,9,1,partial,1,images/Ex2.jpg,left,training,hard,4,,,,,
,,,,,5f3ec93efbd299158253f283,001,51,male,UK,BA hons,2024-03-06_15h52.32.295,CRL1h,2023.2.3,Win32,19.84126984,65e67470ae2fbf2172c317b2,65e890bfdff7ad8b253a0bec,,,,,,,,,,,102.43,1.4,103.8075,103.8076,104.8712,right,0,1.0594,,104.8714,105.8241,0,5,5,3,1,partial,1,images/Ex4.jpg,left,training,hard,4,,,,,
,,,,,5f3ec93efbd299158253f283,001,51,male,UK,BA hons,2024-03-06_15h52.32.295,CRL1h,2023.2.3,Win32,19.84126984,65e67470ae2fbf2172c317b2,65e890bfdff7ad8b253a0bec,,,,,,,,,,,105.8251,1.4,107.1855,107.1856,108.571,right,1,1.3817,,108.5712,109.5327,0,6,6,15,1,partial,1,images/Ex8.jpg,right,training,hard,4,,,,,
,,,,,5f3ec93efbd299158253f283,001,51,male,UK,BA hons,2024-03-06_15h52.32.295,CRL1h,2023.2.3,Win32,19.84126984,65e67470ae2fbf2172c317b2,65e890bfdff7ad8b253a0bec,,,,,,,,,,,109.5336,1.2,110.7319,110.732,112.0524,left,0,1.3125,,112.0526,113.0589,0,7,7,12,1,partial,1,images/Ex5.jpg,right,training,hard,4,,,,,
,,,,,5f3ec93efbd299158253f283,001,51,male,UK,BA hons,2024-03-06_15h52.32.295,CRL1h,2023.2.3,Win32,19.84126984,65e67470ae2fbf2172c317b2,65e890bfdff7ad8b253a0bec,,,,,,,,,,,113.0607,1.1,114.1328,114.1328,115.5105,left,1,1.3738,,115.5107,116.464,0,8,8,0,1,partial,1,images/Ex1.jpg,left,training,hard,4,,,,,
,,,,,5f3ec93efbd299158253f283,001,51,male,UK,BA hons,2024-03-06_15h52.32.295,CRL1h,2023.2.3,Win32,19.84126984,65e67470ae2fbf2172c317b2,65e890bfdff7ad8b253a0bec,,,,,,,,,,,116.4651,1,117.4577,117.4578,118.8866,right,0,1.4255,,118.8867,119.8634,0,9,9,11,1,partial,1,images/Ex4.jpg,left,training,hard,4,,,,,
,,,,,5f3ec93efbd299158253f283,001,51,male,UK,BA hons,2024-03-06_15h52.32.295,CRL1h,2023.2.3,Win32,19.84126984,65e67470ae2fbf2172c317b2,65e890bfdff7ad8b253a0bec,,,,,,,,,,,119.8647,1.1,120.9207,120.9208,122.2342,left,1,1.3098,,122.2342,123.2206,0,10,10,2,1,partial,1,images/Ex3.jpg,left,training,hard,4,,,,,
,,,,,5f3ec93efbd299158253f283,001,51,male,UK,BA hons,2024-03-06_15h52.32.295,CRL1h,2023.2.3,Win32,19.84126984,65e67470ae2fbf2172c317b2,65e890bfdff7ad8b253a0bec,,,,,,,,,,,123.2571,1,124.2472,124.2473,125.3758,left,0,1.126,,125.3759,126.329,0,11,11,6,1,partial,1,images/Ex7.jpg,right,training,hard,4,,,,,
,,,,,5f3ec93efbd299158253f283,001,51,male,UK,BA hons,2024-03-06_15h52.32.295,CRL1h,2023.2.3,Win32,19.84126984,65e67470ae2fbf2172c317b2,65e890bfdff7ad8b253a0bec,,,,,,,,,,,126.3305,1.4,127.7533,127.7533,129.2638,right,1,1.5068,,129.2639,130.2141,0,12,12,13,1,partial,1,images/Ex6.jpg,right,training,hard,4,,,,,
,,,,,5f3ec93efbd299158253f283,001,51,male,UK,BA hons,2024-03-06_15h52.32.295,CRL1h,2023.2.3,Win32,19.84126984,65e67470ae2fbf2172c317b2,65e890bfdff7ad8b253a0bec,,,,,,,,,,,130.2148,1.2,131.3845,131.3846,132.5075,left,0,1.1203,,132.5076,133.4589,0,13,13,7,1,partial,1,images/Ex8.jpg,right,training,hard,4,,,,,
,,,,,5f3ec93efbd299158253f283,001,51,male,UK,BA hons,2024-03-06_15h52.32.295,CRL1h,2023.2.3,Win32,19.84126984,65e67470ae2fbf2172c317b2,65e890bfdff7ad8b253a0bec,,,,,,,,,,,133.4606,0.5,133.9508,133.9509,134.9185,left,0,0.9654,,134.9186,135.9237,0,14,14,5,1,partial,1,images/Ex6.jpg,right,training,hard,4,,,,,
,,,,,5f3ec93efbd299158253f283,001,51,male,UK,BA hons,2024-03-06_15h52.32.295,CRL1h,2023.2.3,Win32,19.84126984,65e67470ae2fbf2172c317b2,65e890bfdff7ad8b253a0bec,,,,,,,,,,,135.925,1.4,137.2848,137.2849,138.738,right,1,1.4499,,138.7381,139.6917,0,15,15,14,1,partial,1,images/Ex7.jpg,right,training,hard,4,,,,,
,,,,,5f3ec93efbd299158253f283,001,51,male,UK,BA hons,2024-03-06_15h52.32.295,CRL1h,2023.2.3,Win32,19.84126984,65e67470ae2fbf2172c317b2,65e890bfdff7ad8b253a0bec,,,,,,,,,,,139.6931,0.9,140.5835,140.5836,141.557,left,0,0.9699,,141.5571,142.5246,1,0,16,4,1,partial,1,images/Ex5.jpg,right,training,hard,4,,,,,
,,,,,5f3ec93efbd299158253f283,001,51,male,UK,BA hons,2024-03-06_15h52.32.295,CRL1h,2023.2.3,Win32,19.84126984,65e67470ae2fbf2172c317b2,65e890bfdff7ad8b253a0bec,,,,,,,,,,,142.526,1.2,143.7166,143.7167,144.9543,right,1,1.2349,,144.9543,145.9098,1,1,17,15,1,partial,1,images/Ex8.jpg,right,training,hard,4,,,,,
,,,,,5f3ec93efbd299158253f283,001,51,male,UK,BA hons,2024-03-06_15h52.32.295,CRL1h,2023.2.3,Win32,19.84126984,65e67470ae2fbf2172c317b2,65e890bfdff7ad8b253a0bec,,,,,,,,,,,145.9109,1.4,147.2854,147.2856,148.5071,left,1,1.219,,148.5072,149.5119,1,2,18,10,1,partial,1,images/Ex3.jpg,left,training,hard,4,,,,,
,,,,,5f3ec93efbd299158253f283,001,51,male,UK,BA hons,2024-03-06_15h52.32.295,CRL1h,2023.2.3,Win32,19.84126984,65e67470ae2fbf2172c317b2,65e890bfdff7ad8b253a0bec,,,,,,,,,,,149.5132,1.1,150.5651,150.5652,151.5876,right,1,1.0197,,151.5877,152.5415,1,3,19,13,1,partial,1,images/Ex6.jpg,right,training,hard,4,,,,,
,,,,,5f3ec93efbd299158253f283,001,51,male,UK,BA hons,2024-03-06_15h52.32.295,CRL1h,2023.2.3,Win32,19.84126984,65e67470ae2fbf2172c317b2,65e890bfdff7ad8b253a0bec,,,,,,,,,,,152.543,0.6,153.0969,153.097,154.3699,right,1,1.2701,,154.37,155.3218,1,4,20,6,1,partial,1,images/Ex7.jpg,right,training,hard,4,,,,,
,,,,,5f3ec93efbd299158253f283,001,51,male,UK,BA hons,2024-03-06_15h52.32.295,CRL1h,2023.2.3,Win32,19.84126984,65e67470ae2fbf2172c317b2,65e890bfdff7ad8b253a0bec,,,,,,,,,,,155.3225,0.7,156.0032,156.0032,157.4483,left,1,1.442,,157.4483,158.4554,1,5,21,9,1,partial,1,images/Ex2.jpg,left,training,hard,4,,,,,
,,,,,5f3ec93efbd299158253f283,001,51,male,UK,BA hons,2024-03-06_15h52.32.295,CRL1h,2023.2.3,Win32,19.84126984,65e67470ae2fbf2172c317b2,65e890bfdff7ad8b253a0bec,,,,,,,,,,,158.4562,0.8,159.2602,159.2603,160.6685,right,1,1.4049,,160.6685,161.6244,1,6,22,12,1,partial,1,images/Ex5.jpg,right,training,hard,4,,,,,
,,,,,5f3ec93efbd299158253f283,001,51,male,UK,BA hons,2024-03-06_15h52.32.295,CRL1h,2023.2.3,Win32,19.84126984,65e67470ae2fbf2172c317b2,65e890bfdff7ad8b253a0bec,,,,,,,,,,,161.6256,1.2,162.7964,162.7964,164.0814,right,0,1.2816,,164.0814,165.0352,1,7,23,11,1,partial,1,images/Ex4.jpg,left,training,hard,4,,,,,
,,,,,5f3ec93efbd299158253f283,001,51,male,UK,BA hons,2024-03-06_15h52.32.295,CRL1h,2023.2.3,Win32,19.84126984,65e67470ae2fbf2172c317b2,65e890bfdff7ad8b253a0bec,,,,,,,,,,,165.0722,0.7,165.7462,165.7463,167.0156,right,1,1.2666,,167.0157,168.0348,1,8,24,7,1,partial,1,images/Ex8.jpg,right,training,hard,4,,,,,
,,,,,5f3ec93efbd299158253f283,001,51,male,UK,BA hons,2024-03-06_15h52.32.295,CRL1h,2023.2.3,Win32,19.84126984,65e67470ae2fbf2172c317b2,65e890bfdff7ad8b253a0bec,,,,,,,,,,,168.036,0.9,168.9117,168.9117,170.0714,right,0,1.1567,,170.0715,171.0859,1,9,25,1,1,partial,1,images/Ex2.jpg,left,training,hard,4,,,,,
,,,,,5f3ec93efbd299158253f283,001,51,male,UK,BA hons,2024-03-06_15h52.32.295,CRL1h,2023.2.3,Win32,19.84126984,65e67470ae2fbf2172c317b2,65e890bfdff7ad8b253a0bec,,,,,,,,,,,171.0873,0.7,171.7708,171.7708,172.7926,left,1,1.0194,,172.7927,173.7457,1,10,26,8,1,partial,1,images/Ex1.jpg,left,training,hard,4,,,,,
,,,,,5f3ec93efbd299158253f283,001,51,male,UK,BA hons,2024-03-06_15h52.32.295,CRL1h,2023.2.3,Win32,19.84126984,65e67470ae2fbf2172c317b2,65e890bfdff7ad8b253a0bec,,,,,,,,,,,173.7466,0.7,174.4305,174.4306,175.2334,left,1,0.8012,,175.2336,176.1915,1,11,27,0,1,partial,1,images/Ex1.jpg,left,training,hard,4,,,,,
,,,,,5f3ec93efbd299158253f283,001,51,male,UK,BA hons,2024-03-06_15h52.32.295,CRL1h,2023.2.3,Win32,19.84126984,65e67470ae2fbf2172c317b2,65e890bfdff7ad8b253a0bec,,,,,,,,,,,176.1929,0.5,176.6904,176.6905,178.1546,right,1,1.4616,,178.1548,179.1734,1,12,28,14,1,partial,1,images/Ex7.jpg,right,training,hard,4,,,,,
,,,,,5f3ec93efbd299158253f283,001,51,male,UK,BA hons,2024-03-06_15h52.32.295,CRL1h,2023.2.3,Win32,19.84126984,65e67470ae2fbf2172c317b2,65e890bfdff7ad8b253a0bec,,,,,,,,,,,179.1747,1.1,180.226,180.2261,181.5808,right,0,1.3505,,181.5813,182.5357,1,13,29,3,1,partial,1,images/Ex4.jpg,left,training,hard,4,,,,,
,,,,,5f3ec93efbd299158253f283,001,51,male,UK,BA hons,2024-03-06_15h52.32.295,CRL1h,2023.2.3,Win32,19.84126984,65e67470ae2fbf2172c317b2,65e890bfdff7ad8b253a0bec,,,,,,,,,,,182.5364,0.7,183.2112,183.2112,184.4205,right,1,1.2056,,184.4206,185.4382,1,14,30,5,1,partial,1,images/Ex6.jpg,right,training,hard,4,,,,,
,,,,,5f3ec93efbd299158253f283,001,51,male,UK,BA hons,2024-03-06_15h52.32.295,CRL1h,2023.2.3,Win32,19.84126984,65e67470ae2fbf2172c317b2,65e890bfdff7ad8b253a0bec,,,,,,,,,,,185.4397,0.7,186.1212,186.1213,187.4645,left,1,1.3404,,187.4645,188.4182,1,15,31,2,1,partial,1,images/Ex3.jpg,left,training,hard,4,,,,,
,,,,,5f3ec93efbd299158253f283,001,51,male,UK,BA hons,2024-03-06_15h52.32.295,CRL1h,2023.2.3,Win32,19.84126984,65e67470ae2fbf2172c317b2,65e890bfdff7ad8b253a0bec,,,,,,,,,,,188.4196,1.3,189.7176,189.7176,190.7638,right,1,1.0433,,190.7638,191.7729,2,0,32,5,1,partial,1,images/Ex6.jpg,right,training,hard,4,,,,,
,,,,,5f3ec93efbd299158253f283,001,51,male,UK,BA hons,2024-03-06_15h52.32.295,CRL1h,2023.2.3,Win32,19.84126984,65e67470ae2fbf2172c317b2,65e890bfdff7ad8b253a0bec,,,,,,,,,,,191.7736,1.2,192.9416,192.9417,193.9087,left,1,0.9631,,193.9094,194.8672,2,1,33,0,1,partial,1,images/Ex1.jpg,left,training,hard,4,,,,,
,,,,,5f3ec93efbd299158253f283,001,51,male,UK,BA hons,2024-03-06_15h52.32.295,CRL1h,2023.2.3,Win32,19.84126984,65e67470ae2fbf2172c317b2,65e890bfdff7ad8b253a0bec,,,,,,,,,,,194.8685,1,195.86,195.8601,197.0164,right,1,1.1542,,197.0165,198.0241,2,2,34,12,1,partial,1,images/Ex5.jpg,right,training,hard,4,,,,,
,,,,,5f3ec93efbd299158253f283,001,51,male,UK,BA hons,2024-03-06_15h52.32.295,CRL1h,2023.2.3,Win32,19.84126984,65e67470ae2fbf2172c317b2,65e890bfdff7ad8b253a0bec,,,,,,,,,,,198.025,0.9,198.9058,198.9059,200.0526,left,1,1.1448,,200.0528,201.065,2,3,35,11,1,partial,1,images/Ex4.jpg,left,training,hard,4,,,,,
,,,,,5f3ec93efbd299158253f283,001,51,male,UK,BA hons,2024-03-06_15h52.32.295,CRL1h,2023.2.3,Win32,19.84126984,65e67470ae2fbf2172c317b2,65e890bfdff7ad8b253a0bec,,,,,,,,,,,201.0661,1.1,202.1198,202.1198,203.4005,right,1,1.2775,,203.4005,204.4106,2,4,36,15,1,partial,1,images/Ex8.jpg,right,training,hard,4,,,,,
,,,,,5f3ec93efbd299158253f283,001,51,male,UK,BA hons,2024-03-06_15h52.32.295,CRL1h,2023.2.3,Win32,19.84126984,65e67470ae2fbf2172c317b2,65e890bfdff7ad8b253a0bec,,,,,,,,,,,204.4121,1.2,205.5873,205.5874,206.6741,left,0,1.0839,,206.6741,207.6826,2,5,37,13,1,partial,1,images/Ex6.jpg,right,training,hard,4,,,,,
,,,,,5f3ec93efbd299158253f283,001,51,male,UK,BA hons,2024-03-06_15h52.32.295,CRL1h,2023.2.3,Win32,19.84126984,65e67470ae2fbf2172c317b2,65e890bfdff7ad8b253a0bec,,,,,,,,,,,207.6835,1.1,208.7901,208.7903,210.1966,left,0,1.4043,,210.1967,211.1999,2,6,38,6,1,partial,1,images/Ex7.jpg,right,training,hard,4,,,,,
,,,,,5f3ec93efbd299158253f283,001,51,male,UK,BA hons,2024-03-06_15h52.32.295,CRL1h,2023.2.3,Win32,19.84126984,65e67470ae2fbf2172c317b2,65e890bfdff7ad8b253a0bec,,,,,,,,,,,211.2364,0.6,211.7866,211.7867,212.5482,left,1,0.7592,,212.5482,213.5523,2,7,39,8,1,partial,1,images/Ex1.jpg,left,training,hard,4,,,,,
,,,,,5f3ec93efbd299158253f283,001,51,male,UK,BA hons,2024-03-06_15h52.32.295,CRL1h,2023.2.3,Win32,19.84126984,65e67470ae2fbf2172c317b2,65e890bfdff7ad8b253a0bec,,,,,,,,,,,213.5534,0.7,214.2307,214.2307,215.2475,left,0,1.0129,,215.248,216.2571,2,8,40,7,1,partial,1,images/Ex8.jpg,right,training,hard,4,,,,,
,,,,,5f3ec93efbd299158253f283,001,51,male,UK,BA hons,2024-03-06_15h52.32.295,CRL1h,2023.2.3,Win32,19.84126984,65e67470ae2fbf2172c317b2,65e890bfdff7ad8b253a0bec,,,,,,,,,,,216.2584,1.3,217.56,217.5601,218.3981,left,1,0.8359,,218.3983,219.35,2,9,41,10,1,partial,1,images/Ex3.jpg,left,training,hard,4,,,,,
,,,,,5f3ec93efbd299158253f283,001,51,male,UK,BA hons,2024-03-06_15h52.32.295,CRL1h,2023.2.3,Win32,19.84126984,65e67470ae2fbf2172c317b2,65e890bfdff7ad8b253a0bec,,,,,,,,,,,219.3514,1.3,220.6495,220.6496,221.4061,left,1,0.7537,,221.4062,222.4145,2,10,42,2,1,partial,1,images/Ex3.jpg,left,training,hard,4,,,,,
,,,,,5f3ec93efbd299158253f283,001,51,male,UK,BA hons,2024-03-06_15h52.32.295,CRL1h,2023.2.3,Win32,19.84126984,65e67470ae2fbf2172c317b2,65e890bfdff7ad8b253a0bec,,,,,,,,,,,222.416,1,223.4042,223.4043,224.4306,left,1,1.0234,,224.4306,225.384,2,11,43,1,1,partial,1,images/Ex2.jpg,left,training,hard,4,,,,,
,,,,,5f3ec93efbd299158253f283,001,51,male,UK,BA hons,2024-03-06_15h52.32.295,CRL1h,2023.2.3,Win32,19.84126984,65e67470ae2fbf2172c317b2,65e890bfdff7ad8b253a0bec,,,,,,,,,,,225.3849,1,226.3703,226.3704,227.5216,right,1,1.1491,,227.5217,228.5397,2,12,44,14,1,partial,1,images/Ex7.jpg,right,training,hard,4,,,,,
,,,,,5f3ec93efbd299158253f283,001,51,male,UK,BA hons,2024-03-06_15h52.32.295,CRL1h,2023.2.3,Win32,19.84126984,65e67470ae2fbf2172c317b2,65e890bfdff7ad8b253a0bec,,,,,,,,,,,228.5406,1.3,229.838,229.8382,231.0343,right,0,1.1877,,231.0343,232.031,2,13,45,9,1,partial,1,images/Ex2.jpg,left,training,hard,4,,,,,
,,,,,5f3ec93efbd299158253f283,001,51,male,UK,BA hons,2024-03-06_15h52.32.295,CRL1h,2023.2.3,Win32,19.84126984,65e67470ae2fbf2172c317b2,65e890bfdff7ad8b253a0bec,,,,,,,,,,,232.0318,1.2,233.2099,233.2099,234.367,left,1,1.1517,,234.3671,235.3666,2,14,46,3,1,partial,1,images/Ex4.jpg,left,training,hard,4,,,,,
,,,,,5f3ec93efbd299158253f283,001,51,male,UK,BA hons,2024-03-06_15h52.32.295,CRL1h,2023.2.3,Win32,19.84126984,65e67470ae2fbf2172c317b2,65e890bfdff7ad8b253a0bec,,,,,,,,,,,235.368,1.1,236.4222,236.4223,237.2005,left,0,0.7759,,237.2007,238.2123,2,15,47,4,1,partial,1,images/Ex5.jpg,right,training,hard,4,,,,,
,,,,,5f3ec93efbd299158253f283,001,51,male,UK,BA hons,2024-03-06_15h52.32.295,CRL1h,2023.2.3,Win32,19.84126984,65e67470ae2fbf2172c317b2,65e890bfdff7ad8b253a0bec,,,,,,,,,,,238.213,1.3,239.5141,239.5141,240.2325,left,1,0.7151,,240.2325,241.2096,3,0,48,0,1,partial,1,images/Ex1.jpg,left,training,hard,4,,,,,
,,,,,5f3ec93efbd299158253f283,001,51,male,UK,BA hons,2024-03-06_15h52.32.295,CRL1h,2023.2.3,Win32,19.84126984,65e67470ae2fbf2172c317b2,65e890bfdff7ad8b253a0bec,,,,,,,,,,,241.2108,1.1,242.2646,242.2646,243.0362,left,1,0.7678,,243.0363,243.9993,3,1,49,10,1,partial,1,images/Ex3.jpg,left,training,hard,4,,,,,
,,,,,5f3ec93efbd299158253f283,001,51,male,UK,BA hons,2024-03-06_15h52.32.295,CRL1h,2023.2.3,Win32,19.84126984,65e67470ae2fbf2172c317b2,65e890bfdff7ad8b253a0bec,,,,,,,,,,,244.0009,1.1,245.0647,245.0648,245.96,right,1,0.8918,,245.9601,246.9683,3,2,50,15,1,partial,1,images/Ex8.jpg,right,training,hard,4,,,,,
,,,,,5f3ec93efbd299158253f283,001,51,male,UK,BA hons,2024-03-06_15h52.32.295,CRL1h,2023.2.3,Win32,19.84126984,65e67470ae2fbf2172c317b2,65e890bfdff7ad8b253a0bec,,,,,,,,,,,246.9699,0.6,247.5263,247.5264,248.542,right,1,1.0133,,248.5421,249.5511,3,3,51,5,1,partial,1,images/Ex6.jpg,right,training,hard,4,,,,,
,,,,,5f3ec93efbd299158253f283,001,51,male,UK,BA hons,2024-03-06_15h52.32.295,CRL1h,2023.2.3,Win32,19.84126984,65e67470ae2fbf2172c317b2,65e890bfdff7ad8b253a0bec,,,,,,,,,,,249.5524,1.4,250.923,250.9231,251.5146,left,0,0.5891,,251.5148,252.5253,3,4,52,14,1,partial,1,images/Ex7.jpg,right,training,hard,4,,,,,
,,,,,5f3ec93efbd299158253f283,001,51,male,UK,BA hons,2024-03-06_15h52.32.295,CRL1h,2023.2.3,Win32,19.84126984,65e67470ae2fbf2172c317b2,65e890bfdff7ad8b253a0bec,,,,,,,,,,,252.5262,1.3,253.8203,253.8205,254.5375,left,0,0.7145,,254.5376,255.5433,3,5,53,7,1,partial,1,images/Ex8.jpg,right,training,hard,4,,,,,
,,,,,5f3ec93efbd299158253f283,001,51,male,UK,BA hons,2024-03-06_15h52.32.295,CRL1h,2023.2.3,Win32,19.84126984,65e67470ae2fbf2172c317b2,65e890bfdff7ad8b253a0bec,,,,,,,,,,,255.5448,1.2,256.7222,256.7223,257.8853,left,1,1.1595,,257.8854,258.8456,3,6,54,9,1,partial,1,images/Ex2.jpg,left,training,hard,4,,,,,
,,,,,5f3ec93efbd299158253f283,001,51,male,UK,BA hons,2024-03-06_15h52.32.295,CRL1h,2023.2.3,Win32,19.84126984,65e67470ae2fbf2172c317b2,65e890bfdff7ad8b253a0bec,,,,,,,,,,,258.8464,0.6,259.4023,259.4023,260.1042,left,1,0.6997,,260.1043,261.0612,3,7,55,8,1,partial,1,images/Ex1.jpg,left,training,hard,4,,,,,
,,,,,5f3ec93efbd299158253f283,001,51,male,UK,BA hons,2024-03-06_15h52.32.295,CRL1h,2023.2.3,Win32,19.84126984,65e67470ae2fbf2172c317b2,65e890bfdff7ad8b253a0bec,,,,,,,,,,,261.0622,1.5,262.5605,262.5606,263.5356,left,1,0.9707,,263.5357,264.548,3,8,56,3,1,partial,1,images/Ex4.jpg,left,training,hard,4,,,,,
,,,,,5f3ec93efbd299158253f283,001,51,male,UK,BA hons,2024-03-06_15h52.32.295,CRL1h,2023.2.3,Win32,19.84126984,65e67470ae2fbf2172c317b2,65e890bfdff7ad8b253a0bec,,,,,,,,,,,264.5502,0.7,265.2429,265.2429,266.2053,left,1,0.9595,,266.2053,267.1791,3,9,57,1,1,partial,1,images/Ex2.jpg,left,training,hard,4,,,,,
,,,,,5f3ec93efbd299158253f283,001,51,male,UK,BA hons,2024-03-06_15h52.32.295,CRL1h,2023.2.3,Win32,19.84126984,65e67470ae2fbf2172c317b2,65e890bfdff7ad8b253a0bec,,,,,,,,,,,267.1801,0.9,268.0453,268.0454,268.8123,right,1,0.7645,,268.8124,269.8201,3,10,58,13,1,partial,1,images/Ex6.jpg,right,training,hard,4,,,,,
,,,,,5f3ec93efbd299158253f283,001,51,male,UK,BA hons,2024-03-06_15h52.32.295,CRL1h,2023.2.3,Win32,19.84126984,65e67470ae2fbf2172c317b2,65e890bfdff7ad8b253a0bec,,,,,,,,,,,269.8219,1,270.8073,270.8074,271.7719,right,1,0.9615,,271.772,272.738,3,11,59,12,1,partial,1,images/Ex5.jpg,right,training,hard,4,,,,,
,,,,,5f3ec93efbd299158253f283,001,51,male,UK,BA hons,2024-03-06_15h52.32.295,CRL1h,2023.2.3,Win32,19.84126984,65e67470ae2fbf2172c317b2,65e890bfdff7ad8b253a0bec,,,,,,,,,,,272.7392,0.7,273.4219,273.422,274.048,right,1,0.6234,,274.048,275.0502,3,12,60,4,1,partial,1,images/Ex5.jpg,right,training,hard,4,,,,,
,,,,,5f3ec93efbd299158253f283,001,51,male,UK,BA hons,2024-03-06_15h52.32.295,CRL1h,2023.2.3,Win32,19.84126984,65e67470ae2fbf2172c317b2,65e890bfdff7ad8b253a0bec,,,,,,,,,,,275.0514,0.5,275.557,275.5571,276.4001,left,1,0.8407,,276.4004,277.4039,3,13,61,11,1,partial,1,images/Ex4.jpg,left,training,hard,4,,,,,
,,,,,5f3ec93efbd299158253f283,001,51,male,UK,BA hons,2024-03-06_15h52.32.295,CRL1h,2023.2.3,Win32,19.84126984,65e67470ae2fbf2172c317b2,65e890bfdff7ad8b253a0bec,,,,,,,,,,,277.4052,1,278.3968,278.3969,279.1018,left,1,0.7021,,279.1019,280.1197,3,14,62,2,1,partial,1,images/Ex3.jpg,left,training,hard,4,,,,,
,,,,,5f3ec93efbd299158253f283,001,51,male,UK,BA hons,2024-03-06_15h52.32.295,CRL1h,2023.2.3,Win32,19.84126984,65e67470ae2fbf2172c317b2,65e890bfdff7ad8b253a0bec,,,,,,,,,,,280.1207,1.3,281.3726,281.3726,282.6644,left,0,1.2889,,282.6645,283.6715,3,15,63,6,1,partial,1,images/Ex7.jpg,right,training,hard,4,,,,,
,,,,,5f3ec93efbd299158253f283,001,51,male,UK,BA hons,2024-03-06_15h52.32.295,CRL1h,2023.2.3,Win32,19.84126984,65e67470ae2fbf2172c317b2,65e890bfdff7ad8b253a0bec,,,,,,,,,,,283.6727,0.7,284.3557,284.3558,285.129,left,1,0.7691,,285.1292,286.14,4,0,64,9,1,partial,1,images/Ex2.jpg,left,training,hard,4,,,,,
,,,,,5f3ec93efbd299158253f283,001,51,male,UK,BA hons,2024-03-06_15h52.32.295,CRL1h,2023.2.3,Win32,19.84126984,65e67470ae2fbf2172c317b2,65e890bfdff7ad8b253a0bec,,,,,,,,,,,286.1407,0.8,286.9397,286.9397,287.7024,left,1,0.76,,287.7025,288.7161,4,1,65,11,1,partial,1,images/Ex4.jpg,left,training,hard,4,,,,,
,,,,,5f3ec93efbd299158253f283,001,51,male,UK,BA hons,2024-03-06_15h52.32.295,CRL1h,2023.2.3,Win32,19.84126984,65e67470ae2fbf2172c317b2,65e890bfdff7ad8b253a0bec,,,,,,,,,,,288.717,1.1,289.7677,289.7677,290.6632,right,1,0.8924,,290.6632,291.6737,4,2,66,13,1,partial,1,images/Ex6.jpg,right,training,hard,4,,,,,
,,,,,5f3ec93efbd299158253f283,001,51,male,UK,BA hons,2024-03-06_15h52.32.295,CRL1h,2023.2.3,Win32,19.84126984,65e67470ae2fbf2172c317b2,65e890bfdff7ad8b253a0bec,,,,,,,,,,,291.6751,1.1,292.7335,292.7335,293.4379,left,1,0.7017,,293.438,294.3909,4,3,67,8,1,partial,1,images/Ex1.jpg,left,training,hard,4,,,,,
,,,,,5f3ec93efbd299158253f283,001,51,male,UK,BA hons,2024-03-06_15h52.32.295,CRL1h,2023.2.3,Win32,19.84126984,65e67470ae2fbf2172c317b2,65e890bfdff7ad8b253a0bec,,,,,,,,,,,294.3919,1.3,295.6953,295.6954,296.6665,right,1,0.965,,296.6666,297.64,4,4,68,6,1,partial,1,images/Ex7.jpg,right,training,hard,4,,,,,
,,,,,5f3ec93efbd299158253f283,001,51,male,UK,BA hons,2024-03-06_15h52.32.295,CRL1h,2023.2.3,Win32,19.84126984,65e67470ae2fbf2172c317b2,65e890bfdff7ad8b253a0bec,,,,,,,,,,,297.6409,1.3,298.9367,298.9368,299.5841,left,1,0.6446,,299.5841,300.5354,4,5,69,0,1,partial,1,images/Ex1.jpg,left,training,hard,4,,,,,
,,,,,5f3ec93efbd299158253f283,001,51,male,UK,BA hons,2024-03-06_15h52.32.295,CRL1h,2023.2.3,Win32,19.84126984,65e67470ae2fbf2172c317b2,65e890bfdff7ad8b253a0bec,,,,,,,,,,,300.5366,0.8,301.3395,301.3396,302.1098,left,1,0.7674,,302.1101,303.0635,4,6,70,1,1,partial,1,images/Ex2.jpg,left,training,hard,4,,,,,
,,,,,5f3ec93efbd299158253f283,001,51,male,UK,BA hons,2024-03-06_15h52.32.295,CRL1h,2023.2.3,Win32,19.84126984,65e67470ae2fbf2172c317b2,65e890bfdff7ad8b253a0bec,,,,,,,,,,,303.0646,1.1,304.1209,304.121,304.8329,left,0,0.7038,,304.833,305.7966,4,7,71,15,1,partial,1,images/Ex8.jpg,right,training,hard,4,,,,,
,,,,,5f3ec93efbd299158253f283,001,51,male,UK,BA hons,2024-03-06_15h52.32.295,CRL1h,2023.2.3,Win32,19.84126984,65e67470ae2fbf2172c317b2,65e890bfdff7ad8b253a0bec,,,,,,,,,,,305.7981,1.4,307.1861,307.1862,308.1604,right,1,0.9716,,308.1605,309.1142,4,8,72,12,1,partial,1,images/Ex5.jpg,right,training,hard,4,,,,,
,,,,,5f3ec93efbd299158253f283,001,51,male,UK,BA hons,2024-03-06_15h52.32.295,CRL1h,2023.2.3,Win32,19.84126984,65e67470ae2fbf2172c317b2,65e890bfdff7ad8b253a0bec,,,,,,,,,,,309.1154,0.7,309.7958,309.7958,310.6273,right,1,0.828,,310.6273,311.623,4,9,73,5,1,partial,1,images/Ex6.jpg,right,training,hard,4,,,,,
,,,,,5f3ec93efbd299158253f283,001,51,male,UK,BA hons,2024-03-06_15h52.32.295,CRL1h,2023.2.3,Win32,19.84126984,65e67470ae2fbf2172c317b2,65e890bfdff7ad8b253a0bec,,,,,,,,,,,311.6242,0.9,312.4898,312.4899,313.1964,left,1,0.7023,,313.1965,314.1546,4,10,74,3,1,partial,1,images/Ex4.jpg,left,training,hard,4,,,,,
,,,,,5f3ec93efbd299158253f283,001,51,male,UK,BA hons,2024-03-06_15h52.32.295,CRL1h,2023.2.3,Win32,19.84126984,65e67470ae2fbf2172c317b2,65e890bfdff7ad8b253a0bec,,,,,,,,,,,314.1556,1.3,315.4626,315.4627,316.4269,left,0,0.9611,,316.4269,317.398,4,11,75,14,1,partial,1,images/Ex7.jpg,right,training,hard,4,,,,,
,,,,,5f3ec93efbd299158253f283,001,51,male,UK,BA hons,2024-03-06_15h52.32.295,CRL1h,2023.2.3,Win32,19.84126984,65e67470ae2fbf2172c317b2,65e890bfdff7ad8b253a0bec,,,,,,,,,,,317.4003,0.8,318.205,318.205,318.9739,left,0,0.7659,,318.9741,319.9665,4,12,76,4,1,partial,1,images/Ex5.jpg,right,training,hard,4,,,,,
,,,,,5f3ec93efbd299158253f283,001,51,male,UK,BA hons,2024-03-06_15h52.32.295,CRL1h,2023.2.3,Win32,19.84126984,65e67470ae2fbf2172c317b2,65e890bfdff7ad8b253a0bec,,,,,,,,,,,319.9678,1,320.9557,320.9558,321.6603,left,1,0.7022,,321.6604,322.6114,4,13,77,2,1,partial,1,images/Ex3.jpg,left,training,hard,4,,,,,
,,,,,5f3ec93efbd299158253f283,001,51,male,UK,BA hons,2024-03-06_15h52.32.295,CRL1h,2023.2.3,Win32,19.84126984,65e67470ae2fbf2172c317b2,65e890bfdff7ad8b253a0bec,,,,,,,,,,,322.6124,0.9,323.4809,323.4809,324.1721,left,1,0.6885,,324.1722,325.1305,4,14,78,10,1,partial,1,images/Ex3.jpg,left,training,hard,4,,,,,
,,,,,5f3ec93efbd299158253f283,001,51,male,UK,BA hons,2024-03-06_15h52.32.295,CRL1h,2023.2.3,Win32,19.84126984,65e67470ae2fbf2172c317b2,65e890bfdff7ad8b253a0bec,,,,,,,,,,,325.1314,1,326.0957,326.0957,327.0402,right,1,0.9405,,327.0403,327.9908,4,15,79,7,1,partial,1,images/Ex8.jpg,right,training,hard,4,,,,,
,,,,,5f3ec93efbd299158253f283,001,51,male,UK,BA hons,2024-03-06_15h52.32.295,CRL1h,2023.2.3,Win32,19.84126984,65e67470ae2fbf2172c317b2,65e890bfdff7ad8b253a0bec,,,,,,,,,,,327.992,0.8,328.7945,328.7945,329.6079,right,1,0.8105,,329.608,330.6079,5,0,80,15,1,partial,1,images/Ex8.jpg,right,training,hard,4,,,,,
,,,,,5f3ec93efbd299158253f283,001,51,male,UK,BA hons,2024-03-06_15h52.32.295,CRL1h,2023.2.3,Win32,19.84126984,65e67470ae2fbf2172c317b2,65e890bfdff7ad8b253a0bec,,,,,,,,,,,330.6094,1.3,331.9056,331.9056,332.8809,right,1,0.9726,,332.881,333.8906,5,1,81,14,1,partial,1,images/Ex7.jpg,right,training,hard,4,,,,,
,,,,,5f3ec93efbd299158253f283,001,51,male,UK,BA hons,2024-03-06_15h52.32.295,CRL1h,2023.2.3,Win32,19.84126984,65e67470ae2fbf2172c317b2,65e890bfdff7ad8b253a0bec,,,,,,,,,,,333.892,0.6,334.5073,334.5074,335.5253,left,1,1.015,,335.5254,336.5368,5,2,82,1,1,partial,1,images/Ex2.jpg,left,training,hard,4,,,,,
,,,,,5f3ec93efbd299158253f283,001,51,male,UK,BA hons,2024-03-06_15h52.32.295,CRL1h,2023.2.3,Win32,19.84126984,65e67470ae2fbf2172c317b2,65e890bfdff7ad8b253a0bec,,,,,,,,,,,336.5377,1,337.5299,337.5301,338.2297,left,1,0.6965,,338.2298,339.2419,5,3,83,10,1,partial,1,images/Ex3.jpg,left,training,hard,4,,,,,
,,,,,5f3ec93efbd299158253f283,001,51,male,UK,BA hons,2024-03-06_15h52.32.295,CRL1h,2023.2.3,Win32,19.84126984,65e67470ae2fbf2172c317b2,65e890bfdff7ad8b253a0bec,,,,,,,,,,,339.2434,0.9,340.1066,340.1067,340.8713,left,1,0.7612,,340.8714,341.8798,5,4,84,11,1,partial,1,images/Ex4.jpg,left,training,hard,4,,,,,
,,,,,5f3ec93efbd299158253f283,001,51,male,UK,BA hons,2024-03-06_15h52.32.295,CRL1h,2023.2.3,Win32,19.84126984,65e67470ae2fbf2172c317b2,65e890bfdff7ad8b253a0bec,,,,,,,,,,,341.8806,1.2,343.0532,343.0533,344.203,right,1,1.1469,,344.203,345.1601,5,5,85,6,1,partial,1,images/Ex7.jpg,right,training,hard,4,,,,,
,,,,,5f3ec93efbd299158253f283,001,51,male,UK,BA hons,2024-03-06_15h52.32.295,CRL1h,2023.2.3,Win32,19.84126984,65e67470ae2fbf2172c317b2,65e890bfdff7ad8b253a0bec,,,,,,,,,,,345.1615,0.6,345.7767,345.777,346.7269,right,1,0.947,,346.727,347.7379,5,6,86,12,1,partial,1,images/Ex5.jpg,right,training,hard,4,,,,,
,,,,,5f3ec93efbd299158253f283,001,51,male,UK,BA hons,2024-03-06_15h52.32.295,CRL1h,2023.2.3,Win32,19.84126984,65e67470ae2fbf2172c317b2,65e890bfdff7ad8b253a0bec,,,,,,,,,,,347.7395,0.7,348.4219,348.4219,349.3774,left,1,0.9519,,349.3776,350.3302,5,7,87,9,1,partial,1,images/Ex2.jpg,left,training,hard,4,,,,,
,,,,,5f3ec93efbd299158253f283,001,51,male,UK,BA hons,2024-03-06_15h52.32.295,CRL1h,2023.2.3,Win32,19.84126984,65e67470ae2fbf2172c317b2,65e890bfdff7ad8b253a0bec,,,,,,,,,,,350.3311,1.3,351.6272,351.6274,352.3347,left,1,0.7039,,352.3347,353.345,5,8,88,8,1,partial,1,images/Ex1.jpg,left,training,hard,4,,,,,
,,,,,5f3ec93efbd299158253f283,001,51,male,UK,BA hons,2024-03-06_15h52.32.295,CRL1h,2023.2.3,Win32,19.84126984,65e67470ae2fbf2172c317b2,65e890bfdff7ad8b253a0bec,,,,,,,,,,,353.346,0.7,354.03,354.03,354.9167,left,0,0.8839,,354.9168,355.8729,5,9,89,5,1,partial,1,images/Ex6.jpg,right,training,hard,4,,,,,
,,,,,5f3ec93efbd299158253f283,001,51,male,UK,BA hons,2024-03-06_15h52.32.295,CRL1h,2023.2.3,Win32,19.84126984,65e67470ae2fbf2172c317b2,65e890bfdff7ad8b253a0bec,,,,,,,,,,,355.8737,1,356.8628,356.8629,357.5693,left,1,0.7023,,357.5696,358.5199,5,10,90,3,1,partial,1,images/Ex4.jpg,left,training,hard,4,,,,,
,,,,,5f3ec93efbd299158253f283,001,51,male,UK,BA hons,2024-03-06_15h52.32.295,CRL1h,2023.2.3,Win32,19.84126984,65e67470ae2fbf2172c317b2,65e890bfdff7ad8b253a0bec,,,,,,,,,,,358.5212,0.9,359.3789,359.3789,360.2052,right,1,0.8239,,360.2054,361.1653,5,11,91,4,1,partial,1,images/Ex5.jpg,right,training,hard,4,,,,,
,,,,,5f3ec93efbd299158253f283,001,51,male,UK,BA hons,2024-03-06_15h52.32.295,CRL1h,2023.2.3,Win32,19.84126984,65e67470ae2fbf2172c317b2,65e890bfdff7ad8b253a0bec,,,,,,,,,,,361.1664,1.4,362.5314,362.5314,363.3005,left,1,0.7666,,363.3006,364.3125,5,12,92,2,1,partial,1,images/Ex3.jpg,left,training,hard,4,,,,,
,,,,,5f3ec93efbd299158253f283,001,51,male,UK,BA hons,2024-03-06_15h52.32.295,CRL1h,2023.2.3,Win32,19.84126984,65e67470ae2fbf2172c317b2,65e890bfdff7ad8b253a0bec,,,,,,,,,,,364.3135,1,365.3154,365.3154,366.2776,right,1,0.9594,,366.2776,367.2301,5,13,93,7,1,partial,1,images/Ex8.jpg,right,training,hard,4,,,,,
,,,,,5f3ec93efbd299158253f283,001,51,male,UK,BA hons,2024-03-06_15h52.32.295,CRL1h,2023.2.3,Win32,19.84126984,65e67470ae2fbf2172c317b2,65e890bfdff7ad8b253a0bec,,,,,,,,,,,367.2308,0.9,368.0946,368.0946,368.8593,right,1,0.7606,,368.8594,369.8093,5,14,94,13,1,partial,1,images/Ex6.jpg,right,training,hard,4,,,,,
,,,,,5f3ec93efbd299158253f283,001,51,male,UK,BA hons,2024-03-06_15h52.32.295,CRL1h,2023.2.3,Win32,19.84126984,65e67470ae2fbf2172c317b2,65e890bfdff7ad8b253a0bec,,,,,,,,,,,369.8102,0.6,370.3647,370.3648,371.0698,left,1,0.7022,,371.0698,372.0428,5,15,95,0,1,partial,1,images/Ex1.jpg,left,training,hard,4,,,,,
,,,,,5f3ec93efbd299158253f283,001,51,male,UK,BA hons,2024-03-06_15h52.32.295,CRL1h,2023.2.3,Win32,19.84126984,65e67470ae2fbf2172c317b2,65e890bfdff7ad8b253a0bec,,,,,,,,,,,372.0442,1.5,373.5337,373.5338,374.2359,left,1,0.7001,,374.2359,375.1915,6,0,96,0,1,partial,1,images/Ex1.jpg,left,training,hard,4,,,,,
,,,,,5f3ec93efbd299158253f283,001,51,male,UK,BA hons,2024-03-06_15h52.32.295,CRL1h,2023.2.3,Win32,19.84126984,65e67470ae2fbf2172c317b2,65e890bfdff7ad8b253a0bec,,,,,,,,,,,375.1929,1.2,376.356,376.356,377.1523,left,1,0.7935,,377.1525,378.1214,6,1,97,2,1,partial,1,images/Ex3.jpg,left,training,hard,4,,,,,
,,,,,5f3ec93efbd299158253f283,001,51,male,UK,BA hons,2024-03-06_15h52.32.295,CRL1h,2023.2.3,Win32,19.84126984,65e67470ae2fbf2172c317b2,65e890bfdff7ad8b253a0bec,,,,,,,,,,,378.1226,1,379.1224,379.1224,379.8271,left,1,0.7024,,379.8273,380.7803,6,2,98,11,1,partial,1,images/Ex4.jpg,left,training,hard,4,,,,,
,,,,,5f3ec93efbd299158253f283,001,51,male,UK,BA hons,2024-03-06_15h52.32.295,CRL1h,2023.2.3,Win32,19.84126984,65e67470ae2fbf2172c317b2,65e890bfdff7ad8b253a0bec,,,,,,,,,,,380.7816,1,381.7798,381.7798,382.4965,right,1,0.709,,382.4966,383.5167,6,3,99,4,1,partial,1,images/Ex5.jpg,right,training,hard,4,,,,,
,,,,,5f3ec93efbd299158253f283,001,51,male,UK,BA hons,2024-03-06_15h52.32.295,CRL1h,2023.2.3,Win32,19.84126984,65e67470ae2fbf2172c317b2,65e890bfdff7ad8b253a0bec,,,,,,,,,,,383.5183,0.9,384.3855,384.3856,385.1529,right,1,0.7646,,385.153,386.1206,6,4,100,7,1,partial,1,images/Ex8.jpg,right,training,hard,4,,,,,
,,,,,5f3ec93efbd299158253f283,001,51,male,UK,BA hons,2024-03-06_15h52.32.295,CRL1h,2023.2.3,Win32,19.84126984,65e67470ae2fbf2172c317b2,65e890bfdff7ad8b253a0bec,,,,,,,,,,,386.1218,1.5,387.6294,387.6294,388.5447,right,1,0.9129,,388.5448,389.5606,6,5,101,6,1,partial,1,images/Ex7.jpg,right,training,hard,4,,,,,
,,,,,5f3ec93efbd299158253f283,001,51,male,UK,BA hons,2024-03-06_15h52.32.295,CRL1h,2023.2.3,Win32,19.84126984,65e67470ae2fbf2172c317b2,65e890bfdff7ad8b253a0bec,,,,,,,,,,,389.5616,0.9,390.4331,390.4331,391.2677,left,1,0.8319,,391.2678,392.22,6,6,102,1,1,partial,1,images/Ex2.jpg,left,training,hard,4,,,,,
,,,,,5f3ec93efbd299158253f283,001,51,male,UK,BA hons,2024-03-06_15h52.32.295,CRL1h,2023.2.3,Win32,19.84126984,65e67470ae2fbf2172c317b2,65e890bfdff7ad8b253a0bec,,,,,,,,,,,392.2207,1,393.2121,393.2123,393.9123,left,0,0.6978,,393.9124,394.8636,6,7,103,15,1,partial,1,images/Ex8.jpg,right,training,hard,4,,,,,
,,,,,5f3ec93efbd299158253f283,001,51,male,UK,BA hons,2024-03-06_15h52.32.295,CRL1h,2023.2.3,Win32,19.84126984,65e67470ae2fbf2172c317b2,65e890bfdff7ad8b253a0bec,,,,,,,,,,,394.8649,0.7,395.5628,395.5629,396.2647,left,1,0.6991,,396.2648,397.2643,6,8,104,10,1,partial,1,images/Ex3.jpg,left,training,hard,4,,,,,
,,,,,5f3ec93efbd299158253f283,001,51,male,UK,BA hons,2024-03-06_15h52.32.295,CRL1h,2023.2.3,Win32,19.84126984,65e67470ae2fbf2172c317b2,65e890bfdff7ad8b253a0bec,,,,,,,,,,,397.2652,1.5,398.7502,398.7502,399.4058,left,1,0.6526,,399.4059,400.3588,6,9,105,3,1,partial,1,images/Ex4.jpg,left,training,hard,4,,,,,
,,,,,5f3ec93efbd299158253f283,001,51,male,UK,BA hons,2024-03-06_15h52.32.295,CRL1h,2023.2.3,Win32,19.84126984,65e67470ae2fbf2172c317b2,65e890bfdff7ad8b253a0bec,,,,,,,,,,,400.3596,0.9,401.2192,401.2193,402.1054,right,1,0.8835,,402.1054,403.0559,6,10,106,12,1,partial,1,images/Ex5.jpg,right,training,hard,4,,,,,
,,,,,5f3ec93efbd299158253f283,001,51,male,UK,BA hons,2024-03-06_15h52.32.295,CRL1h,2023.2.3,Win32,19.84126984,65e67470ae2fbf2172c317b2,65e890bfdff7ad8b253a0bec,,,,,,,,,,,403.0571,0.5,403.5593,403.5593,404.3866,left,1,0.8236,,404.3867,405.3829,6,11,107,9,1,partial,1,images/Ex2.jpg,left,training,hard,4,,,,,
,,,,,5f3ec93efbd299158253f283,001,51,male,UK,BA hons,2024-03-06_15h52.32.295,CRL1h,2023.2.3,Win32,19.84126984,65e67470ae2fbf2172c317b2,65e890bfdff7ad8b253a0bec,,,,,,,,,,,405.3844,0.8,406.1914,406.1914,407.1447,left,0,0.9504,,407.1447,408.151,6,12,108,5,1,partial,1,images/Ex6.jpg,right,training,hard,4,,,,,
,,,,,5f3ec93efbd299158253f283,001,51,male,UK,BA hons,2024-03-06_15h52.32.295,CRL1h,2023.2.3,Win32,19.84126984,65e67470ae2fbf2172c317b2,65e890bfdff7ad8b253a0bec,,,,,,,,,,,408.1519,0.8,408.9528,408.9528,409.8366,right,1,0.8805,,409.8367,410.8425,6,13,109,13,1,partial,1,images/Ex6.jpg,right,training,hard,4,,,,,
,,,,,5f3ec93efbd299158253f283,001,51,male,UK,BA hons,2024-03-06_15h52.32.295,CRL1h,2023.2.3,Win32,19.84126984,65e67470ae2fbf2172c317b2,65e890bfdff7ad8b253a0bec,,,,,,,,,,,410.8437,1.3,412.1389,412.139,412.8445,left,1,0.7031,,412.8447,413.8017,6,14,110,8,1,partial,1,images/Ex1.jpg,left,training,hard,4,,,,,
,,,,,5f3ec93efbd299158253f283,001,51,male,UK,BA hons,2024-03-06_15h52.32.295,CRL1h,2023.2.3,Win32,19.84126984,65e67470ae2fbf2172c317b2,65e890bfdff7ad8b253a0bec,,,,,,,,,,,413.8025,1.3,415.093,415.093,416.1887,right,1,1.0921,,416.1888,417.1556,6,15,111,14,1,partial,1,images/Ex7.jpg,right,training,hard,4,,,,,
,,,,,5f3ec93efbd299158253f283,001,51,male,UK,BA hons,2024-03-06_15h52.32.295,CRL1h,2023.2.3,Win32,19.84126984,65e67470ae2fbf2172c317b2,65e890bfdff7ad8b253a0bec,,,,,,,,,,,417.1568,1.4,418.5197,418.5198,419.1612,left,1,0.6383,,419.1613,420.1672,7,0,112,11,1,partial,1,images/Ex4.jpg,left,training,hard,4,,,,,
,,,,,5f3ec93efbd299158253f283,001,51,male,UK,BA hons,2024-03-06_15h52.32.295,CRL1h,2023.2.3,Win32,19.84126984,65e67470ae2fbf2172c317b2,65e890bfdff7ad8b253a0bec,,,,,,,,,,,420.1688,1.3,421.4689,421.4689,422.2373,left,1,0.7662,,422.2375,423.1893,7,1,113,9,1,partial,1,images/Ex2.jpg,left,training,hard,4,,,,,
,,,,,5f3ec93efbd299158253f283,001,51,male,UK,BA hons,2024-03-06_15h52.32.295,CRL1h,2023.2.3,Win32,19.84126984,65e67470ae2fbf2172c317b2,65e890bfdff7ad8b253a0bec,,,,,,,,,,,423.1901,1.2,424.3629,424.363,425.2001,right,1,0.8342,,425.2001,426.1536,7,2,114,14,1,partial,1,images/Ex7.jpg,right,training,hard,4,,,,,
,,,,,5f3ec93efbd299158253f283,001,51,male,UK,BA hons,2024-03-06_15h52.32.295,CRL1h,2023.2.3,Win32,19.84126984,65e67470ae2fbf2172c317b2,65e890bfdff7ad8b253a0bec,,,,,,,,,,,426.1549,0.9,427.0115,427.0116,427.7661,right,1,0.7522,,427.7662,428.729,7,3,115,6,1,partial,1,images/Ex7.jpg,right,training,hard,4,,,,,
,,,,,5f3ec93efbd299158253f283,001,51,male,UK,BA hons,2024-03-06_15h52.32.295,CRL1h,2023.2.3,Win32,19.84126984,65e67470ae2fbf2172c317b2,65e890bfdff7ad8b253a0bec,,,,,,,,,,,428.7303,1,429.7193,429.7193,430.495,right,1,0.7649,,430.4951,431.45,7,4,116,4,1,partial,1,images/Ex5.jpg,right,training,hard,4,,,,,
,,,,,5f3ec93efbd299158253f283,001,51,male,UK,BA hons,2024-03-06_15h52.32.295,CRL1h,2023.2.3,Win32,19.84126984,65e67470ae2fbf2172c317b2,65e890bfdff7ad8b253a0bec,,,,,,,,,,,431.4514,0.6,432.0726,432.0728,432.8468,left,1,0.7714,,432.8468,433.8492,7,5,117,3,1,partial,1,images/Ex4.jpg,left,training,hard,4,,,,,
,,,,,5f3ec93efbd299158253f283,001,51,male,UK,BA hons,2024-03-06_15h52.32.295,CRL1h,2023.2.3,Win32,19.84126984,65e67470ae2fbf2172c317b2,65e890bfdff7ad8b253a0bec,,,,,,,,,,,433.8506,1.5,435.3375,435.3375,435.9939,left,1,0.6534,,435.994,436.9626,7,6,118,0,1,partial,1,images/Ex1.jpg,left,training,hard,4,,,,,
,,,,,5f3ec93efbd299158253f283,001,51,male,UK,BA hons,2024-03-06_15h52.32.295,CRL1h,2023.2.3,Win32,19.84126984,65e67470ae2fbf2172c317b2,65e890bfdff7ad8b253a0bec,,,,,,,,,,,436.9636,1.4,438.3459,438.346,439.1195,left,0,0.7711,,439.1196,440.0761,7,7,119,13,1,partial,1,images/Ex6.jpg,right,training,hard,4,,,,,
,,,,,5f3ec93efbd299158253f283,001,51,male,UK,BA hons,2024-03-06_15h52.32.295,CRL1h,2023.2.3,Win32,19.84126984,65e67470ae2fbf2172c317b2,65e890bfdff7ad8b253a0bec,,,,,,,,,,,440.0774,1.2,441.2525,441.2526,442.0884,right,1,0.8332,,442.0885,443.0972,7,8,120,7,1,partial,1,images/Ex8.jpg,right,training,hard,4,,,,,
,,,,,5f3ec93efbd299158253f283,001,51,male,UK,BA hons,2024-03-06_15h52.32.295,CRL1h,2023.2.3,Win32,19.84126984,65e67470ae2fbf2172c317b2,65e890bfdff7ad8b253a0bec,,,,,,,,,,,443.0988,0.5,443.5937,443.5938,444.3472,right,1,0.7507,,444.3472,445.3002,7,9,121,15,1,partial,1,images/Ex8.jpg,right,training,hard,4,,,,,
,,,,,5f3ec93efbd299158253f283,001,51,male,UK,BA hons,2024-03-06_15h52.32.295,CRL1h,2023.2.3,Win32,19.84126984,65e67470ae2fbf2172c317b2,65e890bfdff7ad8b253a0bec,,,,,,,,,,,445.3018,0.5,445.8005,445.8005,446.6363,left,1,0.8335,,446.6364,447.6325,7,10,122,2,1,partial,1,images/Ex3.jpg,left,training,hard,4,,,,,
,,,,,5f3ec93efbd299158253f283,001,51,male,UK,BA hons,2024-03-06_15h52.32.295,CRL1h,2023.2.3,Win32,19.84126984,65e67470ae2fbf2172c317b2,65e890bfdff7ad8b253a0bec,,,,,,,,,,,447.6337,1.3,448.937,448.937,449.655,left,1,0.7148,,449.655,450.6145,7,11,123,1,1,partial,1,images/Ex2.jpg,left,training,hard,4,,,,,
,,,,,5f3ec93efbd299158253f283,001,51,male,UK,BA hons,2024-03-06_15h52.32.295,CRL1h,2023.2.3,Win32,19.84126984,65e67470ae2fbf2172c317b2,65e890bfdff7ad8b253a0bec,,,,,,,,,,,450.6159,0.9,451.4823,451.4824,452.1855,right,1,0.7004,,452.1856,453.1397,7,12,124,12,1,partial,1,images/Ex5.jpg,right,training,hard,4,,,,,
,,,,,5f3ec93efbd299158253f283,001,51,male,UK,BA hons,2024-03-06_15h52.32.295,CRL1h,2023.2.3,Win32,19.84126984,65e67470ae2fbf2172c317b2,65e890bfdff7ad8b253a0bec,,,,,,,,,,,453.1406,1.4,454.5017,454.5018,455.141,left,1,0.6371,,455.141,456.1448,7,13,125,8,1,partial,1,images/Ex1.jpg,left,training,hard,4,,,,,
,,,,,5f3ec93efbd299158253f283,001,51,male,UK,BA hons,2024-03-06_15h52.32.295,CRL1h,2023.2.3,Win32,19.84126984,65e67470ae2fbf2172c317b2,65e890bfdff7ad8b253a0bec,,,,,,,,,,,456.1461,1.4,457.5139,457.5141,458.216,left,1,0.6998,,458.2161,459.2187,7,14,126,10,1,partial,1,images/Ex3.jpg,left,training,hard,4,,,,,
,,,,,5f3ec93efbd299158253f283,001,51,male,UK,BA hons,2024-03-06_15h52.32.295,CRL1h,2023.2.3,Win32,19.84126984,65e67470ae2fbf2172c317b2,65e890bfdff7ad8b253a0bec,,,,,,,,,,,459.2195,0.6,459.7737,459.7737,460.5407,right,1,0.7642,,460.5407,461.5396,7,15,127,5,1,partial,1,images/Ex6.jpg,right,training,hard,4,,,,,
,,,,,5f3ec93efbd299158253f283,001,51,male,UK,BA hons,2024-03-06_15h52.32.295,CRL1h,2023.2.3,Win32,19.84126984,65e67470ae2fbf2172c317b2,65e890bfdff7ad8b253a0bec,,,,,,,,,,,461.5539,1.1,462.6642,462.6644,463.4328,right,0,0.7659,,463.4328,464.4462,0,0,0,7,1,partial,2,images/Ex8.jpg,left,reversed,hard,4,,,,,
,,,,,5f3ec93efbd299158253f283,001,51,male,UK,BA hons,2024-03-06_15h52.32.295,CRL1h,2023.2.3,Win32,19.84126984,65e67470ae2fbf2172c317b2,65e890bfdff7ad8b253a0bec,,,,,,,,,,,464.4477,1.3,465.7466,465.7467,466.4014,left,0,0.6507,,466.4015,467.4125,0,1,1,8,1,partial,2,images/Ex1.jpg,right,reversed,hard,4,,,,,
,,,,,5f3ec93efbd299158253f283,001,51,male,UK,BA hons,2024-03-06_15h52.32.295,CRL1h,2023.2.3,Win32,19.84126984,65e67470ae2fbf2172c317b2,65e890bfdff7ad8b253a0bec,,,,,,,,,,,467.4138,0.7,468.0945,468.0946,468.9197,right,0,0.8215,,468.9197,469.8712,0,2,2,15,1,partial,2,images/Ex8.jpg,left,reversed,hard,4,,,,,
,,,,,5f3ec93efbd299158253f283,001,51,male,UK,BA hons,2024-03-06_15h52.32.295,CRL1h,2023.2.3,Win32,19.84126984,65e67470ae2fbf2172c317b2,65e890bfdff7ad8b253a0bec,,,,,,,,,,,469.8724,1.4,471.2356,471.2356,472.134,left,1,0.8956,,472.1341,473.1391,0,3,3,14,1,partial,2,images/Ex7.jpg,left,reversed,hard,4,,,,,
,,,,,5f3ec93efbd299158253f283,001,51,male,UK,BA hons,2024-03-06_15h52.32.295,CRL1h,2023.2.3,Win32,19.84126984,65e67470ae2fbf2172c317b2,65e890bfdff7ad8b253a0bec,,,,,,,,,,,473.14,1.2,474.3165,474.3165,475.0196,left,0,0.7,,475.0197,476.0316,0,4,4,0,1,partial,2,images/Ex1.jpg,right,reversed,hard,4,,,,,
,,,,,5f3ec93efbd299158253f283,001,51,male,UK,BA hons,2024-03-06_15h52.32.295,CRL1h,2023.2.3,Win32,19.84126984,65e67470ae2fbf2172c317b2,65e890bfdff7ad8b253a0bec,,,,,,,,,,,476.0329,0.6,476.589,476.5891,477.3561,left,1,0.7648,,477.3562,478.3607,0,5,5,3,1,partial,2,images/Ex4.jpg,left,nonreversed,hard,4,,,,,
,,,,,5f3ec93efbd299158253f283,001,51,male,UK,BA hons,2024-03-06_15h52.32.295,CRL1h,2023.2.3,Win32,19.84126984,65e67470ae2fbf2172c317b2,65e890bfdff7ad8b253a0bec,,,,,,,,,,,478.3616,1,479.3462,479.3463,480.0442,left,1,0.6948,,480.0442,481.0545,0,6,6,2,1,partial,2,images/Ex3.jpg,left,nonreversed,hard,4,,,,,
,,,,,5f3ec93efbd299158253f283,001,51,male,UK,BA hons,2024-03-06_15h52.32.295,CRL1h,2023.2.3,Win32,19.84126984,65e67470ae2fbf2172c317b2,65e890bfdff7ad8b253a0bec,,,,,,,,,,,481.0561,0.9,481.9157,481.9158,482.8059,left,0,0.8873,,482.8061,483.8073,0,7,7,13,1,partial,2,images/Ex6.jpg,right,nonreversed,hard,4,,,,,
,,,,,5f3ec93efbd299158253f283,001,51,male,UK,BA hons,2024-03-06_15h52.32.295,CRL1h,2023.2.3,Win32,19.84126984,65e67470ae2fbf2172c317b2,65e890bfdff7ad8b253a0bec,,,,,,,,,,,483.8088,0.9,484.6825,484.6826,485.5809,right,1,0.8953,,485.5809,486.5889,0,8,8,12,1,partial,2,images/Ex5.jpg,right,nonreversed,hard,4,,,,,
,,,,,5f3ec93efbd299158253f283,001,51,male,UK,BA hons,2024-03-06_15h52.32.295,CRL1h,2023.2.3,Win32,19.84126984,65e67470ae2fbf2172c317b2,65e890bfdff7ad8b253a0bec,,,,,,,,,,,486.5899,1.5,488.0697,488.0698,488.8499,left,0,0.7778,,488.8499,489.8599,0,9,9,1,1,partial,2,images/Ex2.jpg,right,reversed,hard,4,,,,,
,,,,,5f3ec93efbd299158253f283,001,51,male,UK,BA hons,2024-03-06_15h52.32.295,CRL1h,2023.2.3,Win32,19.84126984,65e67470ae2fbf2172c317b2,65e890bfdff7ad8b253a0bec,,,,,,,,,,,489.8613,1.2,491.034,491.0341,491.7999,left,1,0.763,,491.8001,492.8057,0,10,10,11,1,partial,2,images/Ex4.jpg,left,nonreversed,hard,4,,,,,
,,,,,5f3ec93efbd299158253f283,001,51,male,UK,BA hons,2024-03-06_15h52.32.295,CRL1h,2023.2.3,Win32,19.84126984,65e67470ae2fbf2172c317b2,65e890bfdff7ad8b253a0bec,,,,,,,,,,,492.8068,0.5,493.3026,493.3026,494.1388,right,1,0.8322,,494.1389,495.0937,0,11,11,5,1,partial,2,images/Ex6.jpg,right,nonreversed,hard,4,,,,,
,,,,,5f3ec93efbd299158253f283,001,51,male,UK,BA hons,2024-03-06_15h52.32.295,CRL1h,2023.2.3,Win32,19.84126984,65e67470ae2fbf2172c317b2,65e890bfdff7ad8b253a0bec,,,,,,,,,,,495.0945,0.7,495.7717,495.7718,496.6024,right,1,0.8278,,496.6025,497.597,0,12,12,4,1,partial,2,images/Ex5.jpg,right,nonreversed,hard,4,,,,,
,,,,,5f3ec93efbd299158253f283,001,51,male,UK,BA hons,2024-03-06_15h52.32.295,CRL1h,2023.2.3,Win32,19.84126984,65e67470ae2fbf2172c317b2,65e890bfdff7ad8b253a0bec,,,,,,,,,,,497.5985,0.7,498.28,498.2801,499.1061,left,0,0.823,,499.1062,500.1183,0,13,13,9,1,partial,2,images/Ex2.jpg,right,reversed,hard,4,,,,,
,,,,,5f3ec93efbd299158253f283,001,51,male,UK,BA hons,2024-03-06_15h52.32.295,CRL1h,2023.2.3,Win32,19.84126984,65e67470ae2fbf2172c317b2,65e890bfdff7ad8b253a0bec,,,,,,,,,,,500.1194,1.1,501.1728,501.1728,501.8785,left,1,0.7009,,501.8785,502.8565,0,14,14,10,1,partial,2,images/Ex3.jpg,left,nonreversed,hard,4,,,,,
,,,,,5f3ec93efbd299158253f283,001,51,male,UK,BA hons,2024-03-06_15h52.32.295,CRL1h,2023.2.3,Win32,19.84126984,65e67470ae2fbf2172c317b2,65e890bfdff7ad8b253a0bec,,,,,,,,,,,502.858,0.6,503.4161,503.4161,504.8323,right,0,1.413,,504.8323,505.8498,0,15,15,6,1,partial,2,images/Ex7.jpg,left,reversed,hard,4,,,,,
,,,,,5f3ec93efbd299158253f283,001,51,male,UK,BA hons,2024-03-06_15h52.32.295,CRL1h,2023.2.3,Win32,19.84126984,65e67470ae2fbf2172c317b2,65e890bfdff7ad8b253a0bec,,,,,,,,,,,505.8508,0.7,506.5342,506.5343,507.8228,right,1,1.2855,,507.8228,508.7767,1,0,16,9,1,partial,2,images/Ex2.jpg,right,reversed,hard,4,,,,,
,,,,,5f3ec93efbd299158253f283,001,51,male,UK,BA hons,2024-03-06_15h52.32.295,CRL1h,2023.2.3,Win32,19.84126984,65e67470ae2fbf2172c317b2,65e890bfdff7ad8b253a0bec,,,,,,,,,,,508.778,1.4,510.1391,510.1391,511.5612,right,1,1.4185,,511.5613,512.5637,1,1,17,12,1,partial,2,images/Ex5.jpg,right,nonreversed,hard,4,,,,,
,,,,,5f3ec93efbd299158253f283,001,51,male,UK,BA hons,2024-03-06_15h52.32.295,CRL1h,2023.2.3,Win32,19.84126984,65e67470ae2fbf2172c317b2,65e890bfdff7ad8b253a0bec,,,,,,,,,,,512.5651,0.6,513.1169,513.1169,514.0102,right,0,0.8902,,514.0102,515.0051,1,2,18,7,1,partial,2,images/Ex8.jpg,left,reversed,hard,4,,,,,
,,,,,5f3ec93efbd299158253f283,001,51,male,UK,BA hons,2024-03-06_15h52.32.295,CRL1h,2023.2.3,Win32,19.84126984,65e67470ae2fbf2172c317b2,65e890bfdff7ad8b253a0bec,,,,,,,,,,,515.0064,1.2,516.1826,516.1826,517.2724,left,1,1.0873,,517.2725,518.2729,1,3,19,2,1,partial,2,images/Ex3.jpg,left,nonreversed,hard,4,,,,,
,,,,,5f3ec93efbd299158253f283,001,51,male,UK,BA hons,2024-03-06_15h52.32.295,CRL1h,2023.2.3,Win32,19.84126984,65e67470ae2fbf2172c317b2,65e890bfdff7ad8b253a0bec,,,,,,,,,,,518.2742,0.8,519.0733,519.0733,520.0242,left,0,0.9486,,520.0243,521.0301,1,4,20,8,1,partial,2,images/Ex1.jpg,right,reversed,hard,4,,,,,
,,,,,5f3ec93efbd299158253f283,001,51,male,UK,BA hons,2024-03-06_15h52.32.295,CRL1h,2023.2.3,Win32,19.84126984,65e67470ae2fbf2172c317b2,65e890bfdff7ad8b253a0bec,,,,,,,,,,,521.0311,1.1,522.1451,522.1451,523.2909,right,1,1.1436,,523.291,524.2428,1,5,21,13,1,partial,2,images/Ex6.jpg,right,nonreversed,hard,4,,,,,
,,,,,5f3ec93efbd299158253f283,001,51,male,UK,BA hons,2024-03-06_15h52.32.295,CRL1h,2023.2.3,Win32,19.84126984,65e67470ae2fbf2172c317b2,65e890bfdff7ad8b253a0bec,,,,,,,,,,,524.2441,1.3,525.4963,525.4963,526.1933,right,1,0.6936,,526.1934,527.2006,1,6,22,5,1,partial,2,images/Ex6.jpg,right,nonreversed,hard,4,,,,,
,,,,,5f3ec93efbd299158253f283,001,51,male,UK,BA hons,2024-03-06_15h52.32.295,CRL1h,2023.2.3,Win32,19.84126984,65e67470ae2fbf2172c317b2,65e890bfdff7ad8b253a0bec,,,,,,,,,,,527.2017,1.4,528.561,528.561,529.2664,right,0,0.7031,,529.2665,530.2764,1,7,23,15,1,partial,2,images/Ex8.jpg,left,reversed,hard,4,,,,,
,,,,,5f3ec93efbd299158253f283,001,51,male,UK,BA hons,2024-03-06_15h52.32.295,CRL1h,2023.2.3,Win32,19.84126984,65e67470ae2fbf2172c317b2,65e890bfdff7ad8b253a0bec,,,,,,,,,,,530.2778,1.4,531.6395,531.6397,532.3516,right,1,0.7097,,532.3517,533.371,1,8,24,0,1,partial,2,images/Ex1.jpg,right,reversed,hard,4,,,,,
,,,,,5f3ec93efbd299158253f283,001,51,male,UK,BA hons,2024-03-06_15h52.32.295,CRL1h,2023.2.3,Win32,19.84126984,65e67470ae2fbf2172c317b2,65e890bfdff7ad8b253a0bec,,,,,,,,,,,533.3722,1.2,534.5504,534.5505,535.5293,left,0,0.9766,,535.5293,536.5069,1,9,25,4,1,partial,2,images/Ex5.jpg,right,nonreversed,hard,4,,,,,
,,,,,5f3ec93efbd299158253f283,001,51,male,UK,BA hons,2024-03-06_15h52.32.295,CRL1h,2023.2.3,Win32,19.84126984,65e67470ae2fbf2172c317b2,65e890bfdff7ad8b253a0bec,,,,,,,,,,,536.5085,1.1,537.6287,537.6288,538.5286,right,0,0.8969,,538.5287,539.4804,1,10,26,10,1,partial,2,images/Ex3.jpg,left,nonreversed,hard,4,,,,,
,,,,,5f3ec93efbd299158253f283,001,51,male,UK,BA hons,2024-03-06_15h52.32.295,CRL1h,2023.2.3,Win32,19.84126984,65e67470ae2fbf2172c317b2,65e890bfdff7ad8b253a0bec,,,,,,,,,,,539.4811,1.2,540.655,540.6552,541.6228,right,0,0.9648,,541.6229,542.5742,1,11,27,6,1,partial,2,images/Ex7.jpg,left,reversed,hard,4,,,,,
,,,,,5f3ec93efbd299158253f283,001,51,male,UK,BA hons,2024-03-06_15h52.32.295,CRL1h,2023.2.3,Win32,19.84126984,65e67470ae2fbf2172c317b2,65e890bfdff7ad8b253a0bec,,,,,,,,,,,542.5753,1,543.5629,543.5629,544.5256,right,0,0.9604,,544.5257,545.5329,1,12,28,3,1,partial,2,images/Ex4.jpg,left,nonreversed,hard,4,,,,,
,,,,,5f3ec93efbd299158253f283,001,51,male,UK,BA hons,2024-03-06_15h52.32.295,CRL1h,2023.2.3,Win32,19.84126984,65e67470ae2fbf2172c317b2,65e890bfdff7ad8b253a0bec,,,,,,,,,,,545.534,1.4,546.9538,546.9539,547.7265,left,1,0.7691,,547.7265,548.6788,1,13,29,14,1,partial,2,images/Ex7.jpg,left,reversed,hard,4,,,,,
,,,,,5f3ec93efbd299158253f283,001,51,male,UK,BA hons,2024-03-06_15h52.32.295,CRL1h,2023.2.3,Win32,19.84126984,65e67470ae2fbf2172c317b2,65e890bfdff7ad8b253a0bec,,,,,,,,,,,548.6796,0.5,549.174,549.174,550.319,right,1,1.1421,,550.3192,551.3312,1,14,30,1,1,partial,2,images/Ex2.jpg,right,reversed,hard,4,,,,,
,,,,,5f3ec93efbd299158253f283,001,51,male,UK,BA hons,2024-03-06_15h52.32.295,CRL1h,2023.2.3,Win32,19.84126984,65e67470ae2fbf2172c317b2,65e890bfdff7ad8b253a0bec,,,,,,,,,,,551.3683,1.2,552.5417,552.542,553.8212,left,1,1.2768,,553.8213,554.826,1,15,31,11,1,partial,2,images/Ex4.jpg,left,nonreversed,hard,4,,,,,
,,,,,5f3ec93efbd299158253f283,001,51,male,UK,BA hons,2024-03-06_15h52.32.295,CRL1h,2023.2.3,Win32,19.84126984,65e67470ae2fbf2172c317b2,65e890bfdff7ad8b253a0bec,,,,,,,,,,,554.8278,1.1,555.947,555.9477,556.855,right,1,0.9042,,556.8551,557.8057,2,0,32,1,1,partial,2,images/Ex2.jpg,right,reversed,hard,4,,,,,
,,,,,5f3ec93efbd299158253f283,001,51,male,UK,BA hons,2024-03-06_15h52.32.295,CRL1h,2023.2.3,Win32,19.84126984,65e67470ae2fbf2172c317b2,65e890bfdff7ad8b253a0bec,,,,,,,,,,,557.8072,1.4,559.1727,559.1727,560.2039,right,0,1.0284,,560.2041,561.2104,2,1,33,14,1,partial,2,images/Ex7.jpg,left,reversed,hard,4,,,,,
,,,,,5f3ec93efbd299158253f283,001,51,male,UK,BA hons,2024-03-06_15h52.32.295,CRL1h,2023.2.3,Win32,19.84126984,65e67470ae2fbf2172c317b2,65e890bfdff7ad8b253a0bec,,,,,,,,,,,561.2112,1.4,562.5763,562.5764,563.5411,left,1,0.9617,,563.5411,564.4917,2,2,34,15,1,partial,2,images/Ex8.jpg,left,reversed,hard,4,,,,,
,,,,,5f3ec93efbd299158253f283,001,51,male,UK,BA hons,2024-03-06_15h52.32.295,CRL1h,2023.2.3,Win32,19.84126984,65e67470ae2fbf2172c317b2,65e890bfdff7ad8b253a0bec,,,,,,,,,,,564.493,0.7,565.1915,565.1916,566.1399,right,0,0.9449,,566.14,567.1534,2,3,35,10,1,partial,2,images/Ex3.jpg,left,nonreversed,hard,4,,,,,
,,,,,5f3ec93efbd299158253f283,001,51,male,UK,BA hons,2024-03-06_15h52.32.295,CRL1h,2023.2.3,Win32,19.84126984,65e67470ae2fbf2172c317b2,65e890bfdff7ad8b253a0bec,,,,,,,,,,,567.1545,0.8,567.9261,567.9262,568.6254,left,1,0.6962,,568.6256,569.5787,2,4,36,2,1,partial,2,images/Ex3.jpg,left,nonreversed,hard,4,,,,,
,,,,,5f3ec93efbd299158253f283,001,51,male,UK,BA hons,2024-03-06_15h52.32.295,CRL1h,2023.2.3,Win32,19.84126984,65e67470ae2fbf2172c317b2,65e890bfdff7ad8b253a0bec,,,,,,,,,,,569.5795,1.4,570.9378,570.9379,571.9672,left,0,1.0258,,571.9672,572.9761,2,5,37,4,1,partial,2,images/Ex5.jpg,right,nonreversed,hard,4,,,,,
,,,,,5f3ec93efbd299158253f283,001,51,male,UK,BA hons,2024-03-06_15h52.32.295,CRL1h,2023.2.3,Win32,19.84126984,65e67470ae2fbf2172c317b2,65e890bfdff7ad8b253a0bec,,,,,,,,,,,572.9768,0.8,573.7805,573.7805,574.7378,right,1,0.9542,,574.7379,575.6904,2,6,38,13,1,partial,2,images/Ex6.jpg,right,nonreversed,hard,4,,,,,
,,,,,5f3ec93efbd299158253f283,001,51,male,UK,BA hons,2024-03-06_15h52.32.295,CRL1h,2023.2.3,Win32,19.84126984,65e67470ae2fbf2172c317b2,65e890bfdff7ad8b253a0bec,,,,,,,,,,,575.6915,1.2,576.8762,576.8763,577.7791,right,1,0.8994,,577.7794,578.7889,2,7,39,12,1,partial,2,images/Ex5.jpg,right,nonreversed,hard,4,,,,,
,,,,,5f3ec93efbd299158253f283,001,51,male,UK,BA hons,2024-03-06_15h52.32.295,CRL1h,2023.2.3,Win32,19.84126984,65e67470ae2fbf2172c317b2,65e890bfdff7ad8b253a0bec,,,,,,,,,,,578.7896,1.4,580.1462,580.1464,580.8548,right,1,0.7057,,580.8549,581.874,2,8,40,5,1,partial,2,images/Ex6.jpg,right,nonreversed,hard,4,,,,,
,,,,,5f3ec93efbd299158253f283,001,51,male,UK,BA hons,2024-03-06_15h52.32.295,CRL1h,2023.2.3,Win32,19.84126984,65e67470ae2fbf2172c317b2,65e890bfdff7ad8b253a0bec,,,,,,,,,,,581.8749,0.7,582.5578,582.5579,584.1529,left,0,1.5923,,584.1529,585.1094,2,9,41,9,1,partial,2,images/Ex2.jpg,right,reversed,hard,4,,,,,
,,,,,5f3ec93efbd299158253f283,001,51,male,UK,BA hons,2024-03-06_15h52.32.295,CRL1h,2023.2.3,Win32,19.84126984,65e67470ae2fbf2172c317b2,65e890bfdff7ad8b253a0bec,,,,,,,,,,,585.1457,1.4,586.5008,586.5008,587.7885,left,1,1.2846,,587.7885,588.7866,2,10,42,3,1,partial,2,images/Ex4.jpg,left,nonreversed,hard,4,,,,,
,,,,,5f3ec93efbd299158253f283,001,51,male,UK,BA hons,2024-03-06_15h52.32.295,CRL1h,2023.2.3,Win32,19.84126984,65e67470ae2fbf2172c317b2,65e890bfdff7ad8b253a0bec,,,,,,,,,,,588.7886,1.4,590.1509,590.151,591.117,right,1,0.9631,,591.117,592.1248,2,11,43,0,1,partial,2,images/Ex1.jpg,right,reversed,hard,4,,,,,
,,,,,5f3ec93efbd299158253f283,001,51,male,UK,BA hons,2024-03-06_15h52.32.295,CRL1h,2023.2.3,Win32,19.84126984,65e67470ae2fbf2172c317b2,65e890bfdff7ad8b253a0bec,,,,,,,,,,,592.1261,0.7,592.808,592.8081,593.5011,right,1,0.6913,,593.5012,594.4994,2,12,44,8,1,partial,2,images/Ex1.jpg,right,reversed,hard,4,,,,,
,,,,,5f3ec93efbd299158253f283,001,51,male,UK,BA hons,2024-03-06_15h52.32.295,CRL1h,2023.2.3,Win32,19.84126984,65e67470ae2fbf2172c317b2,65e890bfdff7ad8b253a0bec,,,,,,,,,,,594.5001,1.1,595.5584,595.5585,596.9702,left,1,1.4082,,596.9702,597.9206,2,13,45,6,1,partial,2,images/Ex7.jpg,left,reversed,hard,4,,,,,
,,,,,5f3ec93efbd299158253f283,001,51,male,UK,BA hons,2024-03-06_15h52.32.295,CRL1h,2023.2.3,Win32,19.84126984,65e67470ae2fbf2172c317b2,65e890bfdff7ad8b253a0bec,,,,,,,,,,,597.922,1.4,599.3448,599.3449,600.3127,right,0,0.9629,,600.3128,601.3204,2,14,46,7,1,partial,2,images/Ex8.jpg,left,reversed,hard,4,,,,,
,,,,,5f3ec93efbd299158253f283,001,51,male,UK,BA hons,2024-03-06_15h52.32.295,CRL1h,2023.2.3,Win32,19.84126984,65e67470ae2fbf2172c317b2,65e890bfdff7ad8b253a0bec,,,,,,,,,,,601.3214,1.3,602.6239,602.6241,603.661,left,1,1.0346,,603.661,604.6126,2,15,47,11,1,partial,2,images/Ex4.jpg,left,nonreversed,hard,4,,,,,
,,,,,5f3ec93efbd299158253f283,001,51,male,UK,BA hons,2024-03-06_15h52.32.295,CRL1h,2023.2.3,Win32,19.84126984,65e67470ae2fbf2172c317b2,65e890bfdff7ad8b253a0bec,,,,,,,,,,,604.6139,1,605.6029,605.6029,606.5628,left,1,0.9573,,606.5629,607.5158,3,0,48,15,1,partial,2,images/Ex8.jpg,left,reversed,hard,4,,,,,
,,,,,5f3ec93efbd299158253f283,001,51,male,UK,BA hons,2024-03-06_15h52.32.295,CRL1h,2023.2.3,Win32,19.84126984,65e67470ae2fbf2172c317b2,65e890bfdff7ad8b253a0bec,,,,,,,,,,,607.5174,0.9,608.3727,608.3727,609.0655,left,1,0.6907,,609.0656,610.0714,3,1,49,7,1,partial,2,images/Ex8.jpg,left,reversed,hard,4,,,,,
,,,,,5f3ec93efbd299158253f283,001,51,male,UK,BA hons,2024-03-06_15h52.32.295,CRL1h,2023.2.3,Win32,19.84126984,65e67470ae2fbf2172c317b2,65e890bfdff7ad8b253a0bec,,,,,,,,,,,610.0725,1.4,611.443,611.443,612.6084,right,0,1.1621,,612.6087,613.5633,3,2,50,10,1,partial,2,images/Ex3.jpg,left,nonreversed,hard,4,,,,,
,,,,,5f3ec93efbd299158253f283,001,51,male,UK,BA hons,2024-03-06_15h52.32.295,CRL1h,2023.2.3,Win32,19.84126984,65e67470ae2fbf2172c317b2,65e890bfdff7ad8b253a0bec,,,,,,,,,,,613.5642,1.4,614.9889,614.989,615.8285,left,0,0.8375,,615.8285,616.8409,3,3,51,13,1,partial,2,images/Ex6.jpg,right,nonreversed,hard,4,,,,,
,,,,,5f3ec93efbd299158253f283,001,51,male,UK,BA hons,2024-03-06_15h52.32.295,CRL1h,2023.2.3,Win32,19.84126984,65e67470ae2fbf2172c317b2,65e890bfdff7ad8b253a0bec,,,,,,,,,,,616.842,1.4,618.2051,618.2052,619.0413,right,1,0.8334,,619.0414,619.9924,3,4,52,0,1,partial,2,images/Ex1.jpg,right,reversed,hard,4,,,,,
,,,,,5f3ec93efbd299158253f283,001,51,male,UK,BA hons,2024-03-06_15h52.32.295,CRL1h,2023.2.3,Win32,19.84126984,65e67470ae2fbf2172c317b2,65e890bfdff7ad8b253a0bec,,,,,,,,,,,619.9933,1.1,621.1019,621.1019,621.9331,left,1,0.828,,621.9332,622.9436,3,5,53,3,1,partial,2,images/Ex4.jpg,left,nonreversed,hard,4,,,,,
,,,,,5f3ec93efbd299158253f283,001,51,male,UK,BA hons,2024-03-06_15h52.32.295,CRL1h,2023.2.3,Win32,19.84126984,65e67470ae2fbf2172c317b2,65e890bfdff7ad8b253a0bec,,,,,,,,,,,622.9446,1.3,624.2408,624.2409,625.2743,right,1,1.031,,625.2743,626.2828,3,6,54,4,1,partial,2,images/Ex5.jpg,right,nonreversed,hard,4,,,,,
,,,,,5f3ec93efbd299158253f283,001,51,male,UK,BA hons,2024-03-06_15h52.32.295,CRL1h,2023.2.3,Win32,19.84126984,65e67470ae2fbf2172c317b2,65e890bfdff7ad8b253a0bec,,,,,,,,,,,626.284,1.2,627.4726,627.4728,628.1678,right,1,0.6925,,628.1679,629.1249,3,7,55,12,1,partial,2,images/Ex5.jpg,right,nonreversed,hard,4,,,,,
,,,,,5f3ec93efbd299158253f283,001,51,male,UK,BA hons,2024-03-06_15h52.32.295,CRL1h,2023.2.3,Win32,19.84126984,65e67470ae2fbf2172c317b2,65e890bfdff7ad8b253a0bec,,,,,,,,,,,629.1262,1.2,630.2982,630.2982,631.1937,right,1,0.8932,,631.1938,632.2018,3,8,56,8,1,partial,2,images/Ex1.jpg,right,reversed,hard,4,,,,,
,,,,,5f3ec93efbd299158253f283,001,51,male,UK,BA hons,2024-03-06_15h52.32.295,CRL1h,2023.2.3,Win32,19.84126984,65e67470ae2fbf2172c317b2,65e890bfdff7ad8b253a0bec,,,,,,,,,,,632.2029,1.2,633.3616,633.3617,634.2694,left,1,0.9055,,634.2695,635.2784,3,9,57,11,1,partial,2,images/Ex4.jpg,left,nonreversed,hard,4,,,,,
,,,,,5f3ec93efbd299158253f283,001,51,male,UK,BA hons,2024-03-06_15h52.32.295,CRL1h,2023.2.3,Win32,19.84126984,65e67470ae2fbf2172c317b2,65e890bfdff7ad8b253a0bec,,,,,,,,,,,635.2793,1.4,636.6389,636.639,637.6988,right,1,1.0536,,637.699,638.6525,3,10,58,1,1,partial,2,images/Ex2.jpg,right,reversed,hard,4,,,,,
,,,,,5f3ec93efbd299158253f283,001,51,male,UK,BA hons,2024-03-06_15h52.32.295,CRL1h,2023.2.3,Win32,19.84126984,65e67470ae2fbf2172c317b2,65e890bfdff7ad8b253a0bec,,,,,,,,,,,638.6533,0.8,639.4573,639.4573,640.7282,left,0,1.2673,,640.7284,641.7372,3,11,59,5,1,partial,2,images/Ex6.jpg,right,nonreversed,hard,4,,,,,
,,,,,5f3ec93efbd299158253f283,001,51,male,UK,BA hons,2024-03-06_15h52.32.295,CRL1h,2023.2.3,Win32,19.84126984,65e67470ae2fbf2172c317b2,65e890bfdff7ad8b253a0bec,,,,,,,,,,,641.7381,1,642.7309,642.7309,643.6274,right,1,0.8933,,643.6276,644.5819,3,12,60,9,1,partial,2,images/Ex2.jpg,right,reversed,hard,4,,,,,
,,,,,5f3ec93efbd299158253f283,001,51,male,UK,BA hons,2024-03-06_15h52.32.295,CRL1h,2023.2.3,Win32,19.84126984,65e67470ae2fbf2172c317b2,65e890bfdff7ad8b253a0bec,,,,,,,,,,,644.5829,0.8,645.3775,645.3776,646.7632,left,1,1.383,,646.7632,647.772,3,13,61,2,1,partial,2,images/Ex3.jpg,left,nonreversed,hard,4,,,,,
,,,,,5f3ec93efbd299158253f283,001,51,male,UK,BA hons,2024-03-06_15h52.32.295,CRL1h,2023.2.3,Win32,19.84126984,65e67470ae2fbf2172c317b2,65e890bfdff7ad8b253a0bec,,,,,,,,,,,647.773,1.4,649.124,649.1241,650.3992,left,1,1.272,,650.3993,651.4066,3,14,62,14,1,partial,2,images/Ex7.jpg,left,reversed,hard,4,,,,,
,,,,,5f3ec93efbd299158253f283,001,51,male,UK,BA hons,2024-03-06_15h52.32.295,CRL1h,2023.2.3,Win32,19.84126984,65e67470ae2fbf2172c317b2,65e890bfdff7ad8b253a0bec,,,,,,,,,,,651.4075,0.9,652.2691,652.2692,653.019,left,1,0.7475,,653.019,654.0249,3,15,63,6,1,partial,2,images/Ex7.jpg,left,reversed,hard,4,,,,,
,,,,,5f3ec93efbd299158253f283,001,51,male,UK,BA hons,2024-03-06_15h52.32.295,CRL1h,2023.2.3,Win32,19.84126984,65e67470ae2fbf2172c317b2,65e890bfdff7ad8b253a0bec,,,,,,654.0275,658.5031,space,4.418,,658.5553,0.6,659.16,659.1601,660.8185,left,1,1.6557,,660.8187,661.8182,0,0,0,0,1,total,1,images/Ex9.jpg,left,training,hard,4,,,,,
,,,,,5f3ec93efbd299158253f283,001,51,male,UK,BA hons,2024-03-06_15h52.32.295,CRL1h,2023.2.3,Win32,19.84126984,65e67470ae2fbf2172c317b2,65e890bfdff7ad8b253a0bec,,,,,,,,,,,661.8192,1,662.8095,662.8095,664.2001,left,0,1.3884,,664.2002,665.2096,0,1,1,15,1,total,1,images/Ex16.jpg,right,training,hard,4,,,,,
,,,,,5f3ec93efbd299158253f283,001,51,male,UK,BA hons,2024-03-06_15h52.32.295,CRL1h,2023.2.3,Win32,19.84126984,65e67470ae2fbf2172c317b2,65e890bfdff7ad8b253a0bec,,,,,,,,,,,665.2105,0.6,665.8228,665.823,666.8184,left,0,0.9931,,666.8185,667.8318,0,2,2,6,1,total,1,images/Ex15.jpg,right,training,hard,4,,,,,
,,,,,5f3ec93efbd299158253f283,001,51,male,UK,BA hons,2024-03-06_15h52.32.295,CRL1h,2023.2.3,Win32,19.84126984,65e67470ae2fbf2172c317b2,65e890bfdff7ad8b253a0bec,,,,,,,,,,,667.8333,0.5,668.3244,668.3246,669.1903,left,1,0.863,,669.1904,670.1422,0,3,3,1,1,total,1,images/Ex10.jpg,left,training,hard,4,,,,,
,,,,,5f3ec93efbd299158253f283,001,51,male,UK,BA hons,2024-03-06_15h52.32.295,CRL1h,2023.2.3,Win32,19.84126984,65e67470ae2fbf2172c317b2,65e890bfdff7ad8b253a0bec,,,,,,,,,,,670.1436,0.6,670.6956,670.6957,671.6896,right,1,0.991,,671.6897,672.6952,0,4,4,7,1,total,1,images/Ex16.jpg,right,training,hard,4,,,,,
,,,,,5f3ec93efbd299158253f283,001,51,male,UK,BA hons,2024-03-06_15h52.32.295,CRL1h,2023.2.3,Win32,19.84126984,65e67470ae2fbf2172c317b2,65e890bfdff7ad8b253a0bec,,,,,,,,,,,672.6967,1,673.6843,673.6844,674.7549,left,1,1.0678,,674.755,675.7643,0,5,5,2,1,total,1,images/Ex11.jpg,left,training,hard,4,,,,,
,,,,,5f3ec93efbd299158253f283,001,51,male,UK,BA hons,2024-03-06_15h52.32.295,CRL1h,2023.2.3,Win32,19.84126984,65e67470ae2fbf2172c317b2,65e890bfdff7ad8b253a0bec,,,,,,,,,,,675.7659,1.1,676.8235,676.8235,678.2494,left,1,1.4237,,678.2496,679.2548,0,6,6,3,1,total,1,images/Ex12.jpg,left,training,hard,4,,,,,
,,,,,5f3ec93efbd299158253f283,001,51,male,UK,BA hons,2024-03-06_15h52.32.295,CRL1h,2023.2.3,Win32,19.84126984,65e67470ae2fbf2172c317b2,65e890bfdff7ad8b253a0bec,,,,,,,,,,,679.2562,0.8,680.0609,680.061,681.1169,left,0,1.0529,,681.117,682.1257,0,7,7,5,1,total,1,images/Ex14.jpg,right,training,hard,4,,,,,
,,,,,5f3ec93efbd299158253f283,001,51,male,UK,BA hons,2024-03-06_15h52.32.295,CRL1h,2023.2.3,Win32,19.84126984,65e67470ae2fbf2172c317b2,65e890bfdff7ad8b253a0bec,,,,,,,,,,,682.127,0.7,682.806,682.8061,683.9243,left,0,1.1138,,683.9244,684.9335,0,8,8,12,1,total,1,images/Ex13.jpg,right,training,hard,4,,,,,
,,,,,5f3ec93efbd299158253f283,001,51,male,UK,BA hons,2024-03-06_15h52.32.295,CRL1h,2023.2.3,Win32,19.84126984,65e67470ae2fbf2172c317b2,65e890bfdff7ad8b253a0bec,,,,,,,,,,,684.9346,1.5,686.443,686.4431,687.7107,right,0,1.2648,,687.7108,688.7011,0,9,9,9,1,total,1,images/Ex10.jpg,left,training,hard,4,,,,,
,,,,,5f3ec93efbd299158253f283,001,51,male,UK,BA hons,2024-03-06_15h52.32.295,CRL1h,2023.2.3,Win32,19.84126984,65e67470ae2fbf2172c317b2,65e890bfdff7ad8b253a0bec,,,,,,,,,,,688.7022,0.9,689.5724,689.5725,691.1329,left,0,1.5569,,691.133,692.1453,0,10,10,4,1,total,1,images/Ex13.jpg,right,training,hard,4,,,,,
,,,,,5f3ec93efbd299158253f283,001,51,male,UK,BA hons,2024-03-06_15h52.32.295,CRL1h,2023.2.3,Win32,19.84126984,65e67470ae2fbf2172c317b2,65e890bfdff7ad8b253a0bec,,,,,,,,,,,692.1471,0.9,693.0084,693.0085,694.39,right,1,1.3796,,694.3902,695.3471,0,11,11,14,1,total,1,images/Ex15.jpg,right,training,hard,4,,,,,
,,,,,5f3ec93efbd299158253f283,001,51,male,UK,BA hons,2024-03-06_15h52.32.295,CRL1h,2023.2.3,Win32,19.84126984,65e67470ae2fbf2172c317b2,65e890bfdff7ad8b253a0bec,,,,,,,,,,,695.3843,0.9,696.2502,696.2506,697.5473,right,0,1.2934,,697.5473,698.5203,0,12,12,8,1,total,1,images/Ex9.jpg,left,training,hard,4,,,,,
,,,,,5f3ec93efbd299158253f283,001,51,male,UK,BA hons,2024-03-06_15h52.32.295,CRL1h,2023.2.3,Win32,19.84126984,65e67470ae2fbf2172c317b2,65e890bfdff7ad8b253a0bec,,,,,,,,,,,698.5214,1.3,699.8406,699.8406,700.9266,left,1,1.0831,,700.9267,701.9326,0,13,13,11,1,total,1,images/Ex12.jpg,left,training,hard,4,,,,,
,,,,,5f3ec93efbd299158253f283,001,51,male,UK,BA hons,2024-03-06_15h52.32.295,CRL1h,2023.2.3,Win32,19.84126984,65e67470ae2fbf2172c317b2,65e890bfdff7ad8b253a0bec,,,,,,,,,,,701.9334,1.2,703.1074,703.1076,704.2329,left,0,1.1233,,704.2331,705.2448,0,14,14,13,1,total,1,images/Ex14.jpg,right,training,hard,4,,,,,
,,,,,5f3ec93efbd299158253f283,001,51,male,UK,BA hons,2024-03-06_15h52.32.295,CRL1h,2023.2.3,Win32,19.84126984,65e67470ae2fbf2172c317b2,65e890bfdff7ad8b253a0bec,,,,,,,,,,,705.2461,0.9,706.1136,706.1137,707.3639,left,1,1.2475,,707.3639,708.382,0,15,15,10,1,total,1,images/Ex11.jpg,left,training,hard,4,,,,,
,,,,,5f3ec93efbd299158253f283,001,51,male,UK,BA hons,2024-03-06_15h52.32.295,CRL1h,2023.2.3,Win32,19.84126984,65e67470ae2fbf2172c317b2,65e890bfdff7ad8b253a0bec,,,,,,,,,,,708.3834,0.6,708.9385,708.9386,710.5931,right,1,1.6522,,710.5931,711.5982,1,0,16,5,1,total,1,images/Ex14.jpg,right,training,hard,4,,,,,
,,,,,5f3ec93efbd299158253f283,001,51,male,UK,BA hons,2024-03-06_15h52.32.295,CRL1h,2023.2.3,Win32,19.84126984,65e67470ae2fbf2172c317b2,65e890bfdff7ad8b253a0bec,,,,,,,,,,,711.5991,0.9,712.4622,712.4622,714.0728,right,1,1.606,,714.0729,715.0246,1,1,17,7,1,total,1,images/Ex16.jpg,right,training,hard,4,,,,,
,,,,,5f3ec93efbd299158253f283,001,51,male,UK,BA hons,2024-03-06_15h52.32.295,CRL1h,2023.2.3,Win32,19.84126984,65e67470ae2fbf2172c317b2,65e890bfdff7ad8b253a0bec,,,,,,,,,,,715.026,0.9,715.8916,715.8917,717.0382,left,0,1.1426,,717.0382,718.0148,1,2,18,4,1,total,1,images/Ex13.jpg,right,training,hard,4,,,,,
,,,,,5f3ec93efbd299158253f283,001,51,male,UK,BA hons,2024-03-06_15h52.32.295,CRL1h,2023.2.3,Win32,19.84126984,65e67470ae2fbf2172c317b2,65e890bfdff7ad8b253a0bec,,,,,,,,,,,718.016,0.6,718.58,718.5801,720.0411,right,0,1.4583,,720.0412,721.0498,1,3,19,0,1,total,1,images/Ex9.jpg,left,training,hard,4,,,,,
,,,,,5f3ec93efbd299158253f283,001,51,male,UK,BA hons,2024-03-06_15h52.32.295,CRL1h,2023.2.3,Win32,19.84126984,65e67470ae2fbf2172c317b2,65e890bfdff7ad8b253a0bec,,,,,,,,,,,721.0511,0.5,721.5446,721.5447,722.7561,right,1,1.2089,,722.7562,723.7091,1,4,20,15,1,total,1,images/Ex16.jpg,right,training,hard,4,,,,,
,,,,,5f3ec93efbd299158253f283,001,51,male,UK,BA hons,2024-03-06_15h52.32.295,CRL1h,2023.2.3,Win32,19.84126984,65e67470ae2fbf2172c317b2,65e890bfdff7ad8b253a0bec,,,,,,,,,,,723.7099,0.5,724.203,724.2031,725.2828,left,1,1.0766,,725.2829,726.2884,1,5,21,11,1,total,1,images/Ex12.jpg,left,training,hard,4,,,,,
,,,,,5f3ec93efbd299158253f283,001,51,male,UK,BA hons,2024-03-06_15h52.32.295,CRL1h,2023.2.3,Win32,19.84126984,65e67470ae2fbf2172c317b2,65e890bfdff7ad8b253a0bec,,,,,,,,,,,726.2896,0.9,727.2096,727.2097,728.818,left,0,1.6058,,728.8181,729.8217,1,6,22,14,1,total,1,images/Ex15.jpg,right,training,hard,4,,,,,
,,,,,5f3ec93efbd299158253f283,001,51,male,UK,BA hons,2024-03-06_15h52.32.295,CRL1h,2023.2.3,Win32,19.84126984,65e67470ae2fbf2172c317b2,65e890bfdff7ad8b253a0bec,,,,,,,,,,,729.8229,0.8,730.6345,730.6345,731.787,right,0,1.1488,,731.7871,732.7845,1,7,23,9,1,total,1,images/Ex10.jpg,left,training,hard,4,,,,,
,,,,,5f3ec93efbd299158253f283,001,51,male,UK,BA hons,2024-03-06_15h52.32.295,CRL1h,2023.2.3,Win32,19.84126984,65e67470ae2fbf2172c317b2,65e890bfdff7ad8b253a0bec,,,,,,,,,,,732.786,0.6,733.3438,733.3439,734.8197,right,1,1.4738,,734.8199,735.8234,1,8,24,13,1,total,1,images/Ex14.jpg,right,training,hard,4,,,,,
,,,,,5f3ec93efbd299158253f283,001,51,male,UK,BA hons,2024-03-06_15h52.32.295,CRL1h,2023.2.3,Win32,19.84126984,65e67470ae2fbf2172c317b2,65e890bfdff7ad8b253a0bec,,,,,,,,,,,735.8248,1.1,736.9355,736.9356,738.4171,left,1,1.4784,,738.4179,739.435,1,9,25,2,1,total,1,images/Ex11.jpg,left,training,hard,4,,,,,
,,,,,5f3ec93efbd299158253f283,001,51,male,UK,BA hons,2024-03-06_15h52.32.295,CRL1h,2023.2.3,Win32,19.84126984,65e67470ae2fbf2172c317b2,65e890bfdff7ad8b253a0bec,,,,,,,,,,,739.4715,0.7,740.1457,740.1457,741.3594,right,1,1.2093,,741.3595,742.3144,1,10,26,12,1,total,1,images/Ex13.jpg,right,training,hard,4,,,,,
,,,,,5f3ec93efbd299158253f283,001,51,male,UK,BA hons,2024-03-06_15h52.32.295,CRL1h,2023.2.3,Win32,19.84126984,65e67470ae2fbf2172c317b2,65e890bfdff7ad8b253a0bec,,,,,,,,,,,742.3159,0.9,743.1831,743.1833,744.9142,left,1,1.7272,,744.9143,745.8698,1,11,27,3,1,total,1,images/Ex12.jpg,left,training,hard,4,,,,,
,,,,,5f3ec93efbd299158253f283,001,51,male,UK,BA hons,2024-03-06_15h52.32.295,CRL1h,2023.2.3,Win32,19.84126984,65e67470ae2fbf2172c317b2,65e890bfdff7ad8b253a0bec,,,,,,,,,,,745.9068,1.4,747.3264,747.3266,748.7546,right,0,1.4252,,748.7547,749.7576,1,12,28,10,1,total,1,images/Ex11.jpg,left,training,hard,4,,,,,
,,,,,5f3ec93efbd299158253f283,001,51,male,UK,BA hons,2024-03-06_15h52.32.295,CRL1h,2023.2.3,Win32,19.84126984,65e67470ae2fbf2172c317b2,65e890bfdff7ad8b253a0bec,,,,,,,,,,,749.7941,0.9,750.6595,750.6595,752.0725,right,0,1.4102,,752.0725,753.0814,1,13,29,1,1,total,1,images/Ex10.jpg,left,training,hard,4,,,,,
,,,,,5f3ec93efbd299158253f283,001,51,male,UK,BA hons,2024-03-06_15h52.32.295,CRL1h,2023.2.3,Win32,19.84126984,65e67470ae2fbf2172c317b2,65e890bfdff7ad8b253a0bec,,,,,,,,,,,753.0822,0.9,753.9471,753.9473,755.5621,left,0,1.6127,,755.5622,756.5691,1,14,30,6,1,total,1,images/Ex15.jpg,right,training,hard,4,,,,,
,,,,,5f3ec93efbd299158253f283,001,51,male,UK,BA hons,2024-03-06_15h52.32.295,CRL1h,2023.2.3,Win32,19.84126984,65e67470ae2fbf2172c317b2,65e890bfdff7ad8b253a0bec,,,,,,,,,,,756.5699,0.8,757.3721,757.3722,759.037,right,0,1.6617,,759.0371,760.0513,1,15,31,8,1,total,1,images/Ex9.jpg,left,training,hard,4,,,,,
,,,,,5f3ec93efbd299158253f283,001,51,male,UK,BA hons,2024-03-06_15h52.32.295,CRL1h,2023.2.3,Win32,19.84126984,65e67470ae2fbf2172c317b2,65e890bfdff7ad8b253a0bec,,,,,,,,,,,760.0524,0.7,760.7372,760.7373,761.8921,left,1,1.1524,,761.8922,762.9168,2,0,32,2,1,total,1,images/Ex11.jpg,left,training,hard,4,,,,,
,,,,,5f3ec93efbd299158253f283,001,51,male,UK,BA hons,2024-03-06_15h52.32.295,CRL1h,2023.2.3,Win32,19.84126984,65e67470ae2fbf2172c317b2,65e890bfdff7ad8b253a0bec,,,,,,,,,,,762.9176,1.2,764.1196,764.1197,765.815,left,0,1.6926,,765.8151,766.8244,2,1,33,15,1,total,1,images/Ex16.jpg,right,training,hard,4,,,,,
,,,,,5f3ec93efbd299158253f283,001,51,male,UK,BA hons,2024-03-06_15h52.32.295,CRL1h,2023.2.3,Win32,19.84126984,65e67470ae2fbf2172c317b2,65e890bfdff7ad8b253a0bec,,,,,,,,,,,766.8609,1.1,767.9704,767.9705,769.3314,right,0,1.3582,,769.3315,770.2845,2,2,34,8,1,total,1,images/Ex9.jpg,left,training,hard,4,,,,,
,,,,,5f3ec93efbd299158253f283,001,51,male,UK,BA hons,2024-03-06_15h52.32.295,CRL1h,2023.2.3,Win32,19.84126984,65e67470ae2fbf2172c317b2,65e890bfdff7ad8b253a0bec,,,,,,,,,,,770.2854,1,771.2691,771.2692,772.4278,right,1,1.1555,,772.428,773.3809,2,3,35,14,1,total,1,images/Ex15.jpg,right,training,hard,4,,,,,
,,,,,5f3ec93efbd299158253f283,001,51,male,UK,BA hons,2024-03-06_15h52.32.295,CRL1h,2023.2.3,Win32,19.84126984,65e67470ae2fbf2172c317b2,65e890bfdff7ad8b253a0bec,,,,,,,,,,,773.3819,1.1,774.4369,774.437,775.3928,left,1,0.9532,,775.3936,776.4166,2,4,36,0,1,total,1,images/Ex9.jpg,left,training,hard,4,,,,,
,,,,,5f3ec93efbd299158253f283,001,51,male,UK,BA hons,2024-03-06_15h52.32.295,CRL1h,2023.2.3,Win32,19.84126984,65e67470ae2fbf2172c317b2,65e890bfdff7ad8b253a0bec,,,,,,,,,,,776.4175,0.6,776.9712,776.9712,778.3275,left,1,1.3531,,778.3276,779.2821,2,5,37,1,1,total,1,images/Ex10.jpg,left,training,hard,4,,,,,
,,,,,5f3ec93efbd299158253f283,001,51,male,UK,BA hons,2024-03-06_15h52.32.295,CRL1h,2023.2.3,Win32,19.84126984,65e67470ae2fbf2172c317b2,65e890bfdff7ad8b253a0bec,,,,,,,,,,,779.3192,1,780.3202,780.3202,781.6572,right,1,1.333,,781.6574,782.6218,2,6,38,13,1,total,1,images/Ex14.jpg,right,training,hard,4,,,,,
,,,,,5f3ec93efbd299158253f283,001,51,male,UK,BA hons,2024-03-06_15h52.32.295,CRL1h,2023.2.3,Win32,19.84126984,65e67470ae2fbf2172c317b2,65e890bfdff7ad8b253a0bec,,,,,,,,,,,782.623,1.4,783.9996,783.9997,784.9144,right,1,0.9121,,784.9145,785.8752,2,7,39,7,1,total,1,images/Ex16.jpg,right,training,hard,4,,,,,
,,,,,5f3ec93efbd299158253f283,001,51,male,UK,BA hons,2024-03-06_15h52.32.295,CRL1h,2023.2.3,Win32,19.84126984,65e67470ae2fbf2172c317b2,65e890bfdff7ad8b253a0bec,,,,,,,,,,,785.8768,1.3,787.1872,787.1873,788.1055,left,1,0.9158,,788.1056,789.0804,2,8,40,9,1,total,1,images/Ex10.jpg,left,training,hard,4,,,,,
,,,,,5f3ec93efbd299158253f283,001,51,male,UK,BA hons,2024-03-06_15h52.32.295,CRL1h,2023.2.3,Win32,19.84126984,65e67470ae2fbf2172c317b2,65e890bfdff7ad8b253a0bec,,,,,,,,,,,789.0817,0.5,789.5822,789.5822,791.2658,left,0,1.6814,,791.2665,792.2321,2,9,41,5,1,total,1,images/Ex14.jpg,right,training,hard,4,,,,,
,,,,,5f3ec93efbd299158253f283,001,51,male,UK,BA hons,2024-03-06_15h52.32.295,CRL1h,2023.2.3,Win32,19.84126984,65e67470ae2fbf2172c317b2,65e890bfdff7ad8b253a0bec,,,,,,,,,,,792.2331,0.8,792.9834,792.9834,794.7065,right,1,1.7195,,794.7066,795.6585,2,10,42,6,1,total,1,images/Ex15.jpg,right,training,hard,4,,,,,
,,,,,5f3ec93efbd299158253f283,001,51,male,UK,BA hons,2024-03-06_15h52.32.295,CRL1h,2023.2.3,Win32,19.84126984,65e67470ae2fbf2172c317b2,65e890bfdff7ad8b253a0bec,,,,,,,,,,,795.6599,0.6,796.2284,796.2285,797.2575,left,0,1.0269,,797.2576,798.2118,2,11,43,4,1,total,1,images/Ex13.jpg,right,training,hard,4,,,,,
,,,,,5f3ec93efbd299158253f283,001,51,male,UK,BA hons,2024-03-06_15h52.32.295,CRL1h,2023.2.3,Win32,19.84126984,65e67470ae2fbf2172c317b2,65e890bfdff7ad8b253a0bec,,,,,,,,,,,798.2131,1.2,799.4104,799.4104,800.3316,left,1,0.9175,,800.3317,801.3011,2,12,44,11,1,total,1,images/Ex12.jpg,left,training,hard,4,,,,,
,,,,,5f3ec93efbd299158253f283,001,51,male,UK,BA hons,2024-03-06_15h52.32.295,CRL1h,2023.2.3,Win32,19.84126984,65e67470ae2fbf2172c317b2,65e890bfdff7ad8b253a0bec,,,,,,,,,,,801.3022,1.2,802.4886,802.4887,803.3977,right,1,0.904,,803.398,804.3507,2,13,45,12,1,total,1,images/Ex13.jpg,right,training,hard,4,,,,,
,,,,,5f3ec93efbd299158253f283,001,51,male,UK,BA hons,2024-03-06_15h52.32.295,CRL1h,2023.2.3,Win32,19.84126984,65e67470ae2fbf2172c317b2,65e890bfdff7ad8b253a0bec,,,,,,,,,,,804.3515,0.5,804.8481,804.8482,806.0931,left,1,1.2393,,806.0932,807.0799,2,14,46,3,1,total,1,images/Ex12.jpg,left,training,hard,4,,,,,
,,,,,5f3ec93efbd299158253f283,001,51,male,UK,BA hons,2024-03-06_15h52.32.295,CRL1h,2023.2.3,Win32,19.84126984,65e67470ae2fbf2172c317b2,65e890bfdff7ad8b253a0bec,,,,,,,,,,,807.0813,0.7,807.7822,807.7822,808.8122,right,0,1.0262,,808.8123,809.8092,2,15,47,10,1,total,1,images/Ex11.jpg,left,training,hard,4,,,,,
,,,,,5f3ec93efbd299158253f283,001,51,male,UK,BA hons,2024-03-06_15h52.32.295,CRL1h,2023.2.3,Win32,19.84126984,65e67470ae2fbf2172c317b2,65e890bfdff7ad8b253a0bec,,,,,,,,,,,809.8104,1.3,811.1125,811.1126,812.5291,right,1,1.4139,,812.5292,813.5391,3,0,48,12,1,total,1,images/Ex13.jpg,right,training,hard,4,,,,,
,,,,,5f3ec93efbd299158253f283,001,51,male,UK,BA hons,2024-03-06_15h52.32.295,CRL1h,2023.2.3,Win32,19.84126984,65e67470ae2fbf2172c317b2,65e890bfdff7ad8b253a0bec,,,,,,,,,,,813.5403,0.6,814.097,814.097,815.0654,left,0,0.9662,,815.0655,816.0735,3,1,49,5,1,total,1,images/Ex14.jpg,right,training,hard,4,,,,,
,,,,,5f3ec93efbd299158253f283,001,51,male,UK,BA hons,2024-03-06_15h52.32.295,CRL1h,2023.2.3,Win32,19.84126984,65e67470ae2fbf2172c317b2,65e890bfdff7ad8b253a0bec,,,,,,,,,,,816.0748,1.1,817.1847,817.1848,817.9587,left,1,0.77,,817.9589,818.9103,3,2,50,11,1,total,1,images/Ex12.jpg,left,training,hard,4,,,,,
,,,,,5f3ec93efbd299158253f283,001,51,male,UK,BA hons,2024-03-06_15h52.32.295,CRL1h,2023.2.3,Win32,19.84126984,65e67470ae2fbf2172c317b2,65e890bfdff7ad8b253a0bec,,,,,,,,,,,818.9115,1.5,820.3988,820.3988,821.2248,left,1,0.8229,,821.225,822.1764,3,3,51,3,1,total,1,images/Ex12.jpg,left,training,hard,4,,,,,
,,,,,5f3ec93efbd299158253f283,001,51,male,UK,BA hons,2024-03-06_15h52.32.295,CRL1h,2023.2.3,Win32,19.84126984,65e67470ae2fbf2172c317b2,65e890bfdff7ad8b253a0bec,,,,,,,,,,,822.1773,1.4,823.5352,823.5352,824.5709,right,0,1.0323,,824.571,825.5234,3,4,52,8,1,total,1,images/Ex9.jpg,left,training,hard,4,,,,,
,,,,,5f3ec93efbd299158253f283,001,51,male,UK,BA hons,2024-03-06_15h52.32.295,CRL1h,2023.2.3,Win32,19.84126984,65e67470ae2fbf2172c317b2,65e890bfdff7ad8b253a0bec,,,,,,,,,,,825.5247,1.1,826.6327,826.6328,827.5923,left,1,0.9574,,827.5924,828.5482,3,5,53,9,1,total,1,images/Ex10.jpg,left,training,hard,4,,,,,
,,,,,5f3ec93efbd299158253f283,001,51,male,UK,BA hons,2024-03-06_15h52.32.295,CRL1h,2023.2.3,Win32,19.84126984,65e67470ae2fbf2172c317b2,65e890bfdff7ad8b253a0bec,,,,,,,,,,,828.5489,1.4,829.9521,829.9522,831.3691,right,1,1.4138,,831.3691,832.3731,3,6,54,13,1,total,1,images/Ex14.jpg,right,training,hard,4,,,,,
,,,,,5f3ec93efbd299158253f283,001,51,male,UK,BA hons,2024-03-06_15h52.32.295,CRL1h,2023.2.3,Win32,19.84126984,65e67470ae2fbf2172c317b2,65e890bfdff7ad8b253a0bec,,,,,,,,,,,832.3739,1.2,833.5536,833.5537,835.3626,right,1,1.8063,,835.3627,836.3685,3,7,55,4,1,total,1,images/Ex13.jpg,right,training,hard,4,,,,,
,,,,,5f3ec93efbd299158253f283,001,51,male,UK,BA hons,2024-03-06_15h52.32.295,CRL1h,2023.2.3,Win32,19.84126984,65e67470ae2fbf2172c317b2,65e890bfdff7ad8b253a0bec,,,,,,,,,,,836.3699,1,837.3653,837.3653,838.392,left,1,1.0229,,838.3921,839.412,3,8,56,10,1,total,1,images/Ex11.jpg,left,training,hard,4,,,,,
,,,,,5f3ec93efbd299158253f283,001,51,male,UK,BA hons,2024-03-06_15h52.32.295,CRL1h,2023.2.3,Win32,19.84126984,65e67470ae2fbf2172c317b2,65e890bfdff7ad8b253a0bec,,,,,,,,,,,839.4126,1,840.3962,840.3963,842.0036,right,1,1.6049,,842.0039,842.9586,3,9,57,14,1,total,1,images/Ex15.jpg,right,training,hard,4,,,,,
,,,,,5f3ec93efbd299158253f283,001,51,male,UK,BA hons,2024-03-06_15h52.32.295,CRL1h,2023.2.3,Win32,19.84126984,65e67470ae2fbf2172c317b2,65e890bfdff7ad8b253a0bec,,,,,,,,,,,842.9595,1,843.9466,843.9467,845.0374,right,1,1.088,,845.0375,845.9881,3,10,58,15,1,total,1,images/Ex16.jpg,right,training,hard,4,,,,,
,,,,,5f3ec93efbd299158253f283,001,51,male,UK,BA hons,2024-03-06_15h52.32.295,CRL1h,2023.2.3,Win32,19.84126984,65e67470ae2fbf2172c317b2,65e890bfdff7ad8b253a0bec,,,,,,,,,,,845.9894,1.1,847.0947,847.0947,847.9373,left,1,0.8385,,847.9374,848.8911,3,11,59,2,1,total,1,images/Ex11.jpg,left,training,hard,4,,,,,
,,,,,5f3ec93efbd299158253f283,001,51,male,UK,BA hons,2024-03-06_15h52.32.295,CRL1h,2023.2.3,Win32,19.84126984,65e67470ae2fbf2172c317b2,65e890bfdff7ad8b253a0bec,,,,,,,,,,,848.8923,1,849.8807,849.8808,850.7196,right,1,0.8366,,850.7198,851.67,3,12,60,7,1,total,1,images/Ex16.jpg,right,training,hard,4,,,,,
,,,,,5f3ec93efbd299158253f283,001,51,male,UK,BA hons,2024-03-06_15h52.32.295,CRL1h,2023.2.3,Win32,19.84126984,65e67470ae2fbf2172c317b2,65e890bfdff7ad8b253a0bec,,,,,,,,,,,851.6712,1.2,852.8431,852.8431,853.7374,left,1,0.8914,,853.7375,854.7492,3,13,61,0,1,total,1,images/Ex9.jpg,left,training,hard,4,,,,,
,,,,,5f3ec93efbd299158253f283,001,51,male,UK,BA hons,2024-03-06_15h52.32.295,CRL1h,2023.2.3,Win32,19.84126984,65e67470ae2fbf2172c317b2,65e890bfdff7ad8b253a0bec,,,,,,,,,,,854.7504,0.7,855.4278,855.4279,856.1342,right,1,0.7035,,856.1343,857.1319,3,14,62,6,1,total,1,images/Ex15.jpg,right,training,hard,4,,,,,
,,,,,5f3ec93efbd299158253f283,001,51,male,UK,BA hons,2024-03-06_15h52.32.295,CRL1h,2023.2.3,Win32,19.84126984,65e67470ae2fbf2172c317b2,65e890bfdff7ad8b253a0bec,,,,,,,,,,,857.133,1.2,858.3063,858.3063,859.1576,left,1,0.8478,,859.1577,860.1809,3,15,63,1,1,total,1,images/Ex10.jpg,left,training,hard,4,,,,,
,,,,,5f3ec93efbd299158253f283,001,51,male,UK,BA hons,2024-03-06_15h52.32.295,CRL1h,2023.2.3,Win32,19.84126984,65e67470ae2fbf2172c317b2,65e890bfdff7ad8b253a0bec,,,,,,,,,,,860.1822,0.8,860.9884,860.9885,861.886,left,1,0.8945,,861.8862,862.8968,4,0,64,11,1,total,1,images/Ex12.jpg,left,training,hard,4,,,,,
,,,,,5f3ec93efbd299158253f283,001,51,male,UK,BA hons,2024-03-06_15h52.32.295,CRL1h,2023.2.3,Win32,19.84126984,65e67470ae2fbf2172c317b2,65e890bfdff7ad8b253a0bec,,,,,,,,,,,862.8977,0.8,863.7014,863.7014,864.469,left,1,0.7642,,864.4691,865.473,4,1,65,10,1,total,1,images/Ex11.jpg,left,training,hard,4,,,,,
,,,,,5f3ec93efbd299158253f283,001,51,male,UK,BA hons,2024-03-06_15h52.32.295,CRL1h,2023.2.3,Win32,19.84126984,65e67470ae2fbf2172c317b2,65e890bfdff7ad8b253a0bec,,,,,,,,,,,865.4743,1.4,866.8377,866.8377,867.429,right,1,0.5885,,867.4291,868.4376,4,2,66,6,1,total,1,images/Ex15.jpg,right,training,hard,4,,,,,
,,,,,5f3ec93efbd299158253f283,001,51,male,UK,BA hons,2024-03-06_15h52.32.295,CRL1h,2023.2.3,Win32,19.84126984,65e67470ae2fbf2172c317b2,65e890bfdff7ad8b253a0bec,,,,,,,,,,,868.4388,0.7,869.125,869.125,870.0148,left,1,0.8859,,870.0149,871.0209,4,3,67,9,1,total,1,images/Ex10.jpg,left,training,hard,4,,,,,
,,,,,5f3ec93efbd299158253f283,001,51,male,UK,BA hons,2024-03-06_15h52.32.295,CRL1h,2023.2.3,Win32,19.84126984,65e67470ae2fbf2172c317b2,65e890bfdff7ad8b253a0bec,,,,,,,,,,,871.0221,0.7,871.7011,871.7012,872.4721,left,1,0.7681,,872.4722,873.4693,4,4,68,3,1,total,1,images/Ex12.jpg,left,training,hard,4,,,,,
,,,,,5f3ec93efbd299158253f283,001,51,male,UK,BA hons,2024-03-06_15h52.32.295,CRL1h,2023.2.3,Win32,19.84126984,65e67470ae2fbf2172c317b2,65e890bfdff7ad8b253a0bec,,,,,,,,,,,873.4702,0.6,874.0261,874.0262,874.7927,right,1,0.7633,,874.7927,875.7836,4,5,69,7,1,total,1,images/Ex16.jpg,right,training,hard,4,,,,,
,,,,,5f3ec93efbd299158253f283,001,51,male,UK,BA hons,2024-03-06_15h52.32.295,CRL1h,2023.2.3,Win32,19.84126984,65e67470ae2fbf2172c317b2,65e890bfdff7ad8b253a0bec,,,,,,,,,,,875.7848,0.7,876.4685,876.4686,877.2975,left,0,0.8257,,877.2975,878.2519,4,6,70,5,1,total,1,images/Ex14.jpg,right,training,hard,4,,,,,
,,,,,5f3ec93efbd299158253f283,001,51,male,UK,BA hons,2024-03-06_15h52.32.295,CRL1h,2023.2.3,Win32,19.84126984,65e67470ae2fbf2172c317b2,65e890bfdff7ad8b253a0bec,,,,,,,,,,,878.2534,0.6,878.8751,878.8752,879.7113,right,1,0.8321,,879.7115,880.7105,4,7,71,15,1,total,1,images/Ex16.jpg,right,training,hard,4,,,,,
,,,,,5f3ec93efbd299158253f283,001,51,male,UK,BA hons,2024-03-06_15h52.32.295,CRL1h,2023.2.3,Win32,19.84126984,65e67470ae2fbf2172c317b2,65e890bfdff7ad8b253a0bec,,,,,,,,,,,880.7119,1.4,882.0746,882.0746,882.8471,left,1,0.769,,882.8472,883.8506,4,8,72,0,1,total,1,images/Ex9.jpg,left,training,hard,4,,,,,
,,,,,5f3ec93efbd299158253f283,001,51,male,UK,BA hons,2024-03-06_15h52.32.295,CRL1h,2023.2.3,Win32,19.84126984,65e67470ae2fbf2172c317b2,65e890bfdff7ad8b253a0bec,,,,,,,,,,,883.8517,0.8,884.6524,884.6524,885.6039,right,1,0.9487,,885.6039,886.6114,4,9,73,12,1,total,1,images/Ex13.jpg,right,training,hard,4,,,,,
,,,,,5f3ec93efbd299158253f283,001,51,male,UK,BA hons,2024-03-06_15h52.32.295,CRL1h,2023.2.3,Win32,19.84126984,65e67470ae2fbf2172c317b2,65e890bfdff7ad8b253a0bec,,,,,,,,,,,886.6125,1.1,887.7234,887.7235,888.5689,left,1,0.8412,,888.569,889.5359,4,10,74,8,1,total,1,images/Ex9.jpg,left,training,hard,4,,,,,
,,,,,5f3ec93efbd299158253f283,001,51,male,UK,BA hons,2024-03-06_15h52.32.295,CRL1h,2023.2.3,Win32,19.84126984,65e67470ae2fbf2172c317b2,65e890bfdff7ad8b253a0bec,,,,,,,,,,,889.5375,1.1,890.6475,890.6475,891.6088,left,0,0.9575,,891.6089,892.6119,4,11,75,13,1,total,1,images/Ex14.jpg,right,training,hard,4,,,,,
,,,,,5f3ec93efbd299158253f283,001,51,male,UK,BA hons,2024-03-06_15h52.32.295,CRL1h,2023.2.3,Win32,19.84126984,65e67470ae2fbf2172c317b2,65e890bfdff7ad8b253a0bec,,,,,,,,,,,892.6135,1.2,893.779,893.7791,894.5533,left,1,0.7713,,894.5534,895.5286,4,12,76,1,1,total,1,images/Ex10.jpg,left,training,hard,4,,,,,
,,,,,5f3ec93efbd299158253f283,001,51,male,UK,BA hons,2024-03-06_15h52.32.295,CRL1h,2023.2.3,Win32,19.84126984,65e67470ae2fbf2172c317b2,65e890bfdff7ad8b253a0bec,,,,,,,,,,,895.5296,0.6,896.1414,896.1415,896.8477,left,1,0.7027,,896.8478,897.8588,4,13,77,2,1,total,1,images/Ex11.jpg,left,training,hard,4,,,,,
,,,,,5f3ec93efbd299158253f283,001,51,male,UK,BA hons,2024-03-06_15h52.32.295,CRL1h,2023.2.3,Win32,19.84126984,65e67470ae2fbf2172c317b2,65e890bfdff7ad8b253a0bec,,,,,,,,,,,897.8602,1,898.849,898.8491,899.6264,right,1,0.773,,899.6265,900.6332,4,14,78,14,1,total,1,images/Ex15.jpg,right,training,hard,4,,,,,
,,,,,5f3ec93efbd299158253f283,001,51,male,UK,BA hons,2024-03-06_15h52.32.295,CRL1h,2023.2.3,Win32,19.84126984,65e67470ae2fbf2172c317b2,65e890bfdff7ad8b253a0bec,,,,,,,,,,,900.6347,1.1,901.7478,901.7479,902.5874,right,1,0.8375,,902.5875,903.5373,4,15,79,4,1,total,1,images/Ex13.jpg,right,training,hard,4,,,,,
,,,,,5f3ec93efbd299158253f283,001,51,male,UK,BA hons,2024-03-06_15h52.32.295,CRL1h,2023.2.3,Win32,19.84126984,65e67470ae2fbf2172c317b2,65e890bfdff7ad8b253a0bec,,,,,,,,,,,903.5386,0.6,904.1479,904.148,904.8476,left,1,0.6972,,904.8477,905.8521,5,0,80,11,1,total,1,images/Ex12.jpg,left,training,hard,4,,,,,
,,,,,5f3ec93efbd299158253f283,001,51,male,UK,BA hons,2024-03-06_15h52.32.295,CRL1h,2023.2.3,Win32,19.84126984,65e67470ae2fbf2172c317b2,65e890bfdff7ad8b253a0bec,,,,,,,,,,,905.8535,0.7,906.5295,906.5297,907.2314,right,1,0.6982,,907.2314,908.2351,5,1,81,6,1,total,1,images/Ex15.jpg,right,training,hard,4,,,,,
,,,,,5f3ec93efbd299158253f283,001,51,male,UK,BA hons,2024-03-06_15h52.32.295,CRL1h,2023.2.3,Win32,19.84126984,65e67470ae2fbf2172c317b2,65e890bfdff7ad8b253a0bec,,,,,,,,,,,908.2366,0.8,909.0391,909.0393,909.7435,left,1,0.7012,,909.7436,910.7512,5,2,82,8,1,total,1,images/Ex9.jpg,left,training,hard,4,,,,,
,,,,,5f3ec93efbd299158253f283,001,51,male,UK,BA hons,2024-03-06_15h52.32.295,CRL1h,2023.2.3,Win32,19.84126984,65e67470ae2fbf2172c317b2,65e890bfdff7ad8b253a0bec,,,,,,,,,,,910.7523,1.2,911.9287,911.9288,912.7016,left,1,0.7697,,912.702,913.6536,5,3,83,10,1,total,1,images/Ex11.jpg,left,training,hard,4,,,,,
,,,,,5f3ec93efbd299158253f283,001,51,male,UK,BA hons,2024-03-06_15h52.32.295,CRL1h,2023.2.3,Win32,19.84126984,65e67470ae2fbf2172c317b2,65e890bfdff7ad8b253a0bec,,,,,,,,,,,913.6551,0.9,914.5179,914.518,915.2024,left,1,0.6816,,915.2025,916.2002,5,4,84,2,1,total,1,images/Ex11.jpg,left,training,hard,4,,,,,
,,,,,5f3ec93efbd299158253f283,001,51,male,UK,BA hons,2024-03-06_15h52.32.295,CRL1h,2023.2.3,Win32,19.84126984,65e67470ae2fbf2172c317b2,65e890bfdff7ad8b253a0bec,,,,,,,,,,,916.2015,0.9,917.0692,917.0693,917.837,left,0,0.7654,,917.8371,918.8389,5,5,85,13,1,total,1,images/Ex14.jpg,right,training,hard,4,,,,,
,,,,,5f3ec93efbd299158253f283,001,51,male,UK,BA hons,2024-03-06_15h52.32.295,CRL1h,2023.2.3,Win32,19.84126984,65e67470ae2fbf2172c317b2,65e890bfdff7ad8b253a0bec,,,,,,,,,,,918.8399,0.7,919.5221,919.5221,920.2664,right,1,0.7407,,920.2665,921.2633,5,6,86,5,1,total,1,images/Ex14.jpg,right,training,hard,4,,,,,
,,,,,5f3ec93efbd299158253f283,001,51,male,UK,BA hons,2024-03-06_15h52.32.295,CRL1h,2023.2.3,Win32,19.84126984,65e67470ae2fbf2172c317b2,65e890bfdff7ad8b253a0bec,,,,,,,,,,,921.2644,0.9,922.1318,922.1319,922.8957,right,1,0.7612,,922.8959,923.9106,5,7,87,4,1,total,1,images/Ex13.jpg,right,training,hard,4,,,,,
,,,,,5f3ec93efbd299158253f283,001,51,male,UK,BA hons,2024-03-06_15h52.32.295,CRL1h,2023.2.3,Win32,19.84126984,65e67470ae2fbf2172c317b2,65e890bfdff7ad8b253a0bec,,,,,,,,,,,923.9118,0.7,924.5911,924.5912,925.1686,right,1,0.5743,,925.1687,926.1688,5,8,88,14,1,total,1,images/Ex15.jpg,right,training,hard,4,,,,,
,,,,,5f3ec93efbd299158253f283,001,51,male,UK,BA hons,2024-03-06_15h52.32.295,CRL1h,2023.2.3,Win32,19.84126984,65e67470ae2fbf2172c317b2,65e890bfdff7ad8b253a0bec,,,,,,,,,,,926.17,1.3,927.4684,927.4686,928.2362,left,1,0.7639,,928.2363,929.2413,5,9,89,1,1,total,1,images/Ex10.jpg,left,training,hard,4,,,,,
,,,,,5f3ec93efbd299158253f283,001,51,male,UK,BA hons,2024-03-06_15h52.32.295,CRL1h,2023.2.3,Win32,19.84126984,65e67470ae2fbf2172c317b2,65e890bfdff7ad8b253a0bec,,,,,,,,,,,929.2427,1.3,930.5006,930.5007,931.3292,left,1,0.8254,,931.3292,932.3347,5,10,90,0,1,total,1,images/Ex9.jpg,left,training,hard,4,,,,,
,,,,,5f3ec93efbd299158253f283,001,51,male,UK,BA hons,2024-03-06_15h52.32.295,CRL1h,2023.2.3,Win32,19.84126984,65e67470ae2fbf2172c317b2,65e890bfdff7ad8b253a0bec,,,,,,,,,,,932.3362,0.8,933.1374,933.1375,933.9005,left,1,0.7607,,933.9006,934.9104,5,11,91,3,1,total,1,images/Ex12.jpg,left,training,hard,4,,,,,
,,,,,5f3ec93efbd299158253f283,001,51,male,UK,BA hons,2024-03-06_15h52.32.295,CRL1h,2023.2.3,Win32,19.84126984,65e67470ae2fbf2172c317b2,65e890bfdff7ad8b253a0bec,,,,,,,,,,,934.9118,1.3,936.2049,936.205,937.0416,right,1,0.8327,,937.0416,938.0503,5,12,92,15,1,total,1,images/Ex16.jpg,right,training,hard,4,,,,,
,,,,,5f3ec93efbd299158253f283,001,51,male,UK,BA hons,2024-03-06_15h52.32.295,CRL1h,2023.2.3,Win32,19.84126984,65e67470ae2fbf2172c317b2,65e890bfdff7ad8b253a0bec,,,,,,,,,,,938.0517,0.9,938.9134,938.9134,939.628,left,1,0.7114,,939.6281,940.6315,5,13,93,9,1,total,1,images/Ex10.jpg,left,training,hard,4,,,,,
,,,,,5f3ec93efbd299158253f283,001,51,male,UK,BA hons,2024-03-06_15h52.32.295,CRL1h,2023.2.3,Win32,19.84126984,65e67470ae2fbf2172c317b2,65e890bfdff7ad8b253a0bec,,,,,,,,,,,940.6328,0.9,941.5007,941.5008,942.3225,right,1,0.8181,,942.3226,943.3329,5,14,94,12,1,total,1,images/Ex13.jpg,right,training,hard,4,,,,,
,,,,,5f3ec93efbd299158253f283,001,51,male,UK,BA hons,2024-03-06_15h52.32.295,CRL1h,2023.2.3,Win32,19.84126984,65e67470ae2fbf2172c317b2,65e890bfdff7ad8b253a0bec,,,,,,,,,,,943.3342,1.2,944.5058,944.5059,945.2131,right,1,0.7052,,945.2132,946.2203,5,15,95,7,1,total,1,images/Ex16.jpg,right,training,hard,4,,,,,
,,,,,5f3ec93efbd299158253f283,001,51,male,UK,BA hons,2024-03-06_15h52.32.295,CRL1h,2023.2.3,Win32,19.84126984,65e67470ae2fbf2172c317b2,65e890bfdff7ad8b253a0bec,,,,,,,,,,,946.2216,1.2,947.3988,947.3988,948.0468,right,1,0.6448,,948.0468,948.9969,6,0,96,14,1,total,1,images/Ex15.jpg,right,training,hard,4,,,,,
,,,,,5f3ec93efbd299158253f283,001,51,male,UK,BA hons,2024-03-06_15h52.32.295,CRL1h,2023.2.3,Win32,19.84126984,65e67470ae2fbf2172c317b2,65e890bfdff7ad8b253a0bec,,,,,,,,,,,948.9982,1.1,950.0537,950.0537,950.7593,left,1,0.7028,,950.7595,951.7689,6,1,97,0,1,total,1,images/Ex9.jpg,left,training,hard,4,,,,,
,,,,,5f3ec93efbd299158253f283,001,51,male,UK,BA hons,2024-03-06_15h52.32.295,CRL1h,2023.2.3,Win32,19.84126984,65e67470ae2fbf2172c317b2,65e890bfdff7ad8b253a0bec,,,,,,,,,,,951.7697,0.9,952.636,952.636,953.2762,right,1,0.6375,,953.2762,954.2812,6,2,98,6,1,total,1,images/Ex15.jpg,right,training,hard,4,,,,,
,,,,,5f3ec93efbd299158253f283,001,51,male,UK,BA hons,2024-03-06_15h52.32.295,CRL1h,2023.2.3,Win32,19.84126984,65e67470ae2fbf2172c317b2,65e890bfdff7ad8b253a0bec,,,,,,,,,,,954.2825,1.4,955.6992,955.6993,956.474,left,0,0.7723,,956.474,957.4911,6,3,99,4,1,total,1,images/Ex13.jpg,right,training,hard,4,,,,,
,,,,,5f3ec93efbd299158253f283,001,51,male,UK,BA hons,2024-03-06_15h52.32.295,CRL1h,2023.2.3,Win32,19.84126984,65e67470ae2fbf2172c317b2,65e890bfdff7ad8b253a0bec,,,,,,,,,,,957.4924,0.6,958.0427,958.0428,958.6047,right,1,0.5595,,958.6047,959.5661,6,4,100,12,1,total,1,images/Ex13.jpg,right,training,hard,4,,,,,
,,,,,5f3ec93efbd299158253f283,001,51,male,UK,BA hons,2024-03-06_15h52.32.295,CRL1h,2023.2.3,Win32,19.84126984,65e67470ae2fbf2172c317b2,65e890bfdff7ad8b253a0bec,,,,,,,,,,,959.5676,0.5,960.0578,960.0578,960.677,right,1,0.6163,,960.6771,961.6795,6,5,101,7,1,total,1,images/Ex16.jpg,right,training,hard,4,,,,,
,,,,,5f3ec93efbd299158253f283,001,51,male,UK,BA hons,2024-03-06_15h52.32.295,CRL1h,2023.2.3,Win32,19.84126984,65e67470ae2fbf2172c317b2,65e890bfdff7ad8b253a0bec,,,,,,,,,,,961.6807,1.2,962.8637,962.8638,963.6412,left,1,0.7744,,963.6413,964.6463,6,6,102,8,1,total,1,images/Ex9.jpg,left,training,hard,4,,,,,
,,,,,5f3ec93efbd299158253f283,001,51,male,UK,BA hons,2024-03-06_15h52.32.295,CRL1h,2023.2.3,Win32,19.84126984,65e67470ae2fbf2172c317b2,65e890bfdff7ad8b253a0bec,,,,,,,,,,,964.6472,1.4,966.0675,966.0675,966.788,left,1,0.7178,,966.788,967.797,6,7,103,3,1,total,1,images/Ex12.jpg,left,training,hard,4,,,,,
,,,,,5f3ec93efbd299158253f283,001,51,male,UK,BA hons,2024-03-06_15h52.32.295,CRL1h,2023.2.3,Win32,19.84126984,65e67470ae2fbf2172c317b2,65e890bfdff7ad8b253a0bec,,,,,,,,,,,967.7978,1.4,969.151,969.1511,969.761,right,1,0.6065,,969.761,970.7715,6,8,104,15,1,total,1,images/Ex16.jpg,right,training,hard,4,,,,,
,,,,,5f3ec93efbd299158253f283,001,51,male,UK,BA hons,2024-03-06_15h52.32.295,CRL1h,2023.2.3,Win32,19.84126984,65e67470ae2fbf2172c317b2,65e890bfdff7ad8b253a0bec,,,,,,,,,,,970.7724,0.5,971.2686,971.2686,972.0306,left,1,0.7587,,972.0307,973.0266,6,9,105,9,1,total,1,images/Ex10.jpg,left,training,hard,4,,,,,
,,,,,5f3ec93efbd299158253f283,001,51,male,UK,BA hons,2024-03-06_15h52.32.295,CRL1h,2023.2.3,Win32,19.84126984,65e67470ae2fbf2172c317b2,65e890bfdff7ad8b253a0bec,,,,,,,,,,,973.0274,1,974.0087,974.0088,974.6995,left,1,0.6884,,974.6995,975.7099,6,10,106,1,1,total,1,images/Ex10.jpg,left,training,hard,4,,,,,
,,,,,5f3ec93efbd299158253f283,001,51,male,UK,BA hons,2024-03-06_15h52.32.295,CRL1h,2023.2.3,Win32,19.84126984,65e67470ae2fbf2172c317b2,65e890bfdff7ad8b253a0bec,,,,,,,,,,,975.7114,1.4,977.1242,977.1242,977.8431,left,1,0.716,,977.8432,978.8519,6,11,107,2,1,total,1,images/Ex11.jpg,left,training,hard,4,,,,,
,,,,,5f3ec93efbd299158253f283,001,51,male,UK,BA hons,2024-03-06_15h52.32.295,CRL1h,2023.2.3,Win32,19.84126984,65e67470ae2fbf2172c317b2,65e890bfdff7ad8b253a0bec,,,,,,,,,,,978.8528,0.8,979.6733,979.6734,980.6964,right,1,1.0191,,980.6964,981.7012,6,12,108,13,1,total,1,images/Ex14.jpg,right,training,hard,4,,,,,
,,,,,5f3ec93efbd299158253f283,001,51,male,UK,BA hons,2024-03-06_15h52.32.295,CRL1h,2023.2.3,Win32,19.84126984,65e67470ae2fbf2172c317b2,65e890bfdff7ad8b253a0bec,,,,,,,,,,,981.7025,0.6,982.3187,982.3188,983.0261,left,1,0.7033,,983.0262,984.0332,6,13,109,11,1,total,1,images/Ex12.jpg,left,training,hard,4,,,,,
,,,,,5f3ec93efbd299158253f283,001,51,male,UK,BA hons,2024-03-06_15h52.32.295,CRL1h,2023.2.3,Win32,19.84126984,65e67470ae2fbf2172c317b2,65e890bfdff7ad8b253a0bec,,,,,,,,,,,984.0345,0.7,984.7155,984.7155,985.4811,right,1,0.7626,,985.4811,986.4758,6,14,110,5,1,total,1,images/Ex14.jpg,right,training,hard,4,,,,,
,,,,,5f3ec93efbd299158253f283,001,51,male,UK,BA hons,2024-03-06_15h52.32.295,CRL1h,2023.2.3,Win32,19.84126984,65e67470ae2fbf2172c317b2,65e890bfdff7ad8b253a0bec,,,,,,,,,,,986.4767,1.3,987.7917,987.7917,988.4459,left,1,0.6512,,988.446,989.4473,6,15,111,10,1,total,1,images/Ex11.jpg,left,training,hard,4,,,,,
,,,,,5f3ec93efbd299158253f283,001,51,male,UK,BA hons,2024-03-06_15h52.32.295,CRL1h,2023.2.3,Win32,19.84126984,65e67470ae2fbf2172c317b2,65e890bfdff7ad8b253a0bec,,,,,,,,,,,989.4483,1.5,990.9376,990.9376,991.6382,left,1,0.6987,,991.6383,992.6444,7,0,112,10,1,total,1,images/Ex11.jpg,left,training,hard,4,,,,,
,,,,,5f3ec93efbd299158253f283,001,51,male,UK,BA hons,2024-03-06_15h52.32.295,CRL1h,2023.2.3,Win32,19.84126984,65e67470ae2fbf2172c317b2,65e890bfdff7ad8b253a0bec,,,,,,,,,,,992.6464,1.1,993.7545,993.7546,994.4585,right,1,0.7007,,994.4585,995.4094,7,1,113,12,1,total,1,images/Ex13.jpg,right,training,hard,4,,,,,
,,,,,5f3ec93efbd299158253f283,001,51,male,UK,BA hons,2024-03-06_15h52.32.295,CRL1h,2023.2.3,Win32,19.84126984,65e67470ae2fbf2172c317b2,65e890bfdff7ad8b253a0bec,,,,,,,,,,,995.4103,1,996.4022,996.4022,997.0439,left,1,0.6381,,997.0439,998.0432,7,2,114,2,1,total,1,images/Ex11.jpg,left,training,hard,4,,,,,
,,,,,5f3ec93efbd299158253f283,001,51,male,UK,BA hons,2024-03-06_15h52.32.295,CRL1h,2023.2.3,Win32,19.84126984,65e67470ae2fbf2172c317b2,65e890bfdff7ad8b253a0bec,,,,,,,,,,,998.0444,1.3,999.336,999.3361,1000.1167,right,0,0.777,,1000.1167,1001.1277,7,3,115,8,1,total,1,images/Ex9.jpg,left,training,hard,4,,,,,
,,,,,5f3ec93efbd299158253f283,001,51,male,UK,BA hons,2024-03-06_15h52.32.295,CRL1h,2023.2.3,Win32,19.84126984,65e67470ae2fbf2172c317b2,65e890bfdff7ad8b253a0bec,,,,,,,,,,,1001.1286,1,1002.1153,1002.1154,1003.1357,right,1,1.0176,,1003.1357,1004.1394,7,4,116,13,1,total,1,images/Ex14.jpg,right,training,hard,4,,,,,
,,,,,5f3ec93efbd299158253f283,001,51,male,UK,BA hons,2024-03-06_15h52.32.295,CRL1h,2023.2.3,Win32,19.84126984,65e67470ae2fbf2172c317b2,65e890bfdff7ad8b253a0bec,,,,,,,,,,,1004.1408,1,1005.1286,1005.1286,1005.8274,left,1,0.6947,,1005.8274,1006.8293,7,5,117,9,1,total,1,images/Ex10.jpg,left,training,hard,4,,,,,
,,,,,5f3ec93efbd299158253f283,001,51,male,UK,BA hons,2024-03-06_15h52.32.295,CRL1h,2023.2.3,Win32,19.84126984,65e67470ae2fbf2172c317b2,65e890bfdff7ad8b253a0bec,,,,,,,,,,,1006.8307,0.8,1007.6282,1007.6283,1008.3882,left,1,0.7575,,1008.3883,1009.3892,7,6,118,0,1,total,1,images/Ex9.jpg,left,training,hard,4,,,,,
,,,,,5f3ec93efbd299158253f283,001,51,male,UK,BA hons,2024-03-06_15h52.32.295,CRL1h,2023.2.3,Win32,19.84126984,65e67470ae2fbf2172c317b2,65e890bfdff7ad8b253a0bec,,,,,,,,,,,1009.3899,1.1,1010.504,1010.5041,1011.2065,right,1,0.6997,,1011.2066,1012.2138,7,7,119,15,1,total,1,images/Ex16.jpg,right,training,hard,4,,,,,
,,,,,5f3ec93efbd299158253f283,001,51,male,UK,BA hons,2024-03-06_15h52.32.295,CRL1h,2023.2.3,Win32,19.84126984,65e67470ae2fbf2172c317b2,65e890bfdff7ad8b253a0bec,,,,,,,,,,,1012.2145,0.6,1012.7656,1012.7656,1013.6527,right,1,0.8823,,1013.6527,1014.6533,7,8,120,4,1,total,1,images/Ex13.jpg,right,training,hard,4,,,,,
,,,,,5f3ec93efbd299158253f283,001,51,male,UK,BA hons,2024-03-06_15h52.32.295,CRL1h,2023.2.3,Win32,19.84126984,65e67470ae2fbf2172c317b2,65e890bfdff7ad8b253a0bec,,,,,,,,,,,1014.6543,0.9,1015.5196,1015.5196,1016.2279,left,1,0.7051,,1016.228,1017.2334,7,9,121,11,1,total,1,images/Ex12.jpg,left,training,hard,4,,,,,
,,,,,5f3ec93efbd299158253f283,001,51,male,UK,BA hons,2024-03-06_15h52.32.295,CRL1h,2023.2.3,Win32,19.84126984,65e67470ae2fbf2172c317b2,65e890bfdff7ad8b253a0bec,,,,,,,,,,,1017.2354,0.6,1017.7885,1017.7885,1018.5801,left,1,0.7889,,1018.5804,1019.5796,7,10,122,1,1,total,1,images/Ex10.jpg,left,training,hard,4,,,,,
,,,,,5f3ec93efbd299158253f283,001,51,male,UK,BA hons,2024-03-06_15h52.32.295,CRL1h,2023.2.3,Win32,19.84126984,65e67470ae2fbf2172c317b2,65e890bfdff7ad8b253a0bec,,,,,,,,,,,1019.5807,1.3,1020.8707,1020.8707,1021.7087,right,1,0.8354,,1021.7088,1022.7134,7,11,123,5,1,total,1,images/Ex14.jpg,right,training,hard,4,,,,,
,,,,,5f3ec93efbd299158253f283,001,51,male,UK,BA hons,2024-03-06_15h52.32.295,CRL1h,2023.2.3,Win32,19.84126984,65e67470ae2fbf2172c317b2,65e890bfdff7ad8b253a0bec,,,,,,,,,,,1022.7145,1.3,1024.0056,1024.0056,1024.7225,left,1,0.714,,1024.7225,1025.6798,7,12,124,3,1,total,1,images/Ex12.jpg,left,training,hard,4,,,,,
,,,,,5f3ec93efbd299158253f283,001,51,male,UK,BA hons,2024-03-06_15h52.32.295,CRL1h,2023.2.3,Win32,19.84126984,65e67470ae2fbf2172c317b2,65e890bfdff7ad8b253a0bec,,,,,,,,,,,1025.6811,0.8,1026.4602,1026.4603,1027.1024,right,1,0.6394,,1027.1025,1028.1015,7,13,125,7,1,total,1,images/Ex16.jpg,right,training,hard,4,,,,,
,,,,,5f3ec93efbd299158253f283,001,51,male,UK,BA hons,2024-03-06_15h52.32.295,CRL1h,2023.2.3,Win32,19.84126984,65e67470ae2fbf2172c317b2,65e890bfdff7ad8b253a0bec,,,,,,,,,,,1028.1029,0.6,1028.6553,1028.6553,1029.4956,right,1,0.831,,1029.4957,1030.5023,7,14,126,14,1,total,1,images/Ex15.jpg,right,training,hard,4,,,,,
,,,,,5f3ec93efbd299158253f283,001,51,male,UK,BA hons,2024-03-06_15h52.32.295,CRL1h,2023.2.3,Win32,19.84126984,65e67470ae2fbf2172c317b2,65e890bfdff7ad8b253a0bec,,,,,,,,,,,1030.5032,0.5,1030.9965,1030.9965,1031.5658,right,1,0.5674,,1031.5659,1032.5657,7,15,127,6,1,total,1,images/Ex15.jpg,right,training,hard,4,,,,,
,,,,,5f3ec93efbd299158253f283,001,51,male,UK,BA hons,2024-03-06_15h52.32.295,CRL1h,2023.2.3,Win32,19.84126984,65e67470ae2fbf2172c317b2,65e890bfdff7ad8b253a0bec,,,,,,,,,,,1032.5839,0.6,1033.1469,1033.147,1034.0438,right,1,0.8937,,1034.0439,1035.0394,0,0,0,0,1,total,2,images/Ex9.jpg,right,reversed,hard,4,,,,,
,,,,,5f3ec93efbd299158253f283,001,51,male,UK,BA hons,2024-03-06_15h52.32.295,CRL1h,2023.2.3,Win32,19.84126984,65e67470ae2fbf2172c317b2,65e890bfdff7ad8b253a0bec,,,,,,,,,,,1035.0403,0.6,1035.5962,1035.5963,1036.3013,right,0,0.7019,,1036.3014,1037.3081,0,1,1,15,1,total,2,images/Ex16.jpg,left,reversed,hard,4,,,,,
