infCons.started,infCons.stopped,resp_consent.keys,resp_consent.rt,resp_consent.duration,participant,session,Age?,Gender?,Nationality?,Highest Educational Degree?,date,expName,psychopyVersion,OS,frameRate,STUDY_ID,SESSION_ID,instructions.started,instructions.stopped,resp_instructions.keys,resp_instructions.rt,resp_instructions.duration,nextTask.started,nextTask.stopped,ready_task.keys,ready_task.rt,ready_task.duration,fixation.started,ITI,fixation.stopped,stim.started,stim.stopped,response.keys,response.corr,response.rt,response.duration,feedback.started,feedback.stopped,trials.thisRepN,trials.thisTrialN,trials.thisN,trials.thisIndex,trials.ran,task,phase,Exemplars,r_correct,condition,difficulty,set,end.started,end.stopped,resp_end.keys,resp_end.rt,resp_end.duration
0.0002,33.1125,space,33.074,,5f4a9eb861da210d3496cb34,001,61,Female,UK,Masters,2024-03-05_22h28.49.436,CRL1h,2023.2.3,Win32,59.88023952,65e67470ae2fbf2172c317b2,65e79a88027df4e53e14004c,,,,,,,,,,,,,,,,,,,,,,,,,,,,,,,,,,,,,,
,,,,,5f4a9eb861da210d3496cb34,001,61,Female,UK,Masters,2024-03-05_22h28.49.436,CRL1h,2023.2.3,Win32,59.88023952,65e67470ae2fbf2172c317b2,65e79a88027df4e53e14004c,33.1127,120.5729,space,87.4355,,,,,,,,,,,,,,,,,,,,,,,,,,,,,,,,,,
,,,,,5f4a9eb861da210d3496cb34,001,61,Female,UK,Masters,2024-03-05_22h28.49.436,CRL1h,2023.2.3,Win32,59.88023952,65e67470ae2fbf2172c317b2,65e79a88027df4e53e14004c,,,,,,120.6057,124.5213,space,3.8963,,124.5301,1.4,125.9204,125.9209,130.6214,left,0,4.6805,,130.6394,131.6199,0,0,0,7,1,total,1,images/Ex8.jpg,right,training,hard,1,,,,,
,,,,,5f4a9eb861da210d3496cb34,001,61,Female,UK,Masters,2024-03-05_22h28.49.436,CRL1h,2023.2.3,Win32,59.88023952,65e67470ae2fbf2172c317b2,65e79a88027df4e53e14004c,,,,,,,,,,,131.6205,0.9,132.5194,132.5195,133.3362,right,1,0.8059,,133.3363,134.3361,0,1,1,4,1,total,1,images/Ex5.jpg,right,training,hard,1,,,,,
,,,,,5f4a9eb861da210d3496cb34,001,61,Female,UK,Masters,2024-03-05_22h28.49.436,CRL1h,2023.2.3,Win32,59.88023952,65e67470ae2fbf2172c317b2,65e79a88027df4e53e14004c,,,,,,,,,,,134.3364,1.4,135.7363,135.7364,136.2872,right,0,0.5387,,136.2875,137.2753,0,2,2,0,1,total,1,images/Ex1.jpg,left,training,hard,1,,,,,
,,,,,5f4a9eb861da210d3496cb34,001,61,Female,UK,Masters,2024-03-05_22h28.49.436,CRL1h,2023.2.3,Win32,59.88023952,65e67470ae2fbf2172c317b2,65e79a88027df4e53e14004c,,,,,,,,,,,137.2756,1.4,138.6695,138.6697,139.3707,left,0,0.6861,,139.3708,140.3695,0,3,3,13,1,total,1,images/Ex6.jpg,right,training,hard,1,,,,,
,,,,,5f4a9eb861da210d3496cb34,001,61,Female,UK,Masters,2024-03-05_22h28.49.436,CRL1h,2023.2.3,Win32,59.88023952,65e67470ae2fbf2172c317b2,65e79a88027df4e53e14004c,,,,,,,,,,,140.3707,1.5,141.8707,141.8708,142.7548,right,0,0.8693,,142.7549,143.7532,0,4,4,3,1,total,1,images/Ex4.jpg,left,training,hard,1,,,,,
,,,,,5f4a9eb861da210d3496cb34,001,61,Female,UK,Masters,2024-03-05_22h28.49.436,CRL1h,2023.2.3,Win32,59.88023952,65e67470ae2fbf2172c317b2,65e79a88027df4e53e14004c,,,,,,,,,,,143.7542,0.7,144.4534,144.4535,145.3199,left,1,0.8527,,145.3202,146.3203,0,5,5,10,1,total,1,images/Ex3.jpg,left,training,hard,1,,,,,
,,,,,5f4a9eb861da210d3496cb34,001,61,Female,UK,Masters,2024-03-05_22h28.49.436,CRL1h,2023.2.3,Win32,59.88023952,65e67470ae2fbf2172c317b2,65e79a88027df4e53e14004c,,,,,,,,,,,146.3221,0.9,147.22,147.2202,147.8707,right,1,0.6358,,147.8708,148.8698,0,6,6,5,1,total,1,images/Ex6.jpg,right,training,hard,1,,,,,
,,,,,5f4a9eb861da210d3496cb34,001,61,Female,UK,Masters,2024-03-05_22h28.49.436,CRL1h,2023.2.3,Win32,59.88023952,65e67470ae2fbf2172c317b2,65e79a88027df4e53e14004c,,,,,,,,,,,148.8711,0.9,149.7695,149.7697,150.3535,right,0,0.5772,,150.3537,151.353,0,7,7,11,1,total,1,images/Ex4.jpg,left,training,hard,1,,,,,
,,,,,5f4a9eb861da210d3496cb34,001,61,Female,UK,Masters,2024-03-05_22h28.49.436,CRL1h,2023.2.3,Win32,59.88023952,65e67470ae2fbf2172c317b2,65e79a88027df4e53e14004c,,,,,,,,,,,151.3544,0.8,152.1529,152.153,152.8367,left,0,0.6697,,152.837,153.8367,0,8,8,6,1,total,1,images/Ex7.jpg,right,training,hard,1,,,,,
,,,,,5f4a9eb861da210d3496cb34,001,61,Female,UK,Masters,2024-03-05_22h28.49.436,CRL1h,2023.2.3,Win32,59.88023952,65e67470ae2fbf2172c317b2,65e79a88027df4e53e14004c,,,,,,,,,,,153.8397,1.3,155.1367,155.1369,155.5536,right,1,0.4031,,155.5538,156.5531,0,9,9,15,1,total,1,images/Ex8.jpg,right,training,hard,1,,,,,
,,,,,5f4a9eb861da210d3496cb34,001,61,Female,UK,Masters,2024-03-05_22h28.49.436,CRL1h,2023.2.3,Win32,59.88023952,65e67470ae2fbf2172c317b2,65e79a88027df4e53e14004c,,,,,,,,,,,156.5543,0.7,157.2531,157.2532,158.0036,right,0,0.7369,,158.0038,159.003,0,10,10,1,1,total,1,images/Ex2.jpg,left,training,hard,1,,,,,
,,,,,5f4a9eb861da210d3496cb34,001,61,Female,UK,Masters,2024-03-05_22h28.49.436,CRL1h,2023.2.3,Win32,59.88023952,65e67470ae2fbf2172c317b2,65e79a88027df4e53e14004c,,,,,,,,,,,159.0042,0.8,159.8029,159.803,160.27,left,0,0.4545,,160.2701,161.27,0,11,11,14,1,total,1,images/Ex7.jpg,right,training,hard,1,,,,,
,,,,,5f4a9eb861da210d3496cb34,001,61,Female,UK,Masters,2024-03-05_22h28.49.436,CRL1h,2023.2.3,Win32,59.88023952,65e67470ae2fbf2172c317b2,65e79a88027df4e53e14004c,,,,,,,,,,,161.2713,1.1,162.3697,162.3698,162.7867,right,1,0.4119,,162.7869,163.7864,0,12,12,12,1,total,1,images/Ex5.jpg,right,training,hard,1,,,,,
,,,,,5f4a9eb861da210d3496cb34,001,61,Female,UK,Masters,2024-03-05_22h28.49.436,CRL1h,2023.2.3,Win32,59.88023952,65e67470ae2fbf2172c317b2,65e79a88027df4e53e14004c,,,,,,,,,,,163.7878,1.4,165.1867,165.1867,165.9039,right,0,0.7096,,165.904,166.9032,0,13,13,8,1,total,1,images/Ex1.jpg,left,training,hard,1,,,,,
,,,,,5f4a9eb861da210d3496cb34,001,61,Female,UK,Masters,2024-03-05_22h28.49.436,CRL1h,2023.2.3,Win32,59.88023952,65e67470ae2fbf2172c317b2,65e79a88027df4e53e14004c,,,,,,,,,,,166.9046,0.8,167.7033,167.7034,168.2869,left,1,0.5698,,168.2871,169.2866,0,14,14,2,1,total,1,images/Ex3.jpg,left,training,hard,1,,,,,
,,,,,5f4a9eb861da210d3496cb34,001,61,Female,UK,Masters,2024-03-05_22h28.49.436,CRL1h,2023.2.3,Win32,59.88023952,65e67470ae2fbf2172c317b2,65e79a88027df4e53e14004c,,,,,,,,,,,169.288,1.1,170.3866,170.3867,170.9208,left,1,0.5199,,170.921,171.92,0,15,15,9,1,total,1,images/Ex2.jpg,left,training,hard,1,,,,,
,,,,,5f4a9eb861da210d3496cb34,001,61,Female,UK,Masters,2024-03-05_22h28.49.436,CRL1h,2023.2.3,Win32,59.88023952,65e67470ae2fbf2172c317b2,65e79a88027df4e53e14004c,,,,,,,,,,,171.9223,1.3,173.2205,173.2207,173.7875,right,1,0.5606,,173.7878,174.7869,1,0,16,5,1,total,1,images/Ex6.jpg,right,training,hard,1,,,,,
,,,,,5f4a9eb861da210d3496cb34,001,61,Female,UK,Masters,2024-03-05_22h28.49.436,CRL1h,2023.2.3,Win32,59.88023952,65e67470ae2fbf2172c317b2,65e79a88027df4e53e14004c,,,,,,,,,,,174.7882,0.5,175.2869,175.287,175.9873,right,0,0.6866,,175.9874,176.987,1,1,17,0,1,total,1,images/Ex1.jpg,left,training,hard,1,,,,,
,,,,,5f4a9eb861da210d3496cb34,001,61,Female,UK,Masters,2024-03-05_22h28.49.436,CRL1h,2023.2.3,Win32,59.88023952,65e67470ae2fbf2172c317b2,65e79a88027df4e53e14004c,,,,,,,,,,,176.9887,1.1,178.087,178.0871,178.7214,left,1,0.6197,,178.7217,179.7203,1,2,18,2,1,total,1,images/Ex3.jpg,left,training,hard,1,,,,,
,,,,,5f4a9eb861da210d3496cb34,001,61,Female,UK,Masters,2024-03-05_22h28.49.436,CRL1h,2023.2.3,Win32,59.88023952,65e67470ae2fbf2172c317b2,65e79a88027df4e53e14004c,,,,,,,,,,,179.7221,0.5,180.2201,180.2203,180.904,left,0,0.6694,,180.9041,181.9035,1,3,19,12,1,total,1,images/Ex5.jpg,right,training,hard,1,,,,,
,,,,,5f4a9eb861da210d3496cb34,001,61,Female,UK,Masters,2024-03-05_22h28.49.436,CRL1h,2023.2.3,Win32,59.88023952,65e67470ae2fbf2172c317b2,65e79a88027df4e53e14004c,,,,,,,,,,,181.905,1.3,183.2037,183.2037,183.6916,right,0,0.4856,,183.6916,184.6869,1,4,20,3,1,total,1,images/Ex4.jpg,left,training,hard,1,,,,,
,,,,,5f4a9eb861da210d3496cb34,001,61,Female,UK,Masters,2024-03-05_22h28.49.436,CRL1h,2023.2.3,Win32,59.88023952,65e67470ae2fbf2172c317b2,65e79a88027df4e53e14004c,,,,,,,,,,,184.6884,1.4,186.0867,186.087,186.4041,right,0,0.3073,,186.4043,187.4035,1,5,21,9,1,total,1,images/Ex2.jpg,left,training,hard,1,,,,,
,,,,,5f4a9eb861da210d3496cb34,001,61,Female,UK,Masters,2024-03-05_22h28.49.436,CRL1h,2023.2.3,Win32,59.88023952,65e67470ae2fbf2172c317b2,65e79a88027df4e53e14004c,,,,,,,,,,,187.4049,1.1,188.5038,188.5039,188.8868,right,0,0.376,,188.887,189.8869,1,6,22,8,1,total,1,images/Ex1.jpg,left,training,hard,1,,,,,
,,,,,5f4a9eb861da210d3496cb34,001,61,Female,UK,Masters,2024-03-05_22h28.49.436,CRL1h,2023.2.3,Win32,59.88023952,65e67470ae2fbf2172c317b2,65e79a88027df4e53e14004c,,,,,,,,,,,189.8881,1.2,191.0866,191.0868,191.5033,left,1,0.411,,191.5035,192.5034,1,7,23,10,1,total,1,images/Ex3.jpg,left,training,hard,1,,,,,
,,,,,5f4a9eb861da210d3496cb34,001,61,Female,UK,Masters,2024-03-05_22h28.49.436,CRL1h,2023.2.3,Win32,59.88023952,65e67470ae2fbf2172c317b2,65e79a88027df4e53e14004c,,,,,,,,,,,192.5048,0.7,193.2031,193.2032,193.6536,left,0,0.4366,,193.6538,194.6533,1,8,24,6,1,total,1,images/Ex7.jpg,right,training,hard,1,,,,,
,,,,,5f4a9eb861da210d3496cb34,001,61,Female,UK,Masters,2024-03-05_22h28.49.436,CRL1h,2023.2.3,Win32,59.88023952,65e67470ae2fbf2172c317b2,65e79a88027df4e53e14004c,,,,,,,,,,,194.6544,0.7,195.3529,195.3529,195.8039,right,0,0.4421,,195.804,196.8033,1,9,25,11,1,total,1,images/Ex4.jpg,left,training,hard,1,,,,,
,,,,,5f4a9eb861da210d3496cb34,001,61,Female,UK,Masters,2024-03-05_22h28.49.436,CRL1h,2023.2.3,Win32,59.88023952,65e67470ae2fbf2172c317b2,65e79a88027df4e53e14004c,,,,,,,,,,,196.8046,0.6,197.4033,197.4034,197.9204,left,1,0.5059,,197.9205,198.9199,1,10,26,1,1,total,1,images/Ex2.jpg,left,training,hard,1,,,,,
,,,,,5f4a9eb861da210d3496cb34,001,61,Female,UK,Masters,2024-03-05_22h28.49.436,CRL1h,2023.2.3,Win32,59.88023952,65e67470ae2fbf2172c317b2,65e79a88027df4e53e14004c,,,,,,,,,,,198.9212,1.2,200.1197,200.1199,200.5044,left,0,0.3767,,200.505,201.5029,1,11,27,4,1,total,1,images/Ex5.jpg,right,training,hard,1,,,,,
,,,,,5f4a9eb861da210d3496cb34,001,61,Female,UK,Masters,2024-03-05_22h28.49.436,CRL1h,2023.2.3,Win32,59.88023952,65e67470ae2fbf2172c317b2,65e79a88027df4e53e14004c,,,,,,,,,,,201.5041,0.8,202.3038,202.3039,202.854,right,1,0.5438,,202.8542,203.854,1,12,28,13,1,total,1,images/Ex6.jpg,right,training,hard,1,,,,,
,,,,,5f4a9eb861da210d3496cb34,001,61,Female,UK,Masters,2024-03-05_22h28.49.436,CRL1h,2023.2.3,Win32,59.88023952,65e67470ae2fbf2172c317b2,65e79a88027df4e53e14004c,,,,,,,,,,,203.8559,1,204.9854,204.9855,205.4212,right,1,0.4271,,205.4214,206.4196,1,13,29,15,1,total,1,images/Ex8.jpg,right,training,hard,1,,,,,
,,,,,5f4a9eb861da210d3496cb34,001,61,Female,UK,Masters,2024-03-05_22h28.49.436,CRL1h,2023.2.3,Win32,59.88023952,65e67470ae2fbf2172c317b2,65e79a88027df4e53e14004c,,,,,,,,,,,206.4218,1.3,207.7205,207.7207,208.1715,left,0,0.4401,,208.1717,209.1705,1,14,30,7,1,total,1,images/Ex8.jpg,right,training,hard,1,,,,,
,,,,,5f4a9eb861da210d3496cb34,001,61,Female,UK,Masters,2024-03-05_22h28.49.436,CRL1h,2023.2.3,Win32,59.88023952,65e67470ae2fbf2172c317b2,65e79a88027df4e53e14004c,,,,,,,,,,,209.1723,0.9,210.0702,210.0704,210.754,right,1,0.6782,,210.7542,211.7538,1,15,31,14,1,total,1,images/Ex7.jpg,right,training,hard,1,,,,,
,,,,,5f4a9eb861da210d3496cb34,001,61,Female,UK,Masters,2024-03-05_22h28.49.436,CRL1h,2023.2.3,Win32,59.88023952,65e67470ae2fbf2172c317b2,65e79a88027df4e53e14004c,,,,,,,,,,,211.755,1.1,212.8536,212.8538,213.4548,right,1,0.5878,,213.455,214.4536,2,0,32,5,1,total,1,images/Ex6.jpg,right,training,hard,1,,,,,
,,,,,5f4a9eb861da210d3496cb34,001,61,Female,UK,Masters,2024-03-05_22h28.49.436,CRL1h,2023.2.3,Win32,59.88023952,65e67470ae2fbf2172c317b2,65e79a88027df4e53e14004c,,,,,,,,,,,214.4551,0.9,215.3541,215.3541,215.837,left,0,0.4785,,215.8371,216.8367,2,1,33,6,1,total,1,images/Ex7.jpg,right,training,hard,1,,,,,
,,,,,5f4a9eb861da210d3496cb34,001,61,Female,UK,Masters,2024-03-05_22h28.49.436,CRL1h,2023.2.3,Win32,59.88023952,65e67470ae2fbf2172c317b2,65e79a88027df4e53e14004c,,,,,,,,,,,216.8381,1.5,218.3371,218.3372,218.8723,right,0,0.5207,,218.8725,219.8706,2,2,34,0,1,total,1,images/Ex1.jpg,left,training,hard,1,,,,,
,,,,,5f4a9eb861da210d3496cb34,001,61,Female,UK,Masters,2024-03-05_22h28.49.436,CRL1h,2023.2.3,Win32,59.88023952,65e67470ae2fbf2172c317b2,65e79a88027df4e53e14004c,,,,,,,,,,,219.8723,1.2,221.0708,221.0709,221.5042,right,0,0.4201,,221.5045,222.5038,2,3,35,9,1,total,1,images/Ex2.jpg,left,training,hard,1,,,,,
,,,,,5f4a9eb861da210d3496cb34,001,61,Female,UK,Masters,2024-03-05_22h28.49.436,CRL1h,2023.2.3,Win32,59.88023952,65e67470ae2fbf2172c317b2,65e79a88027df4e53e14004c,,,,,,,,,,,222.5054,0.7,223.2037,223.2038,223.6216,right,1,0.4059,,223.6218,224.6207,2,4,36,14,1,total,1,images/Ex7.jpg,right,training,hard,1,,,,,
,,,,,5f4a9eb861da210d3496cb34,001,61,Female,UK,Masters,2024-03-05_22h28.49.436,CRL1h,2023.2.3,Win32,59.88023952,65e67470ae2fbf2172c317b2,65e79a88027df4e53e14004c,,,,,,,,,,,224.6228,1.4,226.021,226.0213,226.4048,right,0,0.3704,,226.405,227.4039,2,5,37,3,1,total,1,images/Ex4.jpg,left,training,hard,1,,,,,
,,,,,5f4a9eb861da210d3496cb34,001,61,Female,UK,Masters,2024-03-05_22h28.49.436,CRL1h,2023.2.3,Win32,59.88023952,65e67470ae2fbf2172c317b2,65e79a88027df4e53e14004c,,,,,,,,,,,227.4053,0.9,228.3035,228.3037,230.8039,left,1,2.4878,,230.804,231.8029,2,6,38,10,1,total,1,images/Ex3.jpg,left,training,hard,1,,,,,
,,,,,5f4a9eb861da210d3496cb34,001,61,Female,UK,Masters,2024-03-05_22h28.49.436,CRL1h,2023.2.3,Win32,59.88023952,65e67470ae2fbf2172c317b2,65e79a88027df4e53e14004c,,,,,,,,,,,231.8127,1,232.8036,232.8038,233.2204,left,0,0.4026,,233.2206,234.2201,2,7,39,7,1,total,1,images/Ex8.jpg,right,training,hard,1,,,,,
,,,,,5f4a9eb861da210d3496cb34,001,61,Female,UK,Masters,2024-03-05_22h28.49.436,CRL1h,2023.2.3,Win32,59.88023952,65e67470ae2fbf2172c317b2,65e79a88027df4e53e14004c,,,,,,,,,,,234.2217,0.9,235.1198,235.12,235.8542,right,0,0.7249,,235.8543,236.8534,2,8,40,11,1,total,1,images/Ex4.jpg,left,training,hard,1,,,,,
,,,,,5f4a9eb861da210d3496cb34,001,61,Female,UK,Masters,2024-03-05_22h28.49.436,CRL1h,2023.2.3,Win32,59.88023952,65e67470ae2fbf2172c317b2,65e79a88027df4e53e14004c,,,,,,,,,,,236.8547,1.5,238.3533,238.3534,238.7879,right,0,0.4195,,238.788,239.7868,2,9,41,8,1,total,1,images/Ex1.jpg,left,training,hard,1,,,,,
,,,,,5f4a9eb861da210d3496cb34,001,61,Female,UK,Masters,2024-03-05_22h28.49.436,CRL1h,2023.2.3,Win32,59.88023952,65e67470ae2fbf2172c317b2,65e79a88027df4e53e14004c,,,,,,,,,,,239.7879,1.3,241.0876,241.0878,241.4887,left,0,0.3916,,241.4888,242.4867,2,10,42,12,1,total,1,images/Ex5.jpg,right,training,hard,1,,,,,
,,,,,5f4a9eb861da210d3496cb34,001,61,Female,UK,Masters,2024-03-05_22h28.49.436,CRL1h,2023.2.3,Win32,59.88023952,65e67470ae2fbf2172c317b2,65e79a88027df4e53e14004c,,,,,,,,,,,242.4885,0.8,243.2862,243.2862,243.9539,right,1,0.6538,,243.954,244.9532,2,11,43,15,1,total,1,images/Ex8.jpg,right,training,hard,1,,,,,
,,,,,5f4a9eb861da210d3496cb34,001,61,Female,UK,Masters,2024-03-05_22h28.49.436,CRL1h,2023.2.3,Win32,59.88023952,65e67470ae2fbf2172c317b2,65e79a88027df4e53e14004c,,,,,,,,,,,244.9546,1.3,246.2529,246.2529,246.6708,right,1,0.413,,246.6709,247.6701,2,12,44,4,1,total,1,images/Ex5.jpg,right,training,hard,1,,,,,
,,,,,5f4a9eb861da210d3496cb34,001,61,Female,UK,Masters,2024-03-05_22h28.49.436,CRL1h,2023.2.3,Win32,59.88023952,65e67470ae2fbf2172c317b2,65e79a88027df4e53e14004c,,,,,,,,,,,247.6714,1.2,248.8696,248.8697,249.4209,right,0,0.5389,,249.4212,250.4198,2,13,45,2,1,total,1,images/Ex3.jpg,left,training,hard,1,,,,,
,,,,,5f4a9eb861da210d3496cb34,001,61,Female,UK,Masters,2024-03-05_22h28.49.436,CRL1h,2023.2.3,Win32,59.88023952,65e67470ae2fbf2172c317b2,65e79a88027df4e53e14004c,,,,,,,,,,,250.4212,0.9,251.32,251.3202,251.7585,left,1,0.4356,,251.7585,252.7529,2,14,46,1,1,total,1,images/Ex2.jpg,left,training,hard,1,,,,,
,,,,,5f4a9eb861da210d3496cb34,001,61,Female,UK,Masters,2024-03-05_22h28.49.436,CRL1h,2023.2.3,Win32,59.88023952,65e67470ae2fbf2172c317b2,65e79a88027df4e53e14004c,,,,,,,,,,,252.7539,1.1,253.8532,253.8532,254.4208,left,0,0.564,,254.421,255.4195,2,15,47,13,1,total,1,images/Ex6.jpg,right,training,hard,1,,,,,
,,,,,5f4a9eb861da210d3496cb34,001,61,Female,UK,Masters,2024-03-05_22h28.49.436,CRL1h,2023.2.3,Win32,59.88023952,65e67470ae2fbf2172c317b2,65e79a88027df4e53e14004c,,,,,,,,,,,255.4207,1.3,256.7195,256.7196,257.1875,right,0,0.454,,257.1875,258.1865,3,0,48,9,1,total,1,images/Ex2.jpg,left,training,hard,1,,,,,
,,,,,5f4a9eb861da210d3496cb34,001,61,Female,UK,Masters,2024-03-05_22h28.49.436,CRL1h,2023.2.3,Win32,59.88023952,65e67470ae2fbf2172c317b2,65e79a88027df4e53e14004c,,,,,,,,,,,258.1877,1,259.1865,259.1866,259.654,left,1,0.4534,,259.6541,260.653,3,1,49,11,1,total,1,images/Ex4.jpg,left,training,hard,1,,,,,
,,,,,5f4a9eb861da210d3496cb34,001,61,Female,UK,Masters,2024-03-05_22h28.49.436,CRL1h,2023.2.3,Win32,59.88023952,65e67470ae2fbf2172c317b2,65e79a88027df4e53e14004c,,,,,,,,,,,260.6541,0.9,261.5532,261.5532,262.1038,left,1,0.5468,,262.104,263.103,3,2,50,8,1,total,1,images/Ex1.jpg,left,training,hard,1,,,,,
,,,,,5f4a9eb861da210d3496cb34,001,61,Female,UK,Masters,2024-03-05_22h28.49.436,CRL1h,2023.2.3,Win32,59.88023952,65e67470ae2fbf2172c317b2,65e79a88027df4e53e14004c,,,,,,,,,,,263.1041,1.2,264.303,264.3031,264.7876,right,1,0.4705,,264.7876,265.7867,3,3,51,14,1,total,1,images/Ex7.jpg,right,training,hard,1,,,,,
,,,,,5f4a9eb861da210d3496cb34,001,61,Female,UK,Masters,2024-03-05_22h28.49.436,CRL1h,2023.2.3,Win32,59.88023952,65e67470ae2fbf2172c317b2,65e79a88027df4e53e14004c,,,,,,,,,,,265.7878,1.1,266.8867,266.8868,267.871,right,1,0.9792,,267.8712,268.87,3,4,52,4,1,total,1,images/Ex5.jpg,right,training,hard,1,,,,,
,,,,,5f4a9eb861da210d3496cb34,001,61,Female,UK,Masters,2024-03-05_22h28.49.436,CRL1h,2023.2.3,Win32,59.88023952,65e67470ae2fbf2172c317b2,65e79a88027df4e53e14004c,,,,,,,,,,,268.8719,1.2,270.0696,270.0697,270.6873,right,1,0.608,,270.6875,271.6867,3,5,53,5,1,total,1,images/Ex6.jpg,right,training,hard,1,,,,,
,,,,,5f4a9eb861da210d3496cb34,001,61,Female,UK,Masters,2024-03-05_22h28.49.436,CRL1h,2023.2.3,Win32,59.88023952,65e67470ae2fbf2172c317b2,65e79a88027df4e53e14004c,,,,,,,,,,,271.688,0.7,272.3863,272.3863,272.8537,right,1,0.4538,,272.8539,273.8533,3,6,54,12,1,total,1,images/Ex5.jpg,right,training,hard,1,,,,,
,,,,,5f4a9eb861da210d3496cb34,001,61,Female,UK,Masters,2024-03-05_22h28.49.436,CRL1h,2023.2.3,Win32,59.88023952,65e67470ae2fbf2172c317b2,65e79a88027df4e53e14004c,,,,,,,,,,,273.8543,0.8,274.6537,274.6538,275.121,right,1,0.4545,,275.1214,276.1201,3,7,55,13,1,total,1,images/Ex6.jpg,right,training,hard,1,,,,,
,,,,,5f4a9eb861da210d3496cb34,001,61,Female,UK,Masters,2024-03-05_22h28.49.436,CRL1h,2023.2.3,Win32,59.88023952,65e67470ae2fbf2172c317b2,65e79a88027df4e53e14004c,,,,,,,,,,,276.1215,0.5,276.6196,276.6197,277.3541,right,0,0.7295,,277.3542,278.353,3,8,56,2,1,total,1,images/Ex3.jpg,left,training,hard,1,,,,,
,,,,,5f4a9eb861da210d3496cb34,001,61,Female,UK,Masters,2024-03-05_22h28.49.436,CRL1h,2023.2.3,Win32,59.88023952,65e67470ae2fbf2172c317b2,65e79a88027df4e53e14004c,,,,,,,,,,,278.3541,0.9,279.2531,279.2531,279.7875,left,1,0.5225,,279.7877,280.7865,3,9,57,3,1,total,1,images/Ex4.jpg,left,training,hard,1,,,,,
,,,,,5f4a9eb861da210d3496cb34,001,61,Female,UK,Masters,2024-03-05_22h28.49.436,CRL1h,2023.2.3,Win32,59.88023952,65e67470ae2fbf2172c317b2,65e79a88027df4e53e14004c,,,,,,,,,,,280.7881,1.3,282.0863,282.0864,282.5041,right,1,0.4041,,282.5043,283.5035,3,10,58,7,1,total,1,images/Ex8.jpg,right,training,hard,1,,,,,
,,,,,5f4a9eb861da210d3496cb34,001,61,Female,UK,Masters,2024-03-05_22h28.49.436,CRL1h,2023.2.3,Win32,59.88023952,65e67470ae2fbf2172c317b2,65e79a88027df4e53e14004c,,,,,,,,,,,283.5048,0.5,284.0031,284.0033,284.5371,right,0,0.5195,,284.5373,285.5367,3,11,59,10,1,total,1,images/Ex3.jpg,left,training,hard,1,,,,,
,,,,,5f4a9eb861da210d3496cb34,001,61,Female,UK,Masters,2024-03-05_22h28.49.436,CRL1h,2023.2.3,Win32,59.88023952,65e67470ae2fbf2172c317b2,65e79a88027df4e53e14004c,,,,,,,,,,,285.5379,0.7,286.2366,286.2366,286.7205,left,0,0.479,,286.7207,287.7197,3,12,60,6,1,total,1,images/Ex7.jpg,right,training,hard,1,,,,,
,,,,,5f4a9eb861da210d3496cb34,001,61,Female,UK,Masters,2024-03-05_22h28.49.436,CRL1h,2023.2.3,Win32,59.88023952,65e67470ae2fbf2172c317b2,65e79a88027df4e53e14004c,,,,,,,,,,,287.7206,1.1,288.8201,288.8203,289.1373,right,1,0.3105,,289.1374,290.1367,3,13,61,15,1,total,1,images/Ex8.jpg,right,training,hard,1,,,,,
,,,,,5f4a9eb861da210d3496cb34,001,61,Female,UK,Masters,2024-03-05_22h28.49.436,CRL1h,2023.2.3,Win32,59.88023952,65e67470ae2fbf2172c317b2,65e79a88027df4e53e14004c,,,,,,,,,,,290.1379,0.8,290.9367,290.9368,291.7215,right,0,0.77,,291.7218,292.7208,3,14,62,0,1,total,1,images/Ex1.jpg,left,training,hard,1,,,,,
,,,,,5f4a9eb861da210d3496cb34,001,61,Female,UK,Masters,2024-03-05_22h28.49.436,CRL1h,2023.2.3,Win32,59.88023952,65e67470ae2fbf2172c317b2,65e79a88027df4e53e14004c,,,,,,,,,,,292.7226,0.5,293.2206,293.2207,294.3715,left,1,1.1439,,294.3716,295.3705,3,15,63,1,1,total,1,images/Ex2.jpg,left,training,hard,1,,,,,
,,,,,5f4a9eb861da210d3496cb34,001,61,Female,UK,Masters,2024-03-05_22h28.49.436,CRL1h,2023.2.3,Win32,59.88023952,65e67470ae2fbf2172c317b2,65e79a88027df4e53e14004c,,,,,,,,,,,295.3728,0.7,296.07,296.0702,296.971,left,0,0.897,,296.9712,297.9701,4,0,64,14,1,total,1,images/Ex7.jpg,right,training,hard,1,,,,,
,,,,,5f4a9eb861da210d3496cb34,001,61,Female,UK,Masters,2024-03-05_22h28.49.436,CRL1h,2023.2.3,Win32,59.88023952,65e67470ae2fbf2172c317b2,65e79a88027df4e53e14004c,,,,,,,,,,,297.9717,0.8,298.7708,298.771,299.3044,right,1,0.5277,,299.3045,300.3035,4,1,65,12,1,total,1,images/Ex5.jpg,right,training,hard,1,,,,,
,,,,,5f4a9eb861da210d3496cb34,001,61,Female,UK,Masters,2024-03-05_22h28.49.436,CRL1h,2023.2.3,Win32,59.88023952,65e67470ae2fbf2172c317b2,65e79a88027df4e53e14004c,,,,,,,,,,,300.3049,1.5,301.8032,301.8034,302.2376,right,0,0.4207,,302.2377,303.2371,4,2,66,8,1,total,1,images/Ex1.jpg,left,training,hard,1,,,,,
,,,,,5f4a9eb861da210d3496cb34,001,61,Female,UK,Masters,2024-03-05_22h28.49.436,CRL1h,2023.2.3,Win32,59.88023952,65e67470ae2fbf2172c317b2,65e79a88027df4e53e14004c,,,,,,,,,,,303.2384,0.8,304.0368,304.0369,304.7874,left,1,0.7466,,304.7875,305.7867,4,3,67,10,1,total,1,images/Ex3.jpg,left,training,hard,1,,,,,
,,,,,5f4a9eb861da210d3496cb34,001,61,Female,UK,Masters,2024-03-05_22h28.49.436,CRL1h,2023.2.3,Win32,59.88023952,65e67470ae2fbf2172c317b2,65e79a88027df4e53e14004c,,,,,,,,,,,305.788,1,306.7868,306.7869,307.7207,left,1,0.9277,,307.7208,308.7198,4,4,68,0,1,total,1,images/Ex1.jpg,left,training,hard,1,,,,,
,,,,,5f4a9eb861da210d3496cb34,001,61,Female,UK,Masters,2024-03-05_22h28.49.436,CRL1h,2023.2.3,Win32,59.88023952,65e67470ae2fbf2172c317b2,65e79a88027df4e53e14004c,,,,,,,,,,,308.7213,0.7,309.4201,309.4202,309.9874,right,1,0.5603,,309.9876,310.987,4,5,69,6,1,total,1,images/Ex7.jpg,right,training,hard,1,,,,,
,,,,,5f4a9eb861da210d3496cb34,001,61,Female,UK,Masters,2024-03-05_22h28.49.436,CRL1h,2023.2.3,Win32,59.88023952,65e67470ae2fbf2172c317b2,65e79a88027df4e53e14004c,,,,,,,,,,,310.9881,0.9,311.8867,311.8868,312.7878,left,0,0.8963,,312.7881,313.7868,4,6,70,7,1,total,1,images/Ex8.jpg,right,training,hard,1,,,,,
,,,,,5f4a9eb861da210d3496cb34,001,61,Female,UK,Masters,2024-03-05_22h28.49.436,CRL1h,2023.2.3,Win32,59.88023952,65e67470ae2fbf2172c317b2,65e79a88027df4e53e14004c,,,,,,,,,,,313.7879,1.2,314.9869,314.9871,315.4046,right,0,0.4092,,315.4047,316.4034,4,7,71,1,1,total,1,images/Ex2.jpg,left,training,hard,1,,,,,
,,,,,5f4a9eb861da210d3496cb34,001,61,Female,UK,Masters,2024-03-05_22h28.49.436,CRL1h,2023.2.3,Win32,59.88023952,65e67470ae2fbf2172c317b2,65e79a88027df4e53e14004c,,,,,,,,,,,316.4051,0.5,316.9035,316.9036,317.5201,right,0,0.6077,,317.5205,318.5197,4,8,72,9,1,total,1,images/Ex2.jpg,left,training,hard,1,,,,,
,,,,,5f4a9eb861da210d3496cb34,001,61,Female,UK,Masters,2024-03-05_22h28.49.436,CRL1h,2023.2.3,Win32,59.88023952,65e67470ae2fbf2172c317b2,65e79a88027df4e53e14004c,,,,,,,,,,,318.5209,0.8,319.3198,319.3199,320.3546,left,1,1.0217,,320.3548,321.3535,4,9,73,3,1,total,1,images/Ex4.jpg,left,training,hard,1,,,,,
,,,,,5f4a9eb861da210d3496cb34,001,61,Female,UK,Masters,2024-03-05_22h28.49.436,CRL1h,2023.2.3,Win32,59.88023952,65e67470ae2fbf2172c317b2,65e79a88027df4e53e14004c,,,,,,,,,,,321.3555,0.7,322.0529,322.0529,322.5875,left,1,0.5216,,322.5877,323.5875,4,10,74,2,1,total,1,images/Ex3.jpg,left,training,hard,1,,,,,
,,,,,5f4a9eb861da210d3496cb34,001,61,Female,UK,Masters,2024-03-05_22h28.49.436,CRL1h,2023.2.3,Win32,59.88023952,65e67470ae2fbf2172c317b2,65e79a88027df4e53e14004c,,,,,,,,,,,323.5891,1.4,324.9871,324.9873,325.5878,left,0,0.5961,,325.5879,326.5871,4,11,75,4,1,total,1,images/Ex5.jpg,right,training,hard,1,,,,,
,,,,,5f4a9eb861da210d3496cb34,001,61,Female,UK,Masters,2024-03-05_22h28.49.436,CRL1h,2023.2.3,Win32,59.88023952,65e67470ae2fbf2172c317b2,65e79a88027df4e53e14004c,,,,,,,,,,,326.5885,1.2,327.7871,327.7872,328.4387,right,0,0.6378,,328.4389,329.4375,4,12,76,11,1,total,1,images/Ex4.jpg,left,training,hard,1,,,,,
,,,,,5f4a9eb861da210d3496cb34,001,61,Female,UK,Masters,2024-03-05_22h28.49.436,CRL1h,2023.2.3,Win32,59.88023952,65e67470ae2fbf2172c317b2,65e79a88027df4e53e14004c,,,,,,,,,,,329.4393,1.4,330.8373,330.8374,331.3557,left,0,0.5138,,331.3559,332.3537,4,13,77,5,1,total,1,images/Ex6.jpg,right,training,hard,1,,,,,
,,,,,5f4a9eb861da210d3496cb34,001,61,Female,UK,Masters,2024-03-05_22h28.49.436,CRL1h,2023.2.3,Win32,59.88023952,65e67470ae2fbf2172c317b2,65e79a88027df4e53e14004c,,,,,,,,,,,332.3551,1.1,333.4538,333.4539,333.9884,right,1,0.5254,,333.9887,334.9871,4,14,78,13,1,total,1,images/Ex6.jpg,right,training,hard,1,,,,,
,,,,,5f4a9eb861da210d3496cb34,001,61,Female,UK,Masters,2024-03-05_22h28.49.436,CRL1h,2023.2.3,Win32,59.88023952,65e67470ae2fbf2172c317b2,65e79a88027df4e53e14004c,,,,,,,,,,,334.989,1,335.9874,335.9875,336.6215,right,1,0.6202,,336.6217,337.6215,4,15,79,15,1,total,1,images/Ex8.jpg,right,training,hard,1,,,,,
,,,,,5f4a9eb861da210d3496cb34,001,61,Female,UK,Masters,2024-03-05_22h28.49.436,CRL1h,2023.2.3,Win32,59.88023952,65e67470ae2fbf2172c317b2,65e79a88027df4e53e14004c,,,,,,,,,,,337.6233,1.3,338.9212,338.9213,339.5387,right,1,0.6032,,339.5389,340.5372,5,0,80,6,1,total,1,images/Ex7.jpg,right,training,hard,1,,,,,
,,,,,5f4a9eb861da210d3496cb34,001,61,Female,UK,Masters,2024-03-05_22h28.49.436,CRL1h,2023.2.3,Win32,59.88023952,65e67470ae2fbf2172c317b2,65e79a88027df4e53e14004c,,,,,,,,,,,340.5389,0.7,341.2374,341.2375,341.8931,left,0,0.6529,,341.8932,342.8872,5,1,81,13,1,total,1,images/Ex6.jpg,right,training,hard,1,,,,,
,,,,,5f4a9eb861da210d3496cb34,001,61,Female,UK,Masters,2024-03-05_22h28.49.436,CRL1h,2023.2.3,Win32,59.88023952,65e67470ae2fbf2172c317b2,65e79a88027df4e53e14004c,,,,,,,,,,,342.8892,0.8,343.6878,343.6879,344.0713,right,0,0.3795,,344.0715,345.072,5,2,82,3,1,total,1,images/Ex4.jpg,left,training,hard,1,,,,,
,,,,,5f4a9eb861da210d3496cb34,001,61,Female,UK,Masters,2024-03-05_22h28.49.436,CRL1h,2023.2.3,Win32,59.88023952,65e67470ae2fbf2172c317b2,65e79a88027df4e53e14004c,,,,,,,,,,,345.0733,1.1,346.1709,346.1711,346.5882,left,1,0.4061,,346.5884,347.587,5,3,83,11,1,total,1,images/Ex4.jpg,left,training,hard,1,,,,,
,,,,,5f4a9eb861da210d3496cb34,001,61,Female,UK,Masters,2024-03-05_22h28.49.436,CRL1h,2023.2.3,Win32,59.88023952,65e67470ae2fbf2172c317b2,65e79a88027df4e53e14004c,,,,,,,,,,,347.5891,0.6,348.1867,348.187,348.7721,left,1,0.5769,,348.7724,349.7714,5,4,84,8,1,total,1,images/Ex1.jpg,left,training,hard,1,,,,,
,,,,,5f4a9eb861da210d3496cb34,001,61,Female,UK,Masters,2024-03-05_22h28.49.436,CRL1h,2023.2.3,Win32,59.88023952,65e67470ae2fbf2172c317b2,65e79a88027df4e53e14004c,,,,,,,,,,,349.7732,0.9,350.6713,350.6715,351.3053,left,1,0.6206,,351.3055,352.3041,5,5,85,9,1,total,1,images/Ex2.jpg,left,training,hard,1,,,,,
,,,,,5f4a9eb861da210d3496cb34,001,61,Female,UK,Masters,2024-03-05_22h28.49.436,CRL1h,2023.2.3,Win32,59.88023952,65e67470ae2fbf2172c317b2,65e79a88027df4e53e14004c,,,,,,,,,,,352.3057,1.3,353.6038,353.6039,354.0552,right,1,0.437,,354.0555,355.054,5,6,86,14,1,total,1,images/Ex7.jpg,right,training,hard,1,,,,,
,,,,,5f4a9eb861da210d3496cb34,001,61,Female,UK,Masters,2024-03-05_22h28.49.436,CRL1h,2023.2.3,Win32,59.88023952,65e67470ae2fbf2172c317b2,65e79a88027df4e53e14004c,,,,,,,,,,,355.0558,1.3,356.3543,356.3544,357.2386,left,1,0.8702,,357.239,358.2374,5,7,87,10,1,total,1,images/Ex3.jpg,left,training,hard,1,,,,,
,,,,,5f4a9eb861da210d3496cb34,001,61,Female,UK,Masters,2024-03-05_22h28.49.436,CRL1h,2023.2.3,Win32,59.88023952,65e67470ae2fbf2172c317b2,65e79a88027df4e53e14004c,,,,,,,,,,,358.2396,0.5,358.7375,358.7378,359.2881,right,0,0.5409,,359.2883,360.2875,5,8,88,0,1,total,1,images/Ex1.jpg,left,training,hard,1,,,,,
,,,,,5f4a9eb861da210d3496cb34,001,61,Female,UK,Masters,2024-03-05_22h28.49.436,CRL1h,2023.2.3,Win32,59.88023952,65e67470ae2fbf2172c317b2,65e79a88027df4e53e14004c,,,,,,,,,,,360.2893,1,361.2873,361.2873,362.0058,left,1,0.7144,,362.0059,363.0044,5,9,89,1,1,total,1,images/Ex2.jpg,left,training,hard,1,,,,,
,,,,,5f4a9eb861da210d3496cb34,001,61,Female,UK,Masters,2024-03-05_22h28.49.436,CRL1h,2023.2.3,Win32,59.88023952,65e67470ae2fbf2172c317b2,65e79a88027df4e53e14004c,,,,,,,,,,,363.006,1.1,364.1041,364.1042,365.1233,left,0,1.0033,,365.1233,366.1205,5,10,90,12,1,total,1,images/Ex5.jpg,right,training,hard,1,,,,,
,,,,,5f4a9eb861da210d3496cb34,001,61,Female,UK,Masters,2024-03-05_22h28.49.436,CRL1h,2023.2.3,Win32,59.88023952,65e67470ae2fbf2172c317b2,65e79a88027df4e53e14004c,,,,,,,,,,,366.1225,0.9,367.021,367.0211,367.6881,right,1,0.6543,,367.6883,368.6878,5,11,91,5,1,total,1,images/Ex6.jpg,right,training,hard,1,,,,,
,,,,,5f4a9eb861da210d3496cb34,001,61,Female,UK,Masters,2024-03-05_22h28.49.436,CRL1h,2023.2.3,Win32,59.88023952,65e67470ae2fbf2172c317b2,65e79a88027df4e53e14004c,,,,,,,,,,,368.6897,0.9,369.5873,369.5875,370.3724,right,1,0.7739,,370.3726,371.371,5,12,92,15,1,total,1,images/Ex8.jpg,right,training,hard,1,,,,,
,,,,,5f4a9eb861da210d3496cb34,001,61,Female,UK,Masters,2024-03-05_22h28.49.436,CRL1h,2023.2.3,Win32,59.88023952,65e67470ae2fbf2172c317b2,65e79a88027df4e53e14004c,,,,,,,,,,,371.3728,1.2,372.5712,372.5714,373.6385,right,1,1.0628,,373.6388,374.6418,5,13,93,7,1,total,1,images/Ex8.jpg,right,training,hard,1,,,,,
,,,,,5f4a9eb861da210d3496cb34,001,61,Female,UK,Masters,2024-03-05_22h28.49.436,CRL1h,2023.2.3,Win32,59.88023952,65e67470ae2fbf2172c317b2,65e79a88027df4e53e14004c,,,,,,,,,,,374.6423,0.8,375.4376,375.4377,376.3883,left,1,0.9436,,376.3886,377.3924,5,14,94,2,1,total,1,images/Ex3.jpg,left,training,hard,1,,,,,
,,,,,5f4a9eb861da210d3496cb34,001,61,Female,UK,Masters,2024-03-05_22h28.49.436,CRL1h,2023.2.3,Win32,59.88023952,65e67470ae2fbf2172c317b2,65e79a88027df4e53e14004c,,,,,,,,,,,377.3928,0.6,377.9876,377.9877,378.8552,left,0,0.8542,,378.8554,379.8543,5,15,95,4,1,total,1,images/Ex5.jpg,right,training,hard,1,,,,,
,,,,,5f4a9eb861da210d3496cb34,001,61,Female,UK,Masters,2024-03-05_22h28.49.436,CRL1h,2023.2.3,Win32,59.88023952,65e67470ae2fbf2172c317b2,65e79a88027df4e53e14004c,,,,,,,,,,,379.8561,1.2,381.0543,381.0544,381.6057,right,1,0.5374,,381.6057,382.6046,6,0,96,7,1,total,1,images/Ex8.jpg,right,training,hard,1,,,,,
,,,,,5f4a9eb861da210d3496cb34,001,61,Female,UK,Masters,2024-03-05_22h28.49.436,CRL1h,2023.2.3,Win32,59.88023952,65e67470ae2fbf2172c317b2,65e79a88027df4e53e14004c,,,,,,,,,,,382.6062,1.3,383.9042,383.9044,384.9222,left,0,1.0036,,384.9224,385.9209,6,1,97,14,1,total,1,images/Ex7.jpg,right,training,hard,1,,,,,
,,,,,5f4a9eb861da210d3496cb34,001,61,Female,UK,Masters,2024-03-05_22h28.49.436,CRL1h,2023.2.3,Win32,59.88023952,65e67470ae2fbf2172c317b2,65e79a88027df4e53e14004c,,,,,,,,,,,385.9228,0.8,386.7264,386.7264,387.2262,right,1,0.4989,,387.2262,388.2206,6,2,98,4,1,total,1,images/Ex5.jpg,right,training,hard,1,,,,,
,,,,,5f4a9eb861da210d3496cb34,001,61,Female,UK,Masters,2024-03-05_22h28.49.436,CRL1h,2023.2.3,Win32,59.88023952,65e67470ae2fbf2172c317b2,65e79a88027df4e53e14004c,,,,,,,,,,,388.2222,0.8,389.021,389.0212,389.5882,right,1,0.557,,389.5884,390.5874,6,3,99,6,1,total,1,images/Ex7.jpg,right,training,hard,1,,,,,
,,,,,5f4a9eb861da210d3496cb34,001,61,Female,UK,Masters,2024-03-05_22h28.49.436,CRL1h,2023.2.3,Win32,59.88023952,65e67470ae2fbf2172c317b2,65e79a88027df4e53e14004c,,,,,,,,,,,390.5895,0.8,391.3875,391.3876,391.8888,right,0,0.4864,,391.889,392.8872,6,4,100,3,1,total,1,images/Ex4.jpg,left,training,hard,1,,,,,
,,,,,5f4a9eb861da210d3496cb34,001,61,Female,UK,Masters,2024-03-05_22h28.49.436,CRL1h,2023.2.3,Win32,59.88023952,65e67470ae2fbf2172c317b2,65e79a88027df4e53e14004c,,,,,,,,,,,392.8893,1,393.8871,393.8873,394.5895,left,0,0.6872,,394.5898,395.588,6,5,101,15,1,total,1,images/Ex8.jpg,right,training,hard,1,,,,,
,,,,,5f4a9eb861da210d3496cb34,001,61,Female,UK,Masters,2024-03-05_22h28.49.436,CRL1h,2023.2.3,Win32,59.88023952,65e67470ae2fbf2172c317b2,65e79a88027df4e53e14004c,,,,,,,,,,,395.5897,0.9,396.4875,396.4877,397.123,right,0,0.62,,397.1232,398.12,6,6,102,0,1,total,1,images/Ex1.jpg,left,training,hard,1,,,,,
,,,,,5f4a9eb861da210d3496cb34,001,61,Female,UK,Masters,2024-03-05_22h28.49.436,CRL1h,2023.2.3,Win32,59.88023952,65e67470ae2fbf2172c317b2,65e79a88027df4e53e14004c,,,,,,,,,,,398.1222,1.4,399.5209,399.521,400.1051,left,0,0.5762,,400.1053,401.1043,6,7,103,13,1,total,1,images/Ex6.jpg,right,training,hard,1,,,,,
,,,,,5f4a9eb861da210d3496cb34,001,61,Female,UK,Masters,2024-03-05_22h28.49.436,CRL1h,2023.2.3,Win32,59.88023952,65e67470ae2fbf2172c317b2,65e79a88027df4e53e14004c,,,,,,,,,,,401.1064,0.5,401.6043,401.6043,401.9877,right,0,0.3788,,401.988,402.9876,6,8,104,1,1,total,1,images/Ex2.jpg,left,training,hard,1,,,,,
,,,,,5f4a9eb861da210d3496cb34,001,61,Female,UK,Masters,2024-03-05_22h28.49.436,CRL1h,2023.2.3,Win32,59.88023952,65e67470ae2fbf2172c317b2,65e79a88027df4e53e14004c,,,,,,,,,,,402.9894,1,403.9873,403.9874,404.9222,left,1,0.9213,,404.9227,405.9215,6,9,105,9,1,total,1,images/Ex2.jpg,left,training,hard,1,,,,,
,,,,,5f4a9eb861da210d3496cb34,001,61,Female,UK,Masters,2024-03-05_22h28.49.436,CRL1h,2023.2.3,Win32,59.88023952,65e67470ae2fbf2172c317b2,65e79a88027df4e53e14004c,,,,,,,,,,,405.9231,1.3,407.2214,407.2215,408.3389,left,1,1.1047,,408.3391,409.3374,6,10,106,2,1,total,1,images/Ex3.jpg,left,training,hard,1,,,,,
,,,,,5f4a9eb861da210d3496cb34,001,61,Female,UK,Masters,2024-03-05_22h28.49.436,CRL1h,2023.2.3,Win32,59.88023952,65e67470ae2fbf2172c317b2,65e79a88027df4e53e14004c,,,,,,,,,,,409.3392,1.4,410.7374,410.7375,411.3544,left,0,0.611,,411.3546,412.3542,6,11,107,5,1,total,1,images/Ex6.jpg,right,training,hard,1,,,,,
,,,,,5f4a9eb861da210d3496cb34,001,61,Female,UK,Masters,2024-03-05_22h28.49.436,CRL1h,2023.2.3,Win32,59.88023952,65e67470ae2fbf2172c317b2,65e79a88027df4e53e14004c,,,,,,,,,,,412.3564,0.7,413.0541,413.0542,413.9723,right,1,0.904,,413.9726,414.9713,6,12,108,12,1,total,1,images/Ex5.jpg,right,training,hard,1,,,,,
,,,,,5f4a9eb861da210d3496cb34,001,61,Female,UK,Masters,2024-03-05_22h28.49.436,CRL1h,2023.2.3,Win32,59.88023952,65e67470ae2fbf2172c317b2,65e79a88027df4e53e14004c,,,,,,,,,,,414.9729,1.4,416.3716,416.372,417.3727,right,0,0.9868,,417.3729,418.3708,6,13,109,8,1,total,1,images/Ex1.jpg,left,training,hard,1,,,,,
,,,,,5f4a9eb861da210d3496cb34,001,61,Female,UK,Masters,2024-03-05_22h28.49.436,CRL1h,2023.2.3,Win32,59.88023952,65e67470ae2fbf2172c317b2,65e79a88027df4e53e14004c,,,,,,,,,,,418.3728,0.6,418.9709,418.971,420.1044,left,1,1.1293,,420.1047,421.1087,6,14,110,10,1,total,1,images/Ex3.jpg,left,training,hard,1,,,,,
,,,,,5f4a9eb861da210d3496cb34,001,61,Female,UK,Masters,2024-03-05_22h28.49.436,CRL1h,2023.2.3,Win32,59.88023952,65e67470ae2fbf2172c317b2,65e79a88027df4e53e14004c,,,,,,,,,,,421.1092,0.8,421.9043,421.9044,422.4051,left,1,0.4882,,422.4053,423.4039,6,15,111,11,1,total,1,images/Ex4.jpg,left,training,hard,1,,,,,
,,,,,5f4a9eb861da210d3496cb34,001,61,Female,UK,Masters,2024-03-05_22h28.49.436,CRL1h,2023.2.3,Win32,59.88023952,65e67470ae2fbf2172c317b2,65e79a88027df4e53e14004c,,,,,,,,,,,423.406,1.1,424.5042,424.5044,425.3881,left,1,0.8777,,425.3883,426.3874,7,0,112,9,1,total,1,images/Ex2.jpg,left,training,hard,1,,,,,
,,,,,5f4a9eb861da210d3496cb34,001,61,Female,UK,Masters,2024-03-05_22h28.49.436,CRL1h,2023.2.3,Win32,59.88023952,65e67470ae2fbf2172c317b2,65e79a88027df4e53e14004c,,,,,,,,,,,426.3895,1,427.3874,427.3875,428.1225,left,0,0.7214,,428.1227,429.121,7,1,113,14,1,total,1,images/Ex7.jpg,right,training,hard,1,,,,,
,,,,,5f4a9eb861da210d3496cb34,001,61,Female,UK,Masters,2024-03-05_22h28.49.436,CRL1h,2023.2.3,Win32,59.88023952,65e67470ae2fbf2172c317b2,65e79a88027df4e53e14004c,,,,,,,,,,,429.123,0.7,429.8212,429.8214,430.9933,left,1,1.1696,,430.9934,431.9876,7,2,114,0,1,total,1,images/Ex1.jpg,left,training,hard,1,,,,,
,,,,,5f4a9eb861da210d3496cb34,001,61,Female,UK,Masters,2024-03-05_22h28.49.436,CRL1h,2023.2.3,Win32,59.88023952,65e67470ae2fbf2172c317b2,65e79a88027df4e53e14004c,,,,,,,,,,,431.9897,0.7,432.6873,432.6875,433.6718,left,0,0.9759,,433.672,434.671,7,3,115,13,1,total,1,images/Ex6.jpg,right,training,hard,1,,,,,
,,,,,5f4a9eb861da210d3496cb34,001,61,Female,UK,Masters,2024-03-05_22h28.49.436,CRL1h,2023.2.3,Win32,59.88023952,65e67470ae2fbf2172c317b2,65e79a88027df4e53e14004c,,,,,,,,,,,434.6728,1.1,435.7708,435.771,436.1883,right,1,0.4069,,436.1885,437.1874,7,4,116,15,1,total,1,images/Ex8.jpg,right,training,hard,1,,,,,
,,,,,5f4a9eb861da210d3496cb34,001,61,Female,UK,Masters,2024-03-05_22h28.49.436,CRL1h,2023.2.3,Win32,59.88023952,65e67470ae2fbf2172c317b2,65e79a88027df4e53e14004c,,,,,,,,,,,437.1894,0.7,437.8923,437.8924,438.6378,left,0,0.7336,,438.6382,439.6374,7,5,117,5,1,total,1,images/Ex6.jpg,right,training,hard,1,,,,,
,,,,,5f4a9eb861da210d3496cb34,001,61,Female,UK,Masters,2024-03-05_22h28.49.436,CRL1h,2023.2.3,Win32,59.88023952,65e67470ae2fbf2172c317b2,65e79a88027df4e53e14004c,,,,,,,,,,,439.6393,1.2,440.8374,440.8376,441.5389,right,0,0.6914,,441.5391,442.5379,7,6,118,3,1,total,1,images/Ex4.jpg,left,training,hard,1,,,,,
,,,,,5f4a9eb861da210d3496cb34,001,61,Female,UK,Masters,2024-03-05_22h28.49.436,CRL1h,2023.2.3,Win32,59.88023952,65e67470ae2fbf2172c317b2,65e79a88027df4e53e14004c,,,,,,,,,,,442.5397,0.8,443.3373,443.3374,444.1545,left,1,0.8036,,444.1548,445.1544,7,7,119,1,1,total,1,images/Ex2.jpg,left,training,hard,1,,,,,
,,,,,5f4a9eb861da210d3496cb34,001,61,Female,UK,Masters,2024-03-05_22h28.49.436,CRL1h,2023.2.3,Win32,59.88023952,65e67470ae2fbf2172c317b2,65e79a88027df4e53e14004c,,,,,,,,,,,445.1562,1,446.1544,446.1546,446.889,left,0,0.7208,,446.8893,447.8872,7,8,120,6,1,total,1,images/Ex7.jpg,right,training,hard,1,,,,,
,,,,,5f4a9eb861da210d3496cb34,001,61,Female,UK,Masters,2024-03-05_22h28.49.436,CRL1h,2023.2.3,Win32,59.88023952,65e67470ae2fbf2172c317b2,65e79a88027df4e53e14004c,,,,,,,,,,,447.889,1,448.8875,448.8877,450.2722,right,1,1.3778,,450.2725,451.2712,7,9,121,4,1,total,1,images/Ex5.jpg,right,training,hard,1,,,,,
,,,,,5f4a9eb861da210d3496cb34,001,61,Female,UK,Masters,2024-03-05_22h28.49.436,CRL1h,2023.2.3,Win32,59.88023952,65e67470ae2fbf2172c317b2,65e79a88027df4e53e14004c,,,,,,,,,,,451.273,1.1,452.3716,452.3718,452.9391,right,0,0.5538,,452.9392,453.9373,7,10,122,2,1,total,1,images/Ex3.jpg,left,training,hard,1,,,,,
,,,,,5f4a9eb861da210d3496cb34,001,61,Female,UK,Masters,2024-03-05_22h28.49.436,CRL1h,2023.2.3,Win32,59.88023952,65e67470ae2fbf2172c317b2,65e79a88027df4e53e14004c,,,,,,,,,,,453.9395,1.1,455.0377,455.0378,455.9388,left,1,0.8869,,455.939,456.9375,7,11,123,8,1,total,1,images/Ex1.jpg,left,training,hard,1,,,,,
,,,,,5f4a9eb861da210d3496cb34,001,61,Female,UK,Masters,2024-03-05_22h28.49.436,CRL1h,2023.2.3,Win32,59.88023952,65e67470ae2fbf2172c317b2,65e79a88027df4e53e14004c,,,,,,,,,,,456.9395,0.6,457.5367,457.5369,458.355,right,0,0.8044,,458.3551,459.3542,7,12,124,11,1,total,1,images/Ex4.jpg,left,training,hard,1,,,,,
,,,,,5f4a9eb861da210d3496cb34,001,61,Female,UK,Masters,2024-03-05_22h28.49.436,CRL1h,2023.2.3,Win32,59.88023952,65e67470ae2fbf2172c317b2,65e79a88027df4e53e14004c,,,,,,,,,,,459.3562,0.8,460.1544,460.1545,461.0721,left,0,0.9035,,461.0723,462.0709,7,13,125,12,1,total,1,images/Ex5.jpg,right,training,hard,1,,,,,
,,,,,5f4a9eb861da210d3496cb34,001,61,Female,UK,Masters,2024-03-05_22h28.49.436,CRL1h,2023.2.3,Win32,59.88023952,65e67470ae2fbf2172c317b2,65e79a88027df4e53e14004c,,,,,,,,,,,462.0728,1.3,463.3708,463.3709,464.9218,right,0,1.5428,,464.9221,465.9211,7,14,126,10,1,total,1,images/Ex3.jpg,left,training,hard,1,,,,,
,,,,,5f4a9eb861da210d3496cb34,001,61,Female,UK,Masters,2024-03-05_22h28.49.436,CRL1h,2023.2.3,Win32,59.88023952,65e67470ae2fbf2172c317b2,65e79a88027df4e53e14004c,,,,,,,,,,,465.9301,0.9,466.8213,466.8215,467.673,left,0,0.8391,,467.673,468.6707,7,15,127,7,1,total,1,images/Ex8.jpg,right,training,hard,1,,,,,
,,,,,5f4a9eb861da210d3496cb34,001,61,Female,UK,Masters,2024-03-05_22h28.49.436,CRL1h,2023.2.3,Win32,59.88023952,65e67470ae2fbf2172c317b2,65e79a88027df4e53e14004c,,,,,,,,,,,468.6791,0.6,469.2706,469.2708,469.8048,right,1,0.5202,,469.805,470.8048,0,0,0,11,1,total,2,images/Ex4.jpg,right,reversed,hard,1,,,,,
,,,,,5f4a9eb861da210d3496cb34,001,61,Female,UK,Masters,2024-03-05_22h28.49.436,CRL1h,2023.2.3,Win32,59.88023952,65e67470ae2fbf2172c317b2,65e79a88027df4e53e14004c,,,,,,,,,,,470.8065,1.1,471.9085,471.9085,472.4558,left,0,0.5341,,472.4561,473.4541,0,1,1,0,1,total,2,images/Ex1.jpg,right,reversed,hard,1,,,,,
,,,,,5f4a9eb861da210d3496cb34,001,61,Female,UK,Masters,2024-03-05_22h28.49.436,CRL1h,2023.2.3,Win32,59.88023952,65e67470ae2fbf2172c317b2,65e79a88027df4e53e14004c,,,,,,,,,,,473.4561,1.1,474.554,474.5542,475.3052,right,1,0.7388,,475.3055,476.3044,0,2,2,9,1,total,2,images/Ex2.jpg,right,reversed,hard,1,,,,,
,,,,,5f4a9eb861da210d3496cb34,001,61,Female,UK,Masters,2024-03-05_22h28.49.436,CRL1h,2023.2.3,Win32,59.88023952,65e67470ae2fbf2172c317b2,65e79a88027df4e53e14004c,,,,,,,,,,,476.3062,1,477.3086,477.3086,478.1886,right,1,0.8684,,478.1889,479.1881,0,3,3,1,1,total,2,images/Ex2.jpg,right,reversed,hard,1,,,,,
,,,,,5f4a9eb861da210d3496cb34,001,61,Female,UK,Masters,2024-03-05_22h28.49.436,CRL1h,2023.2.3,Win32,59.88023952,65e67470ae2fbf2172c317b2,65e79a88027df4e53e14004c,,,,,,,,,,,479.1897,1.3,480.4875,480.4876,480.9231,right,0,0.4199,,480.9232,481.9211,0,4,4,13,1,total,2,images/Ex6.jpg,left,reversed,hard,1,,,,,
,,,,,5f4a9eb861da210d3496cb34,001,61,Female,UK,Masters,2024-03-05_22h28.49.436,CRL1h,2023.2.3,Win32,59.88023952,65e67470ae2fbf2172c317b2,65e79a88027df4e53e14004c,,,,,,,,,,,481.9231,0.7,482.6206,482.6209,483.3226,left,1,0.6968,,483.3228,484.3216,0,5,5,6,1,total,2,images/Ex7.jpg,left,reversed,hard,1,,,,,
,,,,,5f4a9eb861da210d3496cb34,001,61,Female,UK,Masters,2024-03-05_22h28.49.436,CRL1h,2023.2.3,Win32,59.88023952,65e67470ae2fbf2172c317b2,65e79a88027df4e53e14004c,,,,,,,,,,,484.3233,0.5,484.8211,484.8213,485.5386,left,1,0.7049,,485.5389,486.5376,0,6,6,5,1,total,2,images/Ex6.jpg,left,reversed,hard,1,,,,,
,,,,,5f4a9eb861da210d3496cb34,001,61,Female,UK,Masters,2024-03-05_22h28.49.436,CRL1h,2023.2.3,Win32,59.88023952,65e67470ae2fbf2172c317b2,65e79a88027df4e53e14004c,,,,,,,,,,,486.5396,0.7,487.2373,487.2375,487.7062,right,1,0.4608,,487.7063,488.7043,0,7,7,2,1,total,2,images/Ex3.jpg,right,reversed,hard,1,,,,,
,,,,,5f4a9eb861da210d3496cb34,001,61,Female,UK,Masters,2024-03-05_22h28.49.436,CRL1h,2023.2.3,Win32,59.88023952,65e67470ae2fbf2172c317b2,65e79a88027df4e53e14004c,,,,,,,,,,,488.7063,0.6,489.3043,489.3045,489.9551,right,0,0.6415,,489.9555,490.9543,0,8,8,4,1,total,2,images/Ex5.jpg,left,reversed,hard,1,,,,,
,,,,,5f4a9eb861da210d3496cb34,001,61,Female,UK,Masters,2024-03-05_22h28.49.436,CRL1h,2023.2.3,Win32,59.88023952,65e67470ae2fbf2172c317b2,65e79a88027df4e53e14004c,,,,,,,,,,,490.9564,0.6,491.5544,491.5545,491.9724,left,0,0.406,,491.9725,492.9706,0,9,9,10,1,total,2,images/Ex3.jpg,right,reversed,hard,1,,,,,
,,,,,5f4a9eb861da210d3496cb34,001,61,Female,UK,Masters,2024-03-05_22h28.49.436,CRL1h,2023.2.3,Win32,59.88023952,65e67470ae2fbf2172c317b2,65e79a88027df4e53e14004c,,,,,,,,,,,492.9726,1.4,494.3716,494.3719,494.8383,right,0,0.4598,,494.8385,495.8383,0,10,10,7,1,total,2,images/Ex8.jpg,left,reversed,hard,1,,,,,
,,,,,5f4a9eb861da210d3496cb34,001,61,Female,UK,Masters,2024-03-05_22h28.49.436,CRL1h,2023.2.3,Win32,59.88023952,65e67470ae2fbf2172c317b2,65e79a88027df4e53e14004c,,,,,,,,,,,495.8399,1.2,497.0384,497.0386,498.2557,right,0,1.2042,,498.256,499.2543,0,11,11,14,1,total,2,images/Ex7.jpg,left,reversed,hard,1,,,,,
,,,,,5f4a9eb861da210d3496cb34,001,61,Female,UK,Masters,2024-03-05_22h28.49.436,CRL1h,2023.2.3,Win32,59.88023952,65e67470ae2fbf2172c317b2,65e79a88027df4e53e14004c,,,,,,,,,,,499.2564,0.8,500.0537,500.0542,500.491,left,1,0.4342,,500.491,501.4881,0,12,12,12,1,total,2,images/Ex5.jpg,left,reversed,hard,1,,,,,
,,,,,5f4a9eb861da210d3496cb34,001,61,Female,UK,Masters,2024-03-05_22h28.49.436,CRL1h,2023.2.3,Win32,59.88023952,65e67470ae2fbf2172c317b2,65e79a88027df4e53e14004c,,,,,,,,,,,501.4897,0.6,502.088,502.0882,502.8596,left,0,0.7691,,502.8596,503.8543,0,13,13,3,1,total,2,images/Ex4.jpg,right,reversed,hard,1,,,,,
,,,,,5f4a9eb861da210d3496cb34,001,61,Female,UK,Masters,2024-03-05_22h28.49.436,CRL1h,2023.2.3,Win32,59.88023952,65e67470ae2fbf2172c317b2,65e79a88027df4e53e14004c,,,,,,,,,,,503.8563,1.1,504.9542,504.9543,506.3063,right,1,1.347,,506.3064,507.3048,0,14,14,8,1,total,2,images/Ex1.jpg,right,reversed,hard,1,,,,,
,,,,,5f4a9eb861da210d3496cb34,001,61,Female,UK,Masters,2024-03-05_22h28.49.436,CRL1h,2023.2.3,Win32,59.88023952,65e67470ae2fbf2172c317b2,65e79a88027df4e53e14004c,,,,,,,,,,,507.3064,1.2,508.5041,508.5042,508.9714,right,0,0.4594,,508.9717,509.9712,0,15,15,15,1,total,2,images/Ex8.jpg,left,reversed,hard,1,,,,,
,,,,,5f4a9eb861da210d3496cb34,001,61,Female,UK,Masters,2024-03-05_22h28.49.436,CRL1h,2023.2.3,Win32,59.88023952,65e67470ae2fbf2172c317b2,65e79a88027df4e53e14004c,,,,,,,,,,,509.9731,0.5,510.471,510.4712,511.255,left,0,0.7758,,511.2552,512.2543,1,0,16,2,1,total,2,images/Ex3.jpg,right,reversed,hard,1,,,,,
,,,,,5f4a9eb861da210d3496cb34,001,61,Female,UK,Masters,2024-03-05_22h28.49.436,CRL1h,2023.2.3,Win32,59.88023952,65e67470ae2fbf2172c317b2,65e79a88027df4e53e14004c,,,,,,,,,,,512.2563,1.2,513.4543,513.4544,514.0548,right,0,0.5882,,514.055,515.0539,1,1,17,7,1,total,2,images/Ex8.jpg,left,reversed,hard,1,,,,,
,,,,,5f4a9eb861da210d3496cb34,001,61,Female,UK,Masters,2024-03-05_22h28.49.436,CRL1h,2023.2.3,Win32,59.88023952,65e67470ae2fbf2172c317b2,65e79a88027df4e53e14004c,,,,,,,,,,,515.0558,0.6,515.6542,515.6544,517.0888,left,0,1.4204,,517.0891,518.0922,1,2,18,1,1,total,2,images/Ex2.jpg,right,reversed,hard,1,,,,,
,,,,,5f4a9eb861da210d3496cb34,001,61,Female,UK,Masters,2024-03-05_22h28.49.436,CRL1h,2023.2.3,Win32,59.88023952,65e67470ae2fbf2172c317b2,65e79a88027df4e53e14004c,,,,,,,,,,,518.0992,1.1,519.2043,519.2044,519.9432,right,0,0.7361,,519.9432,520.9376,1,3,19,13,1,total,2,images/Ex6.jpg,left,reversed,hard,1,,,,,
,,,,,5f4a9eb861da210d3496cb34,001,61,Female,UK,Masters,2024-03-05_22h28.49.436,CRL1h,2023.2.3,Win32,59.88023952,65e67470ae2fbf2172c317b2,65e79a88027df4e53e14004c,,,,,,,,,,,520.9398,1.3,522.2421,522.2422,522.789,left,1,0.5348,,522.7893,523.7876,1,4,20,12,1,total,2,images/Ex5.jpg,left,reversed,hard,1,,,,,
,,,,,5f4a9eb861da210d3496cb34,001,61,Female,UK,Masters,2024-03-05_22h28.49.436,CRL1h,2023.2.3,Win32,59.88023952,65e67470ae2fbf2172c317b2,65e79a88027df4e53e14004c,,,,,,,,,,,523.7897,0.8,524.5878,524.588,525.123,left,1,0.5204,,525.1232,526.121,1,5,21,15,1,total,2,images/Ex8.jpg,left,reversed,hard,1,,,,,
,,,,,5f4a9eb861da210d3496cb34,001,61,Female,UK,Masters,2024-03-05_22h28.49.436,CRL1h,2023.2.3,Win32,59.88023952,65e67470ae2fbf2172c317b2,65e79a88027df4e53e14004c,,,,,,,,,,,526.123,1.4,527.5209,527.5211,528.3219,left,1,0.7929,,528.3221,529.3217,1,6,22,6,1,total,2,images/Ex7.jpg,left,reversed,hard,1,,,,,
,,,,,5f4a9eb861da210d3496cb34,001,61,Female,UK,Masters,2024-03-05_22h28.49.436,CRL1h,2023.2.3,Win32,59.88023952,65e67470ae2fbf2172c317b2,65e79a88027df4e53e14004c,,,,,,,,,,,529.3232,1.4,530.7215,530.7217,531.8725,right,1,1.1419,,531.8728,532.8719,1,7,23,8,1,total,2,images/Ex1.jpg,right,reversed,hard,1,,,,,
,,,,,5f4a9eb861da210d3496cb34,001,61,Female,UK,Masters,2024-03-05_22h28.49.436,CRL1h,2023.2.3,Win32,59.88023952,65e67470ae2fbf2172c317b2,65e79a88027df4e53e14004c,,,,,,,,,,,532.8732,0.8,533.6714,533.6717,534.2226,right,1,0.5438,,534.2228,535.2206,1,8,24,9,1,total,2,images/Ex2.jpg,right,reversed,hard,1,,,,,
,,,,,5f4a9eb861da210d3496cb34,001,61,Female,UK,Masters,2024-03-05_22h28.49.436,CRL1h,2023.2.3,Win32,59.88023952,65e67470ae2fbf2172c317b2,65e79a88027df4e53e14004c,,,,,,,,,,,535.2227,0.8,536.0209,536.021,536.6545,right,1,0.6291,,536.6548,537.6543,1,9,25,11,1,total,2,images/Ex4.jpg,right,reversed,hard,1,,,,,
,,,,,5f4a9eb861da210d3496cb34,001,61,Female,UK,Masters,2024-03-05_22h28.49.436,CRL1h,2023.2.3,Win32,59.88023952,65e67470ae2fbf2172c317b2,65e79a88027df4e53e14004c,,,,,,,,,,,537.6558,1.2,538.8543,538.8545,539.4228,right,0,0.5578,,539.423,540.4209,1,10,26,4,1,total,2,images/Ex5.jpg,left,reversed,hard,1,,,,,
,,,,,5f4a9eb861da210d3496cb34,001,61,Female,UK,Masters,2024-03-05_22h28.49.436,CRL1h,2023.2.3,Win32,59.88023952,65e67470ae2fbf2172c317b2,65e79a88027df4e53e14004c,,,,,,,,,,,540.423,0.7,541.121,541.1214,541.7051,left,0,0.5732,,541.7053,542.7045,1,11,27,3,1,total,2,images/Ex4.jpg,right,reversed,hard,1,,,,,
,,,,,5f4a9eb861da210d3496cb34,001,61,Female,UK,Masters,2024-03-05_22h28.49.436,CRL1h,2023.2.3,Win32,59.88023952,65e67470ae2fbf2172c317b2,65e79a88027df4e53e14004c,,,,,,,,,,,542.7064,0.5,543.2047,543.205,543.9384,right,1,0.7201,,543.9386,544.9373,1,12,28,10,1,total,2,images/Ex3.jpg,right,reversed,hard,1,,,,,
,,,,,5f4a9eb861da210d3496cb34,001,61,Female,UK,Masters,2024-03-05_22h28.49.436,CRL1h,2023.2.3,Win32,59.88023952,65e67470ae2fbf2172c317b2,65e79a88027df4e53e14004c,,,,,,,,,,,544.9393,1.4,546.3376,546.3377,546.8383,right,0,0.4952,,546.8385,547.8373,1,13,29,14,1,total,2,images/Ex7.jpg,left,reversed,hard,1,,,,,
,,,,,5f4a9eb861da210d3496cb34,001,61,Female,UK,Masters,2024-03-05_22h28.49.436,CRL1h,2023.2.3,Win32,59.88023952,65e67470ae2fbf2172c317b2,65e79a88027df4e53e14004c,,,,,,,,,,,547.8394,1.4,549.2373,549.2375,549.9232,left,1,0.6799,,549.9232,550.922,1,14,30,5,1,total,2,images/Ex6.jpg,left,reversed,hard,1,,,,,
,,,,,5f4a9eb861da210d3496cb34,001,61,Female,UK,Masters,2024-03-05_22h28.49.436,CRL1h,2023.2.3,Win32,59.88023952,65e67470ae2fbf2172c317b2,65e79a88027df4e53e14004c,,,,,,,,,,,550.9234,1.1,552.0213,552.0216,553.2556,right,1,1.2268,,553.2558,554.2541,1,15,31,0,1,total,2,images/Ex1.jpg,right,reversed,hard,1,,,,,
,,,,,5f4a9eb861da210d3496cb34,001,61,Female,UK,Masters,2024-03-05_22h28.49.436,CRL1h,2023.2.3,Win32,59.88023952,65e67470ae2fbf2172c317b2,65e79a88027df4e53e14004c,,,,,,,,,,,554.256,1,555.2545,555.2546,555.7387,right,0,0.4704,,555.739,556.7377,2,0,32,13,1,total,2,images/Ex6.jpg,left,reversed,hard,1,,,,,
,,,,,5f4a9eb861da210d3496cb34,001,61,Female,UK,Masters,2024-03-05_22h28.49.436,CRL1h,2023.2.3,Win32,59.88023952,65e67470ae2fbf2172c317b2,65e79a88027df4e53e14004c,,,,,,,,,,,556.7395,1.3,558.0379,558.0381,558.6215,left,0,0.5769,,558.6218,559.6213,2,1,33,9,1,total,2,images/Ex2.jpg,right,reversed,hard,1,,,,,
,,,,,5f4a9eb861da210d3496cb34,001,61,Female,UK,Masters,2024-03-05_22h28.49.436,CRL1h,2023.2.3,Win32,59.88023952,65e67470ae2fbf2172c317b2,65e79a88027df4e53e14004c,,,,,,,,,,,559.6232,1.4,561.0211,561.0213,561.9555,right,1,0.92,,561.9558,562.9544,2,2,34,0,1,total,2,images/Ex1.jpg,right,reversed,hard,1,,,,,
,,,,,5f4a9eb861da210d3496cb34,001,61,Female,UK,Masters,2024-03-05_22h28.49.436,CRL1h,2023.2.3,Win32,59.88023952,65e67470ae2fbf2172c317b2,65e79a88027df4e53e14004c,,,,,,,,,,,562.9563,1.3,564.2543,564.2543,564.8557,right,1,0.587,,564.856,565.8542,2,3,35,2,1,total,2,images/Ex3.jpg,right,reversed,hard,1,,,,,
,,,,,5f4a9eb861da210d3496cb34,001,61,Female,UK,Masters,2024-03-05_22h28.49.436,CRL1h,2023.2.3,Win32,59.88023952,65e67470ae2fbf2172c317b2,65e79a88027df4e53e14004c,,,,,,,,,,,565.8563,0.6,566.4545,566.4547,567.0555,right,0,0.587,,567.0557,568.0547,2,4,36,15,1,total,2,images/Ex8.jpg,left,reversed,hard,1,,,,,
,,,,,5f4a9eb861da210d3496cb34,001,61,Female,UK,Masters,2024-03-05_22h28.49.436,CRL1h,2023.2.3,Win32,59.88023952,65e67470ae2fbf2172c317b2,65e79a88027df4e53e14004c,,,,,,,,,,,568.0564,0.5,568.5546,568.5548,569.1381,left,0,0.5733,,569.1384,570.1375,2,5,37,1,1,total,2,images/Ex2.jpg,right,reversed,hard,1,,,,,
,,,,,5f4a9eb861da210d3496cb34,001,61,Female,UK,Masters,2024-03-05_22h28.49.436,CRL1h,2023.2.3,Win32,59.88023952,65e67470ae2fbf2172c317b2,65e79a88027df4e53e14004c,,,,,,,,,,,570.1393,0.9,571.0377,571.038,571.5729,right,0,0.5255,,571.5731,572.5717,2,6,38,6,1,total,2,images/Ex7.jpg,left,reversed,hard,1,,,,,
,,,,,5f4a9eb861da210d3496cb34,001,61,Female,UK,Masters,2024-03-05_22h28.49.436,CRL1h,2023.2.3,Win32,59.88023952,65e67470ae2fbf2172c317b2,65e79a88027df4e53e14004c,,,,,,,,,,,572.5735,1.4,573.9712,573.9715,574.5886,left,1,0.6119,,574.5888,575.5878,2,7,39,7,1,total,2,images/Ex8.jpg,left,reversed,hard,1,,,,,
,,,,,5f4a9eb861da210d3496cb34,001,61,Female,UK,Masters,2024-03-05_22h28.49.436,CRL1h,2023.2.3,Win32,59.88023952,65e67470ae2fbf2172c317b2,65e79a88027df4e53e14004c,,,,,,,,,,,575.5897,1.3,576.8872,576.8876,577.489,left,1,0.5872,,577.4893,578.4882,2,8,40,5,1,total,2,images/Ex6.jpg,left,reversed,hard,1,,,,,
,,,,,5f4a9eb861da210d3496cb34,001,61,Female,UK,Masters,2024-03-05_22h28.49.436,CRL1h,2023.2.3,Win32,59.88023952,65e67470ae2fbf2172c317b2,65e79a88027df4e53e14004c,,,,,,,,,,,578.4899,0.9,579.3872,579.3873,579.9892,left,1,0.5972,,579.9895,580.9874,2,9,41,12,1,total,2,images/Ex5.jpg,left,reversed,hard,1,,,,,
,,,,,5f4a9eb861da210d3496cb34,001,61,Female,UK,Masters,2024-03-05_22h28.49.436,CRL1h,2023.2.3,Win32,59.88023952,65e67470ae2fbf2172c317b2,65e79a88027df4e53e14004c,,,,,,,,,,,580.9889,1,581.9873,581.9874,582.8053,left,0,0.8032,,582.8054,583.804,2,10,42,11,1,total,2,images/Ex4.jpg,right,reversed,hard,1,,,,,
,,,,,5f4a9eb861da210d3496cb34,001,61,Female,UK,Masters,2024-03-05_22h28.49.436,CRL1h,2023.2.3,Win32,59.88023952,65e67470ae2fbf2172c317b2,65e79a88027df4e53e14004c,,,,,,,,,,,583.8055,1.5,585.3036,585.3037,586.2217,right,0,0.903,,586.2219,587.2207,2,11,43,4,1,total,2,images/Ex5.jpg,left,reversed,hard,1,,,,,
,,,,,5f4a9eb861da210d3496cb34,001,61,Female,UK,Masters,2024-03-05_22h28.49.436,CRL1h,2023.2.3,Win32,59.88023952,65e67470ae2fbf2172c317b2,65e79a88027df4e53e14004c,,,,,,,,,,,587.2223,0.9,588.1208,588.121,588.955,left,0,0.8197,,588.9552,589.9541,2,12,44,10,1,total,2,images/Ex3.jpg,right,reversed,hard,1,,,,,
,,,,,5f4a9eb861da210d3496cb34,001,61,Female,UK,Masters,2024-03-05_22h28.49.436,CRL1h,2023.2.3,Win32,59.88023952,65e67470ae2fbf2172c317b2,65e79a88027df4e53e14004c,,,,,,,,,,,589.9556,1.4,591.3539,591.354,591.9382,right,1,0.5699,,591.9383,592.9374,2,13,45,3,1,total,2,images/Ex4.jpg,right,reversed,hard,1,,,,,
,,,,,5f4a9eb861da210d3496cb34,001,61,Female,UK,Masters,2024-03-05_22h28.49.436,CRL1h,2023.2.3,Win32,59.88023952,65e67470ae2fbf2172c317b2,65e79a88027df4e53e14004c,,,,,,,,,,,592.9387,1,593.9375,593.9376,594.7048,right,1,0.7634,,594.7049,595.7041,2,14,46,8,1,total,2,images/Ex1.jpg,right,reversed,hard,1,,,,,
,,,,,5f4a9eb861da210d3496cb34,001,61,Female,UK,Masters,2024-03-05_22h28.49.436,CRL1h,2023.2.3,Win32,59.88023952,65e67470ae2fbf2172c317b2,65e79a88027df4e53e14004c,,,,,,,,,,,595.7054,1,596.7043,596.7045,597.1884,right,0,0.4701,,597.1885,598.1873,2,15,47,14,1,total,2,images/Ex7.jpg,left,reversed,hard,1,,,,,
,,,,,5f4a9eb861da210d3496cb34,001,61,Female,UK,Masters,2024-03-05_22h28.49.436,CRL1h,2023.2.3,Win32,59.88023952,65e67470ae2fbf2172c317b2,65e79a88027df4e53e14004c,,,,,,,,,,,598.189,0.7,598.8874,598.8875,599.5042,left,0,0.6028,,599.5044,600.5041,3,0,48,9,1,total,2,images/Ex2.jpg,right,reversed,hard,1,,,,,
,,,,,5f4a9eb861da210d3496cb34,001,61,Female,UK,Masters,2024-03-05_22h28.49.436,CRL1h,2023.2.3,Win32,59.88023952,65e67470ae2fbf2172c317b2,65e79a88027df4e53e14004c,,,,,,,,,,,600.5055,1,601.5042,601.5044,602.1044,right,0,0.587,,602.1046,603.1039,3,1,49,5,1,total,2,images/Ex6.jpg,left,reversed,hard,1,,,,,
,,,,,5f4a9eb861da210d3496cb34,001,61,Female,UK,Masters,2024-03-05_22h28.49.436,CRL1h,2023.2.3,Win32,59.88023952,65e67470ae2fbf2172c317b2,65e79a88027df4e53e14004c,,,,,,,,,,,603.1057,0.6,603.6932,603.6932,604.3097,left,1,0.6157,,604.3098,605.3091,3,2,50,4,1,total,2,images/Ex5.jpg,left,reversed,hard,1,,,,,
,,,,,5f4a9eb861da210d3496cb34,001,61,Female,UK,Masters,2024-03-05_22h28.49.436,CRL1h,2023.2.3,Win32,59.88023952,65e67470ae2fbf2172c317b2,65e79a88027df4e53e14004c,,,,,,,,,,,605.3094,1.4,606.7088,606.7089,607.2761,left,1,0.5662,,607.2761,608.2757,3,3,51,15,1,total,2,images/Ex8.jpg,left,reversed,hard,1,,,,,
,,,,,5f4a9eb861da210d3496cb34,001,61,Female,UK,Masters,2024-03-05_22h28.49.436,CRL1h,2023.2.3,Win32,59.88023952,65e67470ae2fbf2172c317b2,65e79a88027df4e53e14004c,,,,,,,,,,,608.2761,0.6,608.8759,608.8759,609.892,left,0,1.0154,,609.892,610.8914,3,4,52,1,1,total,2,images/Ex2.jpg,right,reversed,hard,1,,,,,
,,,,,5f4a9eb861da210d3496cb34,001,61,Female,UK,Masters,2024-03-05_22h28.49.436,CRL1h,2023.2.3,Win32,59.88023952,65e67470ae2fbf2172c317b2,65e79a88027df4e53e14004c,,,,,,,,,,,610.8917,1,611.8911,611.8911,612.3752,right,1,0.4835,,612.3752,613.3745,3,5,53,0,1,total,2,images/Ex1.jpg,right,reversed,hard,1,,,,,
,,,,,5f4a9eb861da210d3496cb34,001,61,Female,UK,Masters,2024-03-05_22h28.49.436,CRL1h,2023.2.3,Win32,59.88023952,65e67470ae2fbf2172c317b2,65e79a88027df4e53e14004c,,,,,,,,,,,613.3748,0.7,614.0744,614.0744,615.092,right,1,1.017,,615.092,616.0916,3,6,54,3,1,total,2,images/Ex4.jpg,right,reversed,hard,1,,,,,
,,,,,5f4a9eb861da210d3496cb34,001,61,Female,UK,Masters,2024-03-05_22h28.49.436,CRL1h,2023.2.3,Win32,59.88023952,65e67470ae2fbf2172c317b2,65e79a88027df4e53e14004c,,,,,,,,,,,616.0919,1,617.0911,617.0912,618.0921,right,1,1.0003,,618.0921,619.0914,3,7,55,8,1,total,2,images/Ex1.jpg,right,reversed,hard,1,,,,,
,,,,,5f4a9eb861da210d3496cb34,001,61,Female,UK,Masters,2024-03-05_22h28.49.436,CRL1h,2023.2.3,Win32,59.88023952,65e67470ae2fbf2172c317b2,65e79a88027df4e53e14004c,,,,,,,,,,,619.0916,1.4,620.4915,620.4916,621.1425,right,0,0.6503,,621.1425,622.1413,3,8,56,6,1,total,2,images/Ex7.jpg,left,reversed,hard,1,,,,,
,,,,,5f4a9eb861da210d3496cb34,001,61,Female,UK,Masters,2024-03-05_22h28.49.436,CRL1h,2023.2.3,Win32,59.88023952,65e67470ae2fbf2172c317b2,65e79a88027df4e53e14004c,,,,,,,,,,,622.1416,1.2,623.3413,623.3414,623.842,left,0,0.5001,,623.842,624.8417,3,9,57,2,1,total,2,images/Ex3.jpg,right,reversed,hard,1,,,,,
,,,,,5f4a9eb861da210d3496cb34,001,61,Female,UK,Masters,2024-03-05_22h28.49.436,CRL1h,2023.2.3,Win32,59.88023952,65e67470ae2fbf2172c317b2,65e79a88027df4e53e14004c,,,,,,,,,,,624.8418,1.4,626.2415,626.2416,626.7421,right,0,0.5,,626.7422,627.7411,3,10,58,7,1,total,2,images/Ex8.jpg,left,reversed,hard,1,,,,,
,,,,,5f4a9eb861da210d3496cb34,001,61,Female,UK,Masters,2024-03-05_22h28.49.436,CRL1h,2023.2.3,Win32,59.88023952,65e67470ae2fbf2172c317b2,65e79a88027df4e53e14004c,,,,,,,,,,,627.7414,1.1,628.8419,628.8419,629.4097,left,1,0.5667,,629.4098,630.408,3,11,59,12,1,total,2,images/Ex5.jpg,left,reversed,hard,1,,,,,
,,,,,5f4a9eb861da210d3496cb34,001,61,Female,UK,Masters,2024-03-05_22h28.49.436,CRL1h,2023.2.3,Win32,59.88023952,65e67470ae2fbf2172c317b2,65e79a88027df4e53e14004c,,,,,,,,,,,630.4083,1.4,631.8079,631.8079,632.3256,left,0,0.5168,,632.3256,633.3246,3,12,60,11,1,total,2,images/Ex4.jpg,right,reversed,hard,1,,,,,
,,,,,5f4a9eb861da210d3496cb34,001,61,Female,UK,Masters,2024-03-05_22h28.49.436,CRL1h,2023.2.3,Win32,59.88023952,65e67470ae2fbf2172c317b2,65e79a88027df4e53e14004c,,,,,,,,,,,633.325,1.2,634.5247,634.5248,634.9586,right,0,0.4332,,634.9587,635.9584,3,13,61,13,1,total,2,images/Ex6.jpg,left,reversed,hard,1,,,,,
,,,,,5f4a9eb861da210d3496cb34,001,61,Female,UK,Masters,2024-03-05_22h28.49.436,CRL1h,2023.2.3,Win32,59.88023952,65e67470ae2fbf2172c317b2,65e79a88027df4e53e14004c,,,,,,,,,,,635.9587,1.2,637.1579,637.158,637.942,left,0,0.7833,,637.942,638.9417,3,14,62,10,1,total,2,images/Ex3.jpg,right,reversed,hard,1,,,,,
,,,,,5f4a9eb861da210d3496cb34,001,61,Female,UK,Masters,2024-03-05_22h28.49.436,CRL1h,2023.2.3,Win32,59.88023952,65e67470ae2fbf2172c317b2,65e79a88027df4e53e14004c,,,,,,,,,,,638.9418,1.4,640.3413,640.3413,641.2591,right,0,0.9169,,641.2591,642.2579,3,15,63,14,1,total,2,images/Ex7.jpg,left,reversed,hard,1,,,,,
,,,,,5f4a9eb861da210d3496cb34,001,61,Female,UK,Masters,2024-03-05_22h28.49.436,CRL1h,2023.2.3,Win32,59.88023952,65e67470ae2fbf2172c317b2,65e79a88027df4e53e14004c,,,,,,642.2585,648.2416,space,5.967,,648.2522,1.2,649.4424,649.4424,652.338,right,1,2.8935,,652.3383,653.3374,0,0,0,15,1,partial,1,images/Ex16.jpg,right,training,hard,1,,,,,
,,,,,5f4a9eb861da210d3496cb34,001,61,Female,UK,Masters,2024-03-05_22h28.49.436,CRL1h,2023.2.3,Win32,59.88023952,65e67470ae2fbf2172c317b2,65e79a88027df4e53e14004c,,,,,,,,,,,653.3486,0.6,653.9375,653.9377,654.7542,right,0,0.8122,,654.7544,655.754,0,1,1,9,1,partial,1,images/Ex10.jpg,left,training,hard,1,,,,,
,,,,,5f4a9eb861da210d3496cb34,001,61,Female,UK,Masters,2024-03-05_22h28.49.436,CRL1h,2023.2.3,Win32,59.88023952,65e67470ae2fbf2172c317b2,65e79a88027df4e53e14004c,,,,,,,,,,,655.7557,0.6,656.3538,656.3539,657.422,left,1,1.054,,657.4222,658.4202,0,2,2,8,1,partial,1,images/Ex9.jpg,left,training,hard,1,,,,,
,,,,,5f4a9eb861da210d3496cb34,001,61,Female,UK,Masters,2024-03-05_22h28.49.436,CRL1h,2023.2.3,Win32,59.88023952,65e67470ae2fbf2172c317b2,65e79a88027df4e53e14004c,,,,,,,,,,,658.4219,1.2,659.621,659.6212,660.4221,right,0,0.7879,,660.4223,661.4208,0,3,3,2,1,partial,1,images/Ex11.jpg,left,training,hard,1,,,,,
,,,,,5f4a9eb861da210d3496cb34,001,61,Female,UK,Masters,2024-03-05_22h28.49.436,CRL1h,2023.2.3,Win32,59.88023952,65e67470ae2fbf2172c317b2,65e79a88027df4e53e14004c,,,,,,,,,,,661.4224,1.2,662.6208,662.621,663.2539,left,1,0.6236,,663.254,664.2537,0,4,4,3,1,partial,1,images/Ex12.jpg,left,training,hard,1,,,,,
,,,,,5f4a9eb861da210d3496cb34,001,61,Female,UK,Masters,2024-03-05_22h28.49.436,CRL1h,2023.2.3,Win32,59.88023952,65e67470ae2fbf2172c317b2,65e79a88027df4e53e14004c,,,,,,,,,,,664.2548,1.2,665.4538,665.4539,666.0212,right,0,0.5538,,666.0213,667.0203,0,5,5,11,1,partial,1,images/Ex12.jpg,left,training,hard,1,,,,,
,,,,,5f4a9eb861da210d3496cb34,001,61,Female,UK,Masters,2024-03-05_22h28.49.436,CRL1h,2023.2.3,Win32,59.88023952,65e67470ae2fbf2172c317b2,65e79a88027df4e53e14004c,,,,,,,,,,,667.0216,0.7,667.7203,667.7204,668.4711,left,0,0.7457,,668.4713,669.47,0,6,6,13,1,partial,1,images/Ex14.jpg,right,training,hard,1,,,,,
,,,,,5f4a9eb861da210d3496cb34,001,61,Female,UK,Masters,2024-03-05_22h28.49.436,CRL1h,2023.2.3,Win32,59.88023952,65e67470ae2fbf2172c317b2,65e79a88027df4e53e14004c,,,,,,,,,,,669.4712,1.1,670.5709,670.571,671.2724,right,0,0.693,,671.2726,672.2709,0,7,7,1,1,partial,1,images/Ex10.jpg,left,training,hard,1,,,,,
,,,,,5f4a9eb861da210d3496cb34,001,61,Female,UK,Masters,2024-03-05_22h28.49.436,CRL1h,2023.2.3,Win32,59.88023952,65e67470ae2fbf2172c317b2,65e79a88027df4e53e14004c,,,,,,,,,,,672.2727,1.4,673.6711,673.6714,674.7043,right,0,1.022,,674.7044,675.7041,0,8,8,0,1,partial,1,images/Ex9.jpg,left,training,hard,1,,,,,
,,,,,5f4a9eb861da210d3496cb34,001,61,Female,UK,Masters,2024-03-05_22h28.49.436,CRL1h,2023.2.3,Win32,59.88023952,65e67470ae2fbf2172c317b2,65e79a88027df4e53e14004c,,,,,,,,,,,675.7056,0.6,676.3037,676.3038,677.0705,left,0,0.7563,,677.0705,678.07,0,9,9,6,1,partial,1,images/Ex15.jpg,right,training,hard,1,,,,,
,,,,,5f4a9eb861da210d3496cb34,001,61,Female,UK,Masters,2024-03-05_22h28.49.436,CRL1h,2023.2.3,Win32,59.88023952,65e67470ae2fbf2172c317b2,65e79a88027df4e53e14004c,,,,,,,,,,,678.0705,1.1,679.1702,679.1702,679.787,right,1,0.6139,,679.787,680.7869,0,10,10,12,1,partial,1,images/Ex13.jpg,right,training,hard,1,,,,,
,,,,,5f4a9eb861da210d3496cb34,001,61,Female,UK,Masters,2024-03-05_22h28.49.436,CRL1h,2023.2.3,Win32,59.88023952,65e67470ae2fbf2172c317b2,65e79a88027df4e53e14004c,,,,,,,,,,,680.7876,0.8,681.5866,681.5866,682.2034,right,1,0.6139,,682.2034,683.2036,0,11,11,7,1,partial,1,images/Ex16.jpg,right,training,hard,1,,,,,
,,,,,5f4a9eb861da210d3496cb34,001,61,Female,UK,Masters,2024-03-05_22h28.49.436,CRL1h,2023.2.3,Win32,59.88023952,65e67470ae2fbf2172c317b2,65e79a88027df4e53e14004c,,,,,,,,,,,683.204,1.1,684.3035,684.3036,684.8536,left,0,0.5365,,684.8537,685.8534,0,12,12,4,1,partial,1,images/Ex13.jpg,right,training,hard,1,,,,,
,,,,,5f4a9eb861da210d3496cb34,001,61,Female,UK,Masters,2024-03-05_22h28.49.436,CRL1h,2023.2.3,Win32,59.88023952,65e67470ae2fbf2172c317b2,65e79a88027df4e53e14004c,,,,,,,,,,,685.8537,0.6,686.4534,686.4534,687.1869,right,1,0.7261,,687.1869,688.1868,0,13,13,5,1,partial,1,images/Ex14.jpg,right,training,hard,1,,,,,
,,,,,5f4a9eb861da210d3496cb34,001,61,Female,UK,Masters,2024-03-05_22h28.49.436,CRL1h,2023.2.3,Win32,59.88023952,65e67470ae2fbf2172c317b2,65e79a88027df4e53e14004c,,,,,,,,,,,688.1873,0.6,688.7866,688.7866,689.5538,right,0,0.7639,,689.5539,690.5534,0,14,14,10,1,partial,1,images/Ex11.jpg,left,training,hard,1,,,,,
,,,,,5f4a9eb861da210d3496cb34,001,61,Female,UK,Masters,2024-03-05_22h28.49.436,CRL1h,2023.2.3,Win32,59.88023952,65e67470ae2fbf2172c317b2,65e79a88027df4e53e14004c,,,,,,,,,,,690.5536,1.4,691.9534,691.9534,692.6705,left,0,0.7031,,692.6705,693.67,0,15,15,14,1,partial,1,images/Ex15.jpg,right,training,hard,1,,,,,
,,,,,5f4a9eb861da210d3496cb34,001,61,Female,UK,Masters,2024-03-05_22h28.49.436,CRL1h,2023.2.3,Win32,59.88023952,65e67470ae2fbf2172c317b2,65e79a88027df4e53e14004c,,,,,,,,,,,693.6702,1.1,694.77,694.7701,695.3042,right,0,0.5211,,695.3042,696.3037,1,0,16,3,1,partial,1,images/Ex12.jpg,left,training,hard,1,,,,,
,,,,,5f4a9eb861da210d3496cb34,001,61,Female,UK,Masters,2024-03-05_22h28.49.436,CRL1h,2023.2.3,Win32,59.88023952,65e67470ae2fbf2172c317b2,65e79a88027df4e53e14004c,,,,,,,,,,,696.3044,1.5,697.8034,697.8034,698.7201,left,0,0.9055,,698.7202,699.7201,1,1,17,15,1,partial,1,images/Ex16.jpg,right,training,hard,1,,,,,
,,,,,5f4a9eb861da210d3496cb34,001,61,Female,UK,Masters,2024-03-05_22h28.49.436,CRL1h,2023.2.3,Win32,59.88023952,65e67470ae2fbf2172c317b2,65e79a88027df4e53e14004c,,,,,,,,,,,699.7206,0.7,700.42,700.42,701.2202,right,0,0.7936,,701.2203,702.2202,1,2,18,9,1,partial,1,images/Ex10.jpg,left,training,hard,1,,,,,
,,,,,5f4a9eb861da210d3496cb34,001,61,Female,UK,Masters,2024-03-05_22h28.49.436,CRL1h,2023.2.3,Win32,59.88023952,65e67470ae2fbf2172c317b2,65e79a88027df4e53e14004c,,,,,,,,,,,702.2208,1,703.2202,703.2203,703.9872,left,1,0.7567,,703.9872,704.9869,1,3,19,10,1,partial,1,images/Ex11.jpg,left,training,hard,1,,,,,
,,,,,5f4a9eb861da210d3496cb34,001,61,Female,UK,Masters,2024-03-05_22h28.49.436,CRL1h,2023.2.3,Win32,59.88023952,65e67470ae2fbf2172c317b2,65e79a88027df4e53e14004c,,,,,,,,,,,704.9873,1.3,706.2867,706.2867,706.9537,left,0,0.663,,706.9538,707.9533,1,4,20,14,1,partial,1,images/Ex15.jpg,right,training,hard,1,,,,,
,,,,,5f4a9eb861da210d3496cb34,001,61,Female,UK,Masters,2024-03-05_22h28.49.436,CRL1h,2023.2.3,Win32,59.88023952,65e67470ae2fbf2172c317b2,65e79a88027df4e53e14004c,,,,,,,,,,,707.9536,0.7,708.6535,708.6535,709.4539,right,0,0.7962,,709.4539,710.4534,1,5,21,1,1,partial,1,images/Ex10.jpg,left,training,hard,1,,,,,
,,,,,5f4a9eb861da210d3496cb34,001,61,Female,UK,Masters,2024-03-05_22h28.49.436,CRL1h,2023.2.3,Win32,59.88023952,65e67470ae2fbf2172c317b2,65e79a88027df4e53e14004c,,,,,,,,,,,710.4537,0.8,711.2534,711.2534,712.3537,left,0,1.087,,712.3538,713.3534,1,6,22,7,1,partial,1,images/Ex16.jpg,right,training,hard,1,,,,,
,,,,,5f4a9eb861da210d3496cb34,001,61,Female,UK,Masters,2024-03-05_22h28.49.436,CRL1h,2023.2.3,Win32,59.88023952,65e67470ae2fbf2172c317b2,65e79a88027df4e53e14004c,,,,,,,,,,,713.3537,0.8,714.1537,714.1537,714.8202,right,1,0.6622,,714.8202,715.8201,1,7,23,6,1,partial,1,images/Ex15.jpg,right,training,hard,1,,,,,
,,,,,5f4a9eb861da210d3496cb34,001,61,Female,UK,Masters,2024-03-05_22h28.49.436,CRL1h,2023.2.3,Win32,59.88023952,65e67470ae2fbf2172c317b2,65e79a88027df4e53e14004c,,,,,,,,,,,715.8206,0.8,716.62,716.62,717.7038,right,0,1.0704,,717.7039,718.7034,1,8,24,0,1,partial,1,images/Ex9.jpg,left,training,hard,1,,,,,
,,,,,5f4a9eb861da210d3496cb34,001,61,Female,UK,Masters,2024-03-05_22h28.49.436,CRL1h,2023.2.3,Win32,59.88023952,65e67470ae2fbf2172c317b2,65e79a88027df4e53e14004c,,,,,,,,,,,718.7037,1,719.7034,719.7034,720.4536,left,1,0.7401,,720.4538,721.4535,1,9,25,11,1,partial,1,images/Ex12.jpg,left,training,hard,1,,,,,
,,,,,5f4a9eb861da210d3496cb34,001,61,Female,UK,Masters,2024-03-05_22h28.49.436,CRL1h,2023.2.3,Win32,59.88023952,65e67470ae2fbf2172c317b2,65e79a88027df4e53e14004c,,,,,,,,,,,721.4538,1.3,722.7536,722.7536,723.4036,left,0,0.6396,,723.4037,724.4043,1,10,26,12,1,partial,1,images/Ex13.jpg,right,training,hard,1,,,,,
,,,,,5f4a9eb861da210d3496cb34,001,61,Female,UK,Masters,2024-03-05_22h28.49.436,CRL1h,2023.2.3,Win32,59.88023952,65e67470ae2fbf2172c317b2,65e79a88027df4e53e14004c,,,,,,,,,,,724.4063,1.2,725.604,725.6042,726.3884,right,0,0.7698,,726.3886,727.3869,1,11,27,2,1,partial,1,images/Ex11.jpg,left,training,hard,1,,,,,
,,,,,5f4a9eb861da210d3496cb34,001,61,Female,UK,Masters,2024-03-05_22h28.49.436,CRL1h,2023.2.3,Win32,59.88023952,65e67470ae2fbf2172c317b2,65e79a88027df4e53e14004c,,,,,,,,,,,727.3884,1,728.3878,728.3878,728.8548,left,1,0.4532,,728.855,729.8547,1,12,28,8,1,partial,1,images/Ex9.jpg,left,training,hard,1,,,,,
,,,,,5f4a9eb861da210d3496cb34,001,61,Female,UK,Masters,2024-03-05_22h28.49.436,CRL1h,2023.2.3,Win32,59.88023952,65e67470ae2fbf2172c317b2,65e79a88027df4e53e14004c,,,,,,,,,,,729.8563,1,730.8543,730.8544,731.7387,left,0,0.8706,,731.7389,732.7374,1,13,29,13,1,partial,1,images/Ex14.jpg,right,training,hard,1,,,,,
,,,,,5f4a9eb861da210d3496cb34,001,61,Female,UK,Masters,2024-03-05_22h28.49.436,CRL1h,2023.2.3,Win32,59.88023952,65e67470ae2fbf2172c317b2,65e79a88027df4e53e14004c,,,,,,,,,,,732.7388,0.8,733.537,733.5372,734.0383,right,1,0.4936,,734.0384,735.0372,1,14,30,5,1,partial,1,images/Ex14.jpg,right,training,hard,1,,,,,
,,,,,5f4a9eb861da210d3496cb34,001,61,Female,UK,Masters,2024-03-05_22h28.49.436,CRL1h,2023.2.3,Win32,59.88023952,65e67470ae2fbf2172c317b2,65e79a88027df4e53e14004c,,,,,,,,,,,735.0387,0.8,735.8366,735.8367,736.2713,right,1,0.4308,,736.2716,737.271,1,15,31,4,1,partial,1,images/Ex13.jpg,right,training,hard,1,,,,,
,,,,,5f4a9eb861da210d3496cb34,001,61,Female,UK,Masters,2024-03-05_22h28.49.436,CRL1h,2023.2.3,Win32,59.88023952,65e67470ae2fbf2172c317b2,65e79a88027df4e53e14004c,,,,,,,,,,,737.2729,0.5,737.7712,737.7713,738.6222,right,1,0.8428,,738.6224,739.621,2,0,32,6,1,partial,1,images/Ex15.jpg,right,training,hard,1,,,,,
,,,,,5f4a9eb861da210d3496cb34,001,61,Female,UK,Masters,2024-03-05_22h28.49.436,CRL1h,2023.2.3,Win32,59.88023952,65e67470ae2fbf2172c317b2,65e79a88027df4e53e14004c,,,,,,,,,,,739.6227,1.2,740.821,740.8212,741.5044,right,0,0.6692,,741.5045,742.5036,2,1,33,2,1,partial,1,images/Ex11.jpg,left,training,hard,1,,,,,
,,,,,5f4a9eb861da210d3496cb34,001,61,Female,UK,Masters,2024-03-05_22h28.49.436,CRL1h,2023.2.3,Win32,59.88023952,65e67470ae2fbf2172c317b2,65e79a88027df4e53e14004c,,,,,,,,,,,742.5051,1.4,743.9034,743.9034,745.1049,right,0,1.1903,,745.105,746.1038,2,2,34,10,1,partial,1,images/Ex11.jpg,left,training,hard,1,,,,,
,,,,,5f4a9eb861da210d3496cb34,001,61,Female,UK,Masters,2024-03-05_22h28.49.436,CRL1h,2023.2.3,Win32,59.88023952,65e67470ae2fbf2172c317b2,65e79a88027df4e53e14004c,,,,,,,,,,,746.1052,1.2,747.3036,747.3037,747.8713,left,1,0.5539,,747.8716,748.8704,2,3,35,8,1,partial,1,images/Ex9.jpg,left,training,hard,1,,,,,
,,,,,5f4a9eb861da210d3496cb34,001,61,Female,UK,Masters,2024-03-05_22h28.49.436,CRL1h,2023.2.3,Win32,59.88023952,65e67470ae2fbf2172c317b2,65e79a88027df4e53e14004c,,,,,,,,,,,748.8729,0.6,749.4707,749.4708,750.4213,left,1,0.9381,,750.4214,751.421,2,4,36,11,1,partial,1,images/Ex12.jpg,left,training,hard,1,,,,,
,,,,,5f4a9eb861da210d3496cb34,001,61,Female,UK,Masters,2024-03-05_22h28.49.436,CRL1h,2023.2.3,Win32,59.88023952,65e67470ae2fbf2172c317b2,65e79a88027df4e53e14004c,,,,,,,,,,,751.4228,0.7,752.1208,752.121,752.805,left,0,0.6739,,752.8051,753.8041,2,5,37,7,1,partial,1,images/Ex16.jpg,right,training,hard,1,,,,,
,,,,,5f4a9eb861da210d3496cb34,001,61,Female,UK,Masters,2024-03-05_22h28.49.436,CRL1h,2023.2.3,Win32,59.88023952,65e67470ae2fbf2172c317b2,65e79a88027df4e53e14004c,,,,,,,,,,,753.8054,0.9,754.7033,754.7033,755.4218,right,1,0.7059,,755.422,756.4201,2,6,38,15,1,partial,1,images/Ex16.jpg,right,training,hard,1,,,,,
,,,,,5f4a9eb861da210d3496cb34,001,61,Female,UK,Masters,2024-03-05_22h28.49.436,CRL1h,2023.2.3,Win32,59.88023952,65e67470ae2fbf2172c317b2,65e79a88027df4e53e14004c,,,,,,,,,,,756.4217,1.4,757.8202,757.8204,758.6376,left,0,0.8098,,758.6378,759.6368,2,7,39,4,1,partial,1,images/Ex13.jpg,right,training,hard,1,,,,,
,,,,,5f4a9eb861da210d3496cb34,001,61,Female,UK,Masters,2024-03-05_22h28.49.436,CRL1h,2023.2.3,Win32,59.88023952,65e67470ae2fbf2172c317b2,65e79a88027df4e53e14004c,,,,,,,,,,,759.6378,0.6,760.2372,760.2374,760.9713,right,0,0.7202,,760.9714,761.9702,2,8,40,1,1,partial,1,images/Ex10.jpg,left,training,hard,1,,,,,
,,,,,5f4a9eb861da210d3496cb34,001,61,Female,UK,Masters,2024-03-05_22h28.49.436,CRL1h,2023.2.3,Win32,59.88023952,65e67470ae2fbf2172c317b2,65e79a88027df4e53e14004c,,,,,,,,,,,761.9714,1.2,763.1701,763.1701,763.922,left,0,0.742,,763.9221,764.9203,2,9,41,12,1,partial,1,images/Ex13.jpg,right,training,hard,1,,,,,
,,,,,5f4a9eb861da210d3496cb34,001,61,Female,UK,Masters,2024-03-05_22h28.49.436,CRL1h,2023.2.3,Win32,59.88023952,65e67470ae2fbf2172c317b2,65e79a88027df4e53e14004c,,,,,,,,,,,764.9217,1,765.9201,765.9202,766.7544,right,0,0.8283,,766.7545,767.7542,2,10,42,3,1,partial,1,images/Ex12.jpg,left,training,hard,1,,,,,
,,,,,5f4a9eb861da210d3496cb34,001,61,Female,UK,Masters,2024-03-05_22h28.49.436,CRL1h,2023.2.3,Win32,59.88023952,65e67470ae2fbf2172c317b2,65e79a88027df4e53e14004c,,,,,,,,,,,767.7568,1.1,768.8541,768.8542,769.9218,left,0,1.0578,,769.922,770.9203,2,11,43,5,1,partial,1,images/Ex14.jpg,right,training,hard,1,,,,,
,,,,,5f4a9eb861da210d3496cb34,001,61,Female,UK,Masters,2024-03-05_22h28.49.436,CRL1h,2023.2.3,Win32,59.88023952,65e67470ae2fbf2172c317b2,65e79a88027df4e53e14004c,,,,,,,,,,,770.9303,1.2,772.121,772.1212,772.8215,right,0,0.6914,,772.8217,773.8208,2,12,44,9,1,partial,1,images/Ex10.jpg,left,training,hard,1,,,,,
,,,,,5f4a9eb861da210d3496cb34,001,61,Female,UK,Masters,2024-03-05_22h28.49.436,CRL1h,2023.2.3,Win32,59.88023952,65e67470ae2fbf2172c317b2,65e79a88027df4e53e14004c,,,,,,,,,,,773.8222,1.1,774.9206,774.9209,776.1043,left,0,1.1694,,776.1044,777.1034,2,13,45,13,1,partial,1,images/Ex14.jpg,right,training,hard,1,,,,,
,,,,,5f4a9eb861da210d3496cb34,001,61,Female,UK,Masters,2024-03-05_22h28.49.436,CRL1h,2023.2.3,Win32,59.88023952,65e67470ae2fbf2172c317b2,65e79a88027df4e53e14004c,,,,,,,,,,,777.1046,0.8,777.9036,777.9037,778.6045,right,1,0.69,,778.6047,779.6037,2,14,46,14,1,partial,1,images/Ex15.jpg,right,training,hard,1,,,,,
,,,,,5f4a9eb861da210d3496cb34,001,61,Female,UK,Masters,2024-03-05_22h28.49.436,CRL1h,2023.2.3,Win32,59.88023952,65e67470ae2fbf2172c317b2,65e79a88027df4e53e14004c,,,,,,,,,,,779.6048,0.9,780.5035,780.5037,781.3543,left,1,0.847,,781.3544,782.3537,2,15,47,0,1,partial,1,images/Ex9.jpg,left,training,hard,1,,,,,
,,,,,5f4a9eb861da210d3496cb34,001,61,Female,UK,Masters,2024-03-05_22h28.49.436,CRL1h,2023.2.3,Win32,59.88023952,65e67470ae2fbf2172c317b2,65e79a88027df4e53e14004c,,,,,,,,,,,782.3549,0.8,783.1544,783.1545,783.705,right,1,0.5469,,783.7052,784.7043,3,0,48,13,1,partial,1,images/Ex14.jpg,right,training,hard,1,,,,,
,,,,,5f4a9eb861da210d3496cb34,001,61,Female,UK,Masters,2024-03-05_22h28.49.436,CRL1h,2023.2.3,Win32,59.88023952,65e67470ae2fbf2172c317b2,65e79a88027df4e53e14004c,,,,,,,,,,,784.7058,1,785.7044,785.7045,786.4889,right,0,0.7702,,786.4891,787.4872,3,1,49,0,1,partial,1,images/Ex9.jpg,left,training,hard,1,,,,,
,,,,,5f4a9eb861da210d3496cb34,001,61,Female,UK,Masters,2024-03-05_22h28.49.436,CRL1h,2023.2.3,Win32,59.88023952,65e67470ae2fbf2172c317b2,65e79a88027df4e53e14004c,,,,,,,,,,,787.4886,1.2,788.6872,788.6872,789.154,left,1,0.4528,,789.1542,790.1534,3,2,50,3,1,partial,1,images/Ex12.jpg,left,training,hard,1,,,,,
,,,,,5f4a9eb861da210d3496cb34,001,61,Female,UK,Masters,2024-03-05_22h28.49.436,CRL1h,2023.2.3,Win32,59.88023952,65e67470ae2fbf2172c317b2,65e79a88027df4e53e14004c,,,,,,,,,,,790.1545,1,791.1536,791.1537,791.7882,left,0,0.6216,,791.7884,792.7869,3,3,51,15,1,partial,1,images/Ex16.jpg,right,training,hard,1,,,,,
,,,,,5f4a9eb861da210d3496cb34,001,61,Female,UK,Masters,2024-03-05_22h28.49.436,CRL1h,2023.2.3,Win32,59.88023952,65e67470ae2fbf2172c317b2,65e79a88027df4e53e14004c,,,,,,,,,,,792.7881,1.1,793.8871,793.8872,794.3888,right,0,0.4975,,794.389,795.3872,3,4,52,8,1,partial,1,images/Ex9.jpg,left,training,hard,1,,,,,
,,,,,5f4a9eb861da210d3496cb34,001,61,Female,UK,Masters,2024-03-05_22h28.49.436,CRL1h,2023.2.3,Win32,59.88023952,65e67470ae2fbf2172c317b2,65e79a88027df4e53e14004c,,,,,,,,,,,795.3884,0.6,795.9868,795.9869,797.0047,left,0,1.0108,,797.0048,798.0036,3,5,53,5,1,partial,1,images/Ex14.jpg,right,training,hard,1,,,,,
,,,,,5f4a9eb861da210d3496cb34,001,61,Female,UK,Masters,2024-03-05_22h28.49.436,CRL1h,2023.2.3,Win32,59.88023952,65e67470ae2fbf2172c317b2,65e79a88027df4e53e14004c,,,,,,,,,,,798.0047,0.7,798.7038,798.704,799.2217,right,1,0.5039,,799.2218,800.2208,3,6,54,7,1,partial,1,images/Ex16.jpg,right,training,hard,1,,,,,
,,,,,5f4a9eb861da210d3496cb34,001,61,Female,UK,Masters,2024-03-05_22h28.49.436,CRL1h,2023.2.3,Win32,59.88023952,65e67470ae2fbf2172c317b2,65e79a88027df4e53e14004c,,,,,,,,,,,800.2222,1,801.2203,801.2203,801.8045,right,0,0.5782,,801.8046,802.8036,3,7,55,9,1,partial,1,images/Ex10.jpg,left,training,hard,1,,,,,
,,,,,5f4a9eb861da210d3496cb34,001,61,Female,UK,Masters,2024-03-05_22h28.49.436,CRL1h,2023.2.3,Win32,59.88023952,65e67470ae2fbf2172c317b2,65e79a88027df4e53e14004c,,,,,,,,,,,802.8046,0.7,803.5039,803.504,804.3378,left,0,0.829,,804.338,805.3377,3,8,56,6,1,partial,1,images/Ex15.jpg,right,training,hard,1,,,,,
,,,,,5f4a9eb861da210d3496cb34,001,61,Female,UK,Masters,2024-03-05_22h28.49.436,CRL1h,2023.2.3,Win32,59.88023952,65e67470ae2fbf2172c317b2,65e79a88027df4e53e14004c,,,,,,,,,,,805.3391,1.3,806.6373,806.6375,807.1213,right,0,0.4725,,807.1215,808.1206,3,9,57,1,1,partial,1,images/Ex10.jpg,left,training,hard,1,,,,,
,,,,,5f4a9eb861da210d3496cb34,001,61,Female,UK,Masters,2024-03-05_22h28.49.436,CRL1h,2023.2.3,Win32,59.88023952,65e67470ae2fbf2172c317b2,65e79a88027df4e53e14004c,,,,,,,,,,,808.1222,0.9,809.0203,809.0204,809.8215,left,1,0.7918,,809.8217,810.8205,3,10,58,10,1,partial,1,images/Ex11.jpg,left,training,hard,1,,,,,
,,,,,5f4a9eb861da210d3496cb34,001,61,Female,UK,Masters,2024-03-05_22h28.49.436,CRL1h,2023.2.3,Win32,59.88023952,65e67470ae2fbf2172c317b2,65e79a88027df4e53e14004c,,,,,,,,,,,810.822,0.6,811.4204,811.4206,812.354,left,0,0.9239,,812.3543,813.3543,3,11,59,12,1,partial,1,images/Ex13.jpg,right,training,hard,1,,,,,
,,,,,5f4a9eb861da210d3496cb34,001,61,Female,UK,Masters,2024-03-05_22h28.49.436,CRL1h,2023.2.3,Win32,59.88023952,65e67470ae2fbf2172c317b2,65e79a88027df4e53e14004c,,,,,,,,,,,813.3556,0.6,813.9541,813.9542,814.6379,right,0,0.6701,,814.638,815.6369,3,12,60,11,1,partial,1,images/Ex12.jpg,left,training,hard,1,,,,,
,,,,,5f4a9eb861da210d3496cb34,001,61,Female,UK,Masters,2024-03-05_22h28.49.436,CRL1h,2023.2.3,Win32,59.88023952,65e67470ae2fbf2172c317b2,65e79a88027df4e53e14004c,,,,,,,,,,,815.6386,1.4,817.0375,817.0376,818.5713,right,0,1.5198,,818.5714,819.5704,3,13,61,2,1,partial,1,images/Ex11.jpg,left,training,hard,1,,,,,
,,,,,5f4a9eb861da210d3496cb34,001,61,Female,UK,Masters,2024-03-05_22h28.49.436,CRL1h,2023.2.3,Win32,59.88023952,65e67470ae2fbf2172c317b2,65e79a88027df4e53e14004c,,,,,,,,,,,819.5722,1.2,820.7745,820.7746,821.4384,left,0,0.6518,,821.4386,822.437,3,14,62,14,1,partial,1,images/Ex15.jpg,right,training,hard,1,,,,,
,,,,,5f4a9eb861da210d3496cb34,001,61,Female,UK,Masters,2024-03-05_22h28.49.436,CRL1h,2023.2.3,Win32,59.88023952,65e67470ae2fbf2172c317b2,65e79a88027df4e53e14004c,,,,,,,,,,,822.4384,1.3,823.7372,823.7372,824.2223,right,1,0.4795,,824.2226,825.2204,3,15,63,4,1,partial,1,images/Ex13.jpg,right,training,hard,1,,,,,
,,,,,5f4a9eb861da210d3496cb34,001,61,Female,UK,Masters,2024-03-05_22h28.49.436,CRL1h,2023.2.3,Win32,59.88023952,65e67470ae2fbf2172c317b2,65e79a88027df4e53e14004c,,,,,,,,,,,825.222,1.5,826.72,826.72,827.1717,right,0,0.4419,,827.1719,828.1705,4,0,64,11,1,partial,1,images/Ex12.jpg,left,training,hard,1,,,,,
,,,,,5f4a9eb861da210d3496cb34,001,61,Female,UK,Masters,2024-03-05_22h28.49.436,CRL1h,2023.2.3,Win32,59.88023952,65e67470ae2fbf2172c317b2,65e79a88027df4e53e14004c,,,,,,,,,,,828.1722,1.3,829.4702,829.4703,830.1713,left,0,0.6971,,830.1715,831.1705,4,1,65,7,1,partial,1,images/Ex16.jpg,right,training,hard,1,,,,,
,,,,,5f4a9eb861da210d3496cb34,001,61,Female,UK,Masters,2024-03-05_22h28.49.436,CRL1h,2023.2.3,Win32,59.88023952,65e67470ae2fbf2172c317b2,65e79a88027df4e53e14004c,,,,,,,,,,,831.1721,1.4,832.5704,832.5705,833.3045,right,0,0.7198,,833.3046,834.3044,4,2,66,9,1,partial,1,images/Ex10.jpg,left,training,hard,1,,,,,
,,,,,5f4a9eb861da210d3496cb34,001,61,Female,UK,Masters,2024-03-05_22h28.49.436,CRL1h,2023.2.3,Win32,59.88023952,65e67470ae2fbf2172c317b2,65e79a88027df4e53e14004c,,,,,,,,,,,834.3055,0.6,834.9036,834.9037,835.7042,left,1,0.7875,,835.7044,836.7037,4,3,67,8,1,partial,1,images/Ex9.jpg,left,training,hard,1,,,,,
,,,,,5f4a9eb861da210d3496cb34,001,61,Female,UK,Masters,2024-03-05_22h28.49.436,CRL1h,2023.2.3,Win32,59.88023952,65e67470ae2fbf2172c317b2,65e79a88027df4e53e14004c,,,,,,,,,,,836.7047,0.8,837.5035,837.5035,838.8381,right,0,1.3206,,838.8384,839.8368,4,4,68,2,1,partial,1,images/Ex11.jpg,left,training,hard,1,,,,,
,,,,,5f4a9eb861da210d3496cb34,001,61,Female,UK,Masters,2024-03-05_22h28.49.436,CRL1h,2023.2.3,Win32,59.88023952,65e67470ae2fbf2172c317b2,65e79a88027df4e53e14004c,,,,,,,,,,,839.838,1.3,841.1371,841.1372,841.6045,left,0,0.4538,,841.6047,842.6036,4,5,69,5,1,partial,1,images/Ex14.jpg,right,training,hard,1,,,,,
,,,,,5f4a9eb861da210d3496cb34,001,61,Female,UK,Masters,2024-03-05_22h28.49.436,CRL1h,2023.2.3,Win32,59.88023952,65e67470ae2fbf2172c317b2,65e79a88027df4e53e14004c,,,,,,,,,,,842.6048,1.4,844.0039,844.0042,844.688,right,0,0.6757,,844.6882,845.6875,4,6,70,10,1,partial,1,images/Ex11.jpg,left,training,hard,1,,,,,
,,,,,5f4a9eb861da210d3496cb34,001,61,Female,UK,Masters,2024-03-05_22h28.49.436,CRL1h,2023.2.3,Win32,59.88023952,65e67470ae2fbf2172c317b2,65e79a88027df4e53e14004c,,,,,,,,,,,845.6887,0.8,846.4869,846.4869,847.0881,left,0,0.589,,847.0882,848.0871,4,7,71,4,1,partial,1,images/Ex13.jpg,right,training,hard,1,,,,,
,,,,,5f4a9eb861da210d3496cb34,001,61,Female,UK,Masters,2024-03-05_22h28.49.436,CRL1h,2023.2.3,Win32,59.88023952,65e67470ae2fbf2172c317b2,65e79a88027df4e53e14004c,,,,,,,,,,,848.0884,1.5,849.5874,849.5876,850.9377,right,1,1.3394,,850.9378,851.9367,4,8,72,15,1,partial,1,images/Ex16.jpg,right,training,hard,1,,,,,
,,,,,5f4a9eb861da210d3496cb34,001,61,Female,UK,Masters,2024-03-05_22h28.49.436,CRL1h,2023.2.3,Win32,59.88023952,65e67470ae2fbf2172c317b2,65e79a88027df4e53e14004c,,,,,,,,,,,851.9378,1,852.9371,852.9371,853.7879,right,1,0.8464,,853.7881,854.7869,4,9,73,13,1,partial,1,images/Ex14.jpg,right,training,hard,1,,,,,
,,,,,5f4a9eb861da210d3496cb34,001,61,Female,UK,Masters,2024-03-05_22h28.49.436,CRL1h,2023.2.3,Win32,59.88023952,65e67470ae2fbf2172c317b2,65e79a88027df4e53e14004c,,,,,,,,,,,854.7882,0.7,855.4871,855.4871,856.2213,right,0,0.7211,,856.2215,857.2213,4,10,74,0,1,partial,1,images/Ex9.jpg,left,training,hard,1,,,,,
,,,,,5f4a9eb861da210d3496cb34,001,61,Female,UK,Masters,2024-03-05_22h28.49.436,CRL1h,2023.2.3,Win32,59.88023952,65e67470ae2fbf2172c317b2,65e79a88027df4e53e14004c,,,,,,,,,,,857.223,1.3,858.5206,858.5208,859.3881,left,1,0.8532,,859.3884,860.3875,4,11,75,3,1,partial,1,images/Ex12.jpg,left,training,hard,1,,,,,
,,,,,5f4a9eb861da210d3496cb34,001,61,Female,UK,Masters,2024-03-05_22h28.49.436,CRL1h,2023.2.3,Win32,59.88023952,65e67470ae2fbf2172c317b2,65e79a88027df4e53e14004c,,,,,,,,,,,860.3889,0.5,860.8873,860.8874,862.1047,left,0,1.2068,,862.1048,863.1056,4,12,76,14,1,partial,1,images/Ex15.jpg,right,training,hard,1,,,,,
,,,,,5f4a9eb861da210d3496cb34,001,61,Female,UK,Masters,2024-03-05_22h28.49.436,CRL1h,2023.2.3,Win32,59.88023952,65e67470ae2fbf2172c317b2,65e79a88027df4e53e14004c,,,,,,,,,,,863.113,1.1,864.2038,864.2039,864.7884,right,1,0.5708,,864.7886,865.7873,4,13,77,6,1,partial,1,images/Ex15.jpg,right,training,hard,1,,,,,
,,,,,5f4a9eb861da210d3496cb34,001,61,Female,UK,Masters,2024-03-05_22h28.49.436,CRL1h,2023.2.3,Win32,59.88023952,65e67470ae2fbf2172c317b2,65e79a88027df4e53e14004c,,,,,,,,,,,865.7888,1.4,867.1871,867.1872,868.4719,right,0,1.2707,,868.4721,869.4709,4,14,78,1,1,partial,1,images/Ex10.jpg,left,training,hard,1,,,,,
,,,,,5f4a9eb861da210d3496cb34,001,61,Female,UK,Masters,2024-03-05_22h28.49.436,CRL1h,2023.2.3,Win32,59.88023952,65e67470ae2fbf2172c317b2,65e79a88027df4e53e14004c,,,,,,,,,,,869.4724,0.6,870.0706,870.0707,871.1719,left,0,1.0864,,871.172,872.1702,4,15,79,12,1,partial,1,images/Ex13.jpg,right,training,hard,1,,,,,
,,,,,5f4a9eb861da210d3496cb34,001,61,Female,UK,Masters,2024-03-05_22h28.49.436,CRL1h,2023.2.3,Win32,59.88023952,65e67470ae2fbf2172c317b2,65e79a88027df4e53e14004c,,,,,,,,,,,872.1715,1,873.1705,873.1705,874.388,right,1,1.204,,874.3882,875.3868,5,0,80,7,1,partial,1,images/Ex16.jpg,right,training,hard,1,,,,,
,,,,,5f4a9eb861da210d3496cb34,001,61,Female,UK,Masters,2024-03-05_22h28.49.436,CRL1h,2023.2.3,Win32,59.88023952,65e67470ae2fbf2172c317b2,65e79a88027df4e53e14004c,,,,,,,,,,,875.388,0.5,875.8873,875.8874,877.038,right,0,1.1363,,877.0382,878.0367,5,1,81,0,1,partial,1,images/Ex9.jpg,left,training,hard,1,,,,,
,,,,,5f4a9eb861da210d3496cb34,001,61,Female,UK,Masters,2024-03-05_22h28.49.436,CRL1h,2023.2.3,Win32,59.88023952,65e67470ae2fbf2172c317b2,65e79a88027df4e53e14004c,,,,,,,,,,,878.0378,0.6,878.6368,878.6368,879.3713,left,1,0.7234,,879.3713,880.3705,5,2,82,2,1,partial,1,images/Ex11.jpg,left,training,hard,1,,,,,
,,,,,5f4a9eb861da210d3496cb34,001,61,Female,UK,Masters,2024-03-05_22h28.49.436,CRL1h,2023.2.3,Win32,59.88023952,65e67470ae2fbf2172c317b2,65e79a88027df4e53e14004c,,,,,,,,,,,880.3719,1.1,881.4708,881.471,882.0879,left,0,0.6054,,882.088,883.087,5,3,83,13,1,partial,1,images/Ex14.jpg,right,training,hard,1,,,,,
,,,,,5f4a9eb861da210d3496cb34,001,61,Female,UK,Masters,2024-03-05_22h28.49.436,CRL1h,2023.2.3,Win32,59.88023952,65e67470ae2fbf2172c317b2,65e79a88027df4e53e14004c,,,,,,,,,,,883.0884,0.8,883.8868,883.8869,884.8046,right,0,0.9124,,884.8047,885.8079,5,4,84,11,1,partial,1,images/Ex12.jpg,left,training,hard,1,,,,,
,,,,,5f4a9eb861da210d3496cb34,001,61,Female,UK,Masters,2024-03-05_22h28.49.436,CRL1h,2023.2.3,Win32,59.88023952,65e67470ae2fbf2172c317b2,65e79a88027df4e53e14004c,,,,,,,,,,,885.8082,0.9,886.7035,886.7036,887.2045,left,1,0.4873,,887.2046,888.2037,5,5,85,10,1,partial,1,images/Ex11.jpg,left,training,hard,1,,,,,
,,,,,5f4a9eb861da210d3496cb34,001,61,Female,UK,Masters,2024-03-05_22h28.49.436,CRL1h,2023.2.3,Win32,59.88023952,65e67470ae2fbf2172c317b2,65e79a88027df4e53e14004c,,,,,,,,,,,888.2049,0.6,888.8037,888.8038,889.4719,right,1,0.6544,,889.4721,890.471,5,6,86,12,1,partial,1,images/Ex13.jpg,right,training,hard,1,,,,,
,,,,,5f4a9eb861da210d3496cb34,001,61,Female,UK,Masters,2024-03-05_22h28.49.436,CRL1h,2023.2.3,Win32,59.88023952,65e67470ae2fbf2172c317b2,65e79a88027df4e53e14004c,,,,,,,,,,,890.4723,0.5,890.9712,890.9714,892.4721,right,0,1.4908,,892.4724,893.4708,5,7,87,8,1,partial,1,images/Ex9.jpg,left,training,hard,1,,,,,
,,,,,5f4a9eb861da210d3496cb34,001,61,Female,UK,Masters,2024-03-05_22h28.49.436,CRL1h,2023.2.3,Win32,59.88023952,65e67470ae2fbf2172c317b2,65e79a88027df4e53e14004c,,,,,,,,,,,893.4793,0.8,894.2707,894.2709,895.5221,right,1,1.2448,,895.5223,896.5201,5,8,88,15,1,partial,1,images/Ex16.jpg,right,training,hard,1,,,,,
,,,,,5f4a9eb861da210d3496cb34,001,61,Female,UK,Masters,2024-03-05_22h28.49.436,CRL1h,2023.2.3,Win32,59.88023952,65e67470ae2fbf2172c317b2,65e79a88027df4e53e14004c,,,,,,,,,,,896.5218,1.2,897.7205,897.7206,898.6221,right,0,0.8893,,898.6224,899.6204,5,9,89,1,1,partial,1,images/Ex10.jpg,left,training,hard,1,,,,,
,,,,,5f4a9eb861da210d3496cb34,001,61,Female,UK,Masters,2024-03-05_22h28.49.436,CRL1h,2023.2.3,Win32,59.88023952,65e67470ae2fbf2172c317b2,65e79a88027df4e53e14004c,,,,,,,,,,,899.6219,0.6,900.2202,900.2203,900.9714,left,1,0.7455,,900.9716,901.9705,5,10,90,3,1,partial,1,images/Ex12.jpg,left,training,hard,1,,,,,
,,,,,5f4a9eb861da210d3496cb34,001,61,Female,UK,Masters,2024-03-05_22h28.49.436,CRL1h,2023.2.3,Win32,59.88023952,65e67470ae2fbf2172c317b2,65e79a88027df4e53e14004c,,,,,,,,,,,901.9721,0.8,902.7706,902.7709,903.9881,left,1,1.2034,,903.9881,904.9874,5,11,91,9,1,partial,1,images/Ex10.jpg,left,training,hard,1,,,,,
,,,,,5f4a9eb861da210d3496cb34,001,61,Female,UK,Masters,2024-03-05_22h28.49.436,CRL1h,2023.2.3,Win32,59.88023952,65e67470ae2fbf2172c317b2,65e79a88027df4e53e14004c,,,,,,,,,,,904.9889,1.4,906.3878,906.3878,906.9554,left,0,0.5534,,906.9556,907.9544,5,12,92,4,1,partial,1,images/Ex13.jpg,right,training,hard,1,,,,,
,,,,,5f4a9eb861da210d3496cb34,001,61,Female,UK,Masters,2024-03-05_22h28.49.436,CRL1h,2023.2.3,Win32,59.88023952,65e67470ae2fbf2172c317b2,65e79a88027df4e53e14004c,,,,,,,,,,,907.9559,1.1,909.0537,909.0538,909.7226,right,1,0.6598,,909.7228,910.7208,5,13,93,5,1,partial,1,images/Ex14.jpg,right,training,hard,1,,,,,
,,,,,5f4a9eb861da210d3496cb34,001,61,Female,UK,Masters,2024-03-05_22h28.49.436,CRL1h,2023.2.3,Win32,59.88023952,65e67470ae2fbf2172c317b2,65e79a88027df4e53e14004c,,,,,,,,,,,910.722,1,911.7206,911.7206,912.3046,right,1,0.5755,,912.3048,913.3038,5,14,94,6,1,partial,1,images/Ex15.jpg,right,training,hard,1,,,,,
,,,,,5f4a9eb861da210d3496cb34,001,61,Female,UK,Masters,2024-03-05_22h28.49.436,CRL1h,2023.2.3,Win32,59.88023952,65e67470ae2fbf2172c317b2,65e79a88027df4e53e14004c,,,,,,,,,,,913.3049,1.1,914.4039,914.404,914.9547,right,1,0.5417,,914.9548,915.9545,5,15,95,14,1,partial,1,images/Ex15.jpg,right,training,hard,1,,,,,
,,,,,5f4a9eb861da210d3496cb34,001,61,Female,UK,Masters,2024-03-05_22h28.49.436,CRL1h,2023.2.3,Win32,59.88023952,65e67470ae2fbf2172c317b2,65e79a88027df4e53e14004c,,,,,,,,,,,915.956,1.1,917.0541,917.0542,917.5722,left,0,0.5048,,917.5724,918.5705,6,0,96,14,1,partial,1,images/Ex15.jpg,right,training,hard,1,,,,,
,,,,,5f4a9eb861da210d3496cb34,001,61,Female,UK,Masters,2024-03-05_22h28.49.436,CRL1h,2023.2.3,Win32,59.88023952,65e67470ae2fbf2172c317b2,65e79a88027df4e53e14004c,,,,,,,,,,,918.5719,1.1,919.6705,919.6705,920.2545,right,0,0.5699,,920.2547,921.2536,6,1,97,10,1,partial,1,images/Ex11.jpg,left,training,hard,1,,,,,
,,,,,5f4a9eb861da210d3496cb34,001,61,Female,UK,Masters,2024-03-05_22h28.49.436,CRL1h,2023.2.3,Win32,59.88023952,65e67470ae2fbf2172c317b2,65e79a88027df4e53e14004c,,,,,,,,,,,921.2547,1,922.2536,922.2537,922.9877,left,1,0.7206,,922.9878,923.9871,6,2,98,1,1,partial,1,images/Ex10.jpg,left,training,hard,1,,,,,
,,,,,5f4a9eb861da210d3496cb34,001,61,Female,UK,Masters,2024-03-05_22h28.49.436,CRL1h,2023.2.3,Win32,59.88023952,65e67470ae2fbf2172c317b2,65e79a88027df4e53e14004c,,,,,,,,,,,923.9883,0.6,924.5873,924.5873,925.2222,left,1,0.6296,,925.2224,926.2202,6,3,99,9,1,partial,1,images/Ex10.jpg,left,training,hard,1,,,,,
,,,,,5f4a9eb861da210d3496cb34,001,61,Female,UK,Masters,2024-03-05_22h28.49.436,CRL1h,2023.2.3,Win32,59.88023952,65e67470ae2fbf2172c317b2,65e79a88027df4e53e14004c,,,,,,,,,,,926.2214,1.1,927.3206,927.3207,928.2879,right,0,0.9529,,928.2881,929.2871,6,4,100,3,1,partial,1,images/Ex12.jpg,left,training,hard,1,,,,,
,,,,,5f4a9eb861da210d3496cb34,001,61,Female,UK,Masters,2024-03-05_22h28.49.436,CRL1h,2023.2.3,Win32,59.88023952,65e67470ae2fbf2172c317b2,65e79a88027df4e53e14004c,,,,,,,,,,,929.2881,1.4,930.6873,930.6874,931.2379,left,0,0.5361,,931.238,932.2371,6,5,101,13,1,partial,1,images/Ex14.jpg,right,training,hard,1,,,,,
,,,,,5f4a9eb861da210d3496cb34,001,61,Female,UK,Masters,2024-03-05_22h28.49.436,CRL1h,2023.2.3,Win32,59.88023952,65e67470ae2fbf2172c317b2,65e79a88027df4e53e14004c,,,,,,,,,,,932.2381,1.3,933.5374,933.5375,934.1225,right,0,0.57,,934.1226,935.1204,6,6,102,0,1,partial,1,images/Ex9.jpg,left,training,hard,1,,,,,
,,,,,5f4a9eb861da210d3496cb34,001,61,Female,UK,Masters,2024-03-05_22h28.49.436,CRL1h,2023.2.3,Win32,59.88023952,65e67470ae2fbf2172c317b2,65e79a88027df4e53e14004c,,,,,,,,,,,935.1219,0.9,936.0204,936.0205,936.6723,left,0,0.6452,,936.6724,937.6707,6,7,103,4,1,partial,1,images/Ex13.jpg,right,training,hard,1,,,,,
,,,,,5f4a9eb861da210d3496cb34,001,61,Female,UK,Masters,2024-03-05_22h28.49.436,CRL1h,2023.2.3,Win32,59.88023952,65e67470ae2fbf2172c317b2,65e79a88027df4e53e14004c,,,,,,,,,,,937.6721,1.1,938.7705,938.7707,939.6053,right,1,0.8206,,939.6054,940.6037,6,8,104,5,1,partial,1,images/Ex14.jpg,right,training,hard,1,,,,,
,,,,,5f4a9eb861da210d3496cb34,001,61,Female,UK,Masters,2024-03-05_22h28.49.436,CRL1h,2023.2.3,Win32,59.88023952,65e67470ae2fbf2172c317b2,65e79a88027df4e53e14004c,,,,,,,,,,,940.6048,1.3,941.9037,941.9037,942.5382,right,1,0.6201,,942.5383,943.5373,6,9,105,12,1,partial,1,images/Ex13.jpg,right,training,hard,1,,,,,
,,,,,5f4a9eb861da210d3496cb34,001,61,Female,UK,Masters,2024-03-05_22h28.49.436,CRL1h,2023.2.3,Win32,59.88023952,65e67470ae2fbf2172c317b2,65e79a88027df4e53e14004c,,,,,,,,,,,943.5388,1.4,944.9373,944.9374,946.2047,left,0,1.257,,946.2049,947.2035,6,10,106,15,1,partial,1,images/Ex16.jpg,right,training,hard,1,,,,,
,,,,,5f4a9eb861da210d3496cb34,001,61,Female,UK,Masters,2024-03-05_22h28.49.436,CRL1h,2023.2.3,Win32,59.88023952,65e67470ae2fbf2172c317b2,65e79a88027df4e53e14004c,,,,,,,,,,,947.2047,0.9,948.1038,948.1039,948.9547,right,0,0.8418,,948.9548,949.9541,6,11,107,2,1,partial,1,images/Ex11.jpg,left,training,hard,1,,,,,
,,,,,5f4a9eb861da210d3496cb34,001,61,Female,UK,Masters,2024-03-05_22h28.49.436,CRL1h,2023.2.3,Win32,59.88023952,65e67470ae2fbf2172c317b2,65e79a88027df4e53e14004c,,,,,,,,,,,949.9555,1.1,951.054,951.0542,951.7551,left,1,0.6863,,951.7553,952.7541,6,12,108,8,1,partial,1,images/Ex9.jpg,left,training,hard,1,,,,,
,,,,,5f4a9eb861da210d3496cb34,001,61,Female,UK,Masters,2024-03-05_22h28.49.436,CRL1h,2023.2.3,Win32,59.88023952,65e67470ae2fbf2172c317b2,65e79a88027df4e53e14004c,,,,,,,,,,,952.7552,0.9,953.6544,953.6546,954.5226,left,0,0.8617,,954.5228,955.5208,6,13,109,7,1,partial,1,images/Ex16.jpg,right,training,hard,1,,,,,
,,,,,5f4a9eb861da210d3496cb34,001,61,Female,UK,Masters,2024-03-05_22h28.49.436,CRL1h,2023.2.3,Win32,59.88023952,65e67470ae2fbf2172c317b2,65e79a88027df4e53e14004c,,,,,,,,,,,955.5223,1,956.5212,956.5214,957.2714,right,1,0.7457,,957.2716,958.2713,6,14,110,6,1,partial,1,images/Ex15.jpg,right,training,hard,1,,,,,
,,,,,5f4a9eb861da210d3496cb34,001,61,Female,UK,Masters,2024-03-05_22h28.49.436,CRL1h,2023.2.3,Win32,59.88023952,65e67470ae2fbf2172c317b2,65e79a88027df4e53e14004c,,,,,,,,,,,958.2732,0.8,959.071,959.0711,960.5383,left,1,1.4538,,960.5384,961.5372,6,15,111,11,1,partial,1,images/Ex12.jpg,left,training,hard,1,,,,,
,,,,,5f4a9eb861da210d3496cb34,001,61,Female,UK,Masters,2024-03-05_22h28.49.436,CRL1h,2023.2.3,Win32,59.88023952,65e67470ae2fbf2172c317b2,65e79a88027df4e53e14004c,,,,,,,,,,,961.547,0.7,962.2369,962.2371,964.2219,left,1,1.9707,,964.222,965.2206,7,0,112,1,1,partial,1,images/Ex10.jpg,left,training,hard,1,,,,,
,,,,,5f4a9eb861da210d3496cb34,001,61,Female,UK,Masters,2024-03-05_22h28.49.436,CRL1h,2023.2.3,Win32,59.88023952,65e67470ae2fbf2172c317b2,65e79a88027df4e53e14004c,,,,,,,,,,,965.2223,0.7,965.9213,965.9214,967.0888,left,0,1.1531,,967.089,968.0873,7,1,113,7,1,partial,1,images/Ex16.jpg,right,training,hard,1,,,,,
,,,,,5f4a9eb861da210d3496cb34,001,61,Female,UK,Masters,2024-03-05_22h28.49.436,CRL1h,2023.2.3,Win32,59.88023952,65e67470ae2fbf2172c317b2,65e79a88027df4e53e14004c,,,,,,,,,,,968.0887,0.6,968.6874,968.6875,969.4551,right,1,0.7533,,969.4552,970.4546,7,2,114,4,1,partial,1,images/Ex13.jpg,right,training,hard,1,,,,,
,,,,,5f4a9eb861da210d3496cb34,001,61,Female,UK,Masters,2024-03-05_22h28.49.436,CRL1h,2023.2.3,Win32,59.88023952,65e67470ae2fbf2172c317b2,65e79a88027df4e53e14004c,,,,,,,,,,,970.4563,1.2,971.6582,971.6582,972.8223,left,1,1.1589,,972.8227,973.8211,7,3,115,3,1,partial,1,images/Ex12.jpg,left,training,hard,1,,,,,
,,,,,5f4a9eb861da210d3496cb34,001,61,Female,UK,Masters,2024-03-05_22h28.49.436,CRL1h,2023.2.3,Win32,59.88023952,65e67470ae2fbf2172c317b2,65e79a88027df4e53e14004c,,,,,,,,,,,973.8229,1.4,975.2213,975.2213,975.8718,right,1,0.6355,,975.8719,976.8706,7,4,116,13,1,partial,1,images/Ex14.jpg,right,training,hard,1,,,,,
,,,,,5f4a9eb861da210d3496cb34,001,61,Female,UK,Masters,2024-03-05_22h28.49.436,CRL1h,2023.2.3,Win32,59.88023952,65e67470ae2fbf2172c317b2,65e79a88027df4e53e14004c,,,,,,,,,,,976.8723,0.9,977.7711,977.7712,979.2722,right,1,1.4864,,979.2724,980.2702,7,5,117,6,1,partial,1,images/Ex15.jpg,right,training,hard,1,,,,,
,,,,,5f4a9eb861da210d3496cb34,001,61,Female,UK,Masters,2024-03-05_22h28.49.436,CRL1h,2023.2.3,Win32,59.88023952,65e67470ae2fbf2172c317b2,65e79a88027df4e53e14004c,,,,,,,,,,,980.2716,1.4,981.6708,981.6709,982.5548,right,0,0.8695,,982.5549,983.5542,7,6,118,9,1,partial,1,images/Ex10.jpg,left,training,hard,1,,,,,
,,,,,5f4a9eb861da210d3496cb34,001,61,Female,UK,Masters,2024-03-05_22h28.49.436,CRL1h,2023.2.3,Win32,59.88023952,65e67470ae2fbf2172c317b2,65e79a88027df4e53e14004c,,,,,,,,,,,983.5554,1,984.5539,984.554,986.3041,left,1,1.7459,,986.3043,987.3041,7,7,119,11,1,partial,1,images/Ex12.jpg,left,training,hard,1,,,,,
,,,,,5f4a9eb861da210d3496cb34,001,61,Female,UK,Masters,2024-03-05_22h28.49.436,CRL1h,2023.2.3,Win32,59.88023952,65e67470ae2fbf2172c317b2,65e79a88027df4e53e14004c,,,,,,,,,,,987.3055,0.5,987.8039,987.8039,989.4389,right,1,1.62,,989.4391,990.4373,7,8,120,12,1,partial,1,images/Ex13.jpg,right,training,hard,1,,,,,
,,,,,5f4a9eb861da210d3496cb34,001,61,Female,UK,Masters,2024-03-05_22h28.49.436,CRL1h,2023.2.3,Win32,59.88023952,65e67470ae2fbf2172c317b2,65e79a88027df4e53e14004c,,,,,,,,,,,990.4386,0.7,991.1375,991.1376,991.9719,right,1,0.8203,,991.9721,992.971,7,9,121,5,1,partial,1,images/Ex14.jpg,right,training,hard,1,,,,,
,,,,,5f4a9eb861da210d3496cb34,001,61,Female,UK,Masters,2024-03-05_22h28.49.436,CRL1h,2023.2.3,Win32,59.88023952,65e67470ae2fbf2172c317b2,65e79a88027df4e53e14004c,,,,,,,,,,,992.9726,0.5,993.4706,993.4709,994.3374,left,1,0.8575,,994.3376,995.337,7,10,122,8,1,partial,1,images/Ex9.jpg,left,training,hard,1,,,,,
,,,,,5f4a9eb861da210d3496cb34,001,61,Female,UK,Masters,2024-03-05_22h28.49.436,CRL1h,2023.2.3,Win32,59.88023952,65e67470ae2fbf2172c317b2,65e79a88027df4e53e14004c,,,,,,,,,,,995.338,0.7,996.0372,996.0373,996.9719,right,1,0.9201,,996.9721,997.9703,7,11,123,14,1,partial,1,images/Ex15.jpg,right,training,hard,1,,,,,
,,,,,5f4a9eb861da210d3496cb34,001,61,Female,UK,Masters,2024-03-05_22h28.49.436,CRL1h,2023.2.3,Win32,59.88023952,65e67470ae2fbf2172c317b2,65e79a88027df4e53e14004c,,,,,,,,,,,997.9716,1.4,999.3702,999.3702,1000.4228,right,0,1.0421,,1000.4229,1001.4205,7,12,124,2,1,partial,1,images/Ex11.jpg,left,training,hard,1,,,,,
,,,,,5f4a9eb861da210d3496cb34,001,61,Female,UK,Masters,2024-03-05_22h28.49.436,CRL1h,2023.2.3,Win32,59.88023952,65e67470ae2fbf2172c317b2,65e79a88027df4e53e14004c,,,,,,,,,,,1001.4218,0.6,1002.021,1002.0211,1002.572,left,1,0.5454,,1002.5722,1003.5712,7,13,125,10,1,partial,1,images/Ex11.jpg,left,training,hard,1,,,,,
,,,,,5f4a9eb861da210d3496cb34,001,61,Female,UK,Masters,2024-03-05_22h28.49.436,CRL1h,2023.2.3,Win32,59.88023952,65e67470ae2fbf2172c317b2,65e79a88027df4e53e14004c,,,,,,,,,,,1003.573,0.8,1004.3711,1004.3712,1005.3226,left,0,0.9372,,1005.3228,1006.3214,7,14,126,15,1,partial,1,images/Ex16.jpg,right,training,hard,1,,,,,
,,,,,5f4a9eb861da210d3496cb34,001,61,Female,UK,Masters,2024-03-05_22h28.49.436,CRL1h,2023.2.3,Win32,59.88023952,65e67470ae2fbf2172c317b2,65e79a88027df4e53e14004c,,,,,,,,,,,1006.3233,1.2,1007.5206,1007.5207,1008.2055,right,0,0.6733,,1008.2057,1009.2042,7,15,127,0,1,partial,1,images/Ex9.jpg,left,training,hard,1,,,,,
,,,,,5f4a9eb861da210d3496cb34,001,61,Female,UK,Masters,2024-03-05_22h28.49.436,CRL1h,2023.2.3,Win32,59.88023952,65e67470ae2fbf2172c317b2,65e79a88027df4e53e14004c,,,,,,,,,,,1009.2131,0.8,1010.0045,1010.0046,1010.5044,right,0,0.4916,,1010.5045,1011.5044,0,0,0,5,1,partial,2,images/Ex14.jpg,left,reversed,hard,1,,,,,
