infCons.started,infCons.stopped,resp_consent.keys,resp_consent.rt,resp_consent.duration,participant,session,Age?,Gender?,Nationality?,Highest Educational Degree?,date,expName,psychopyVersion,OS,frameRate,STUDY_ID,SESSION_ID,instructions.started,instructions.stopped,resp_instructions.keys,resp_instructions.rt,resp_instructions.duration,nextTask.started,nextTask.stopped,ready_task.keys,ready_task.rt,ready_task.duration,fixation.started,ITI,fixation.stopped,stim.started,stim.stopped,response.keys,response.corr,response.rt,response.duration,feedback.started,feedback.stopped,trials.thisRepN,trials.thisTrialN,trials.thisN,trials.thisIndex,trials.ran,task,phase,Exemplars,r_correct,condition,difficulty,set,end.started,end.stopped,resp_end.keys,resp_end.rt,resp_end.duration
0.0004,36.9181,space,36.8288,,612b6389df1f3d38677d06f2,001,34,female,Zimbabwean,Masters,2024-03-05_22h39.30.561,CRL1h,2023.2.3,Win32,60.24096386,65e67470ae2fbf2172c317b2,65e79a8f7357ea00136af8a8,,,,,,,,,,,,,,,,,,,,,,,,,,,,,,,,,,,,,,
,,,,,612b6389df1f3d38677d06f2,001,34,female,Zimbabwean,Masters,2024-03-05_22h39.30.561,CRL1h,2023.2.3,Win32,60.24096386,65e67470ae2fbf2172c317b2,65e79a8f7357ea00136af8a8,36.9188,553.8971,space,516.9442,,,,,,,,,,,,,,,,,,,,,,,,,,,,,,,,,,
,,,,,612b6389df1f3d38677d06f2,001,34,female,Zimbabwean,Masters,2024-03-05_22h39.30.561,CRL1h,2023.2.3,Win32,60.24096386,65e67470ae2fbf2172c317b2,65e79a8f7357ea00136af8a8,,,,,,553.9223,557.682,space,3.7332,,557.71,1.4,559.1053,559.1067,562.7468,left,1,3.5963,,562.7842,563.7543,0,0,0,11,1,partial,1,images/Ex12.jpg,left,training,hard,1,,,,,
,,,,,612b6389df1f3d38677d06f2,001,34,female,Zimbabwean,Masters,2024-03-05_22h39.30.561,CRL1h,2023.2.3,Win32,60.24096386,65e67470ae2fbf2172c317b2,65e79a8f7357ea00136af8a8,,,,,,,,,,,563.7564,0.9,564.6528,564.6529,565.401,right,1,0.7446,,565.401,566.3987,0,1,1,4,1,partial,1,images/Ex13.jpg,right,training,hard,1,,,,,
,,,,,612b6389df1f3d38677d06f2,001,34,female,Zimbabwean,Masters,2024-03-05_22h39.30.561,CRL1h,2023.2.3,Win32,60.24096386,65e67470ae2fbf2172c317b2,65e79a8f7357ea00136af8a8,,,,,,,,,,,566.4002,0.7,567.0973,567.0973,567.8354,left,1,0.7348,,567.8365,568.8339,0,2,2,3,1,partial,1,images/Ex12.jpg,left,training,hard,1,,,,,
,,,,,612b6389df1f3d38677d06f2,001,34,female,Zimbabwean,Masters,2024-03-05_22h39.30.561,CRL1h,2023.2.3,Win32,60.24096386,65e67470ae2fbf2172c317b2,65e79a8f7357ea00136af8a8,,,,,,,,,,,568.8352,0.8,569.6271,569.6273,570.695,right,0,1.0632,,570.6951,571.6905,0,3,3,8,1,partial,1,images/Ex9.jpg,left,training,hard,1,,,,,
,,,,,612b6389df1f3d38677d06f2,001,34,female,Zimbabwean,Masters,2024-03-05_22h39.30.561,CRL1h,2023.2.3,Win32,60.24096386,65e67470ae2fbf2172c317b2,65e79a8f7357ea00136af8a8,,,,,,,,,,,571.694,0.9,572.5918,572.5919,573.5656,left,0,0.9698,,573.5657,574.5556,0,4,4,5,1,partial,1,images/Ex14.jpg,right,training,hard,1,,,,,
,,,,,612b6389df1f3d38677d06f2,001,34,female,Zimbabwean,Masters,2024-03-05_22h39.30.561,CRL1h,2023.2.3,Win32,60.24096386,65e67470ae2fbf2172c317b2,65e79a8f7357ea00136af8a8,,,,,,,,,,,574.5565,1.4,575.956,575.9561,576.9459,right,0,0.985,,576.9461,577.9423,0,5,5,2,1,partial,1,images/Ex11.jpg,left,training,hard,1,,,,,
,,,,,612b6389df1f3d38677d06f2,001,34,female,Zimbabwean,Masters,2024-03-05_22h39.30.561,CRL1h,2023.2.3,Win32,60.24096386,65e67470ae2fbf2172c317b2,65e79a8f7357ea00136af8a8,,,,,,,,,,,577.9436,1.1,579.0373,579.0373,579.7673,left,1,0.7272,,579.7675,580.7634,0,6,6,9,1,partial,1,images/Ex10.jpg,left,training,hard,1,,,,,
,,,,,612b6389df1f3d38677d06f2,001,34,female,Zimbabwean,Masters,2024-03-05_22h39.30.561,CRL1h,2023.2.3,Win32,60.24096386,65e67470ae2fbf2172c317b2,65e79a8f7357ea00136af8a8,,,,,,,,,,,580.7646,0.6,581.3795,581.3795,582.9163,right,1,1.5331,,582.9165,583.9173,0,7,7,7,1,partial,1,images/Ex16.jpg,right,training,hard,1,,,,,
,,,,,612b6389df1f3d38677d06f2,001,34,female,Zimbabwean,Masters,2024-03-05_22h39.30.561,CRL1h,2023.2.3,Win32,60.24096386,65e67470ae2fbf2172c317b2,65e79a8f7357ea00136af8a8,,,,,,,,,,,583.9224,1.3,585.2108,585.2112,586.2757,left,1,1.0597,,586.2758,587.2727,0,8,8,1,1,partial,1,images/Ex10.jpg,left,training,hard,1,,,,,
,,,,,612b6389df1f3d38677d06f2,001,34,female,Zimbabwean,Masters,2024-03-05_22h39.30.561,CRL1h,2023.2.3,Win32,60.24096386,65e67470ae2fbf2172c317b2,65e79a8f7357ea00136af8a8,,,,,,,,,,,587.2739,1.2,588.4643,588.4643,588.9832,right,1,0.517,,588.9833,589.9729,0,9,9,6,1,partial,1,images/Ex15.jpg,right,training,hard,1,,,,,
,,,,,612b6389df1f3d38677d06f2,001,34,female,Zimbabwean,Masters,2024-03-05_22h39.30.561,CRL1h,2023.2.3,Win32,60.24096386,65e67470ae2fbf2172c317b2,65e79a8f7357ea00136af8a8,,,,,,,,,,,589.9749,1.1,591.0678,591.068,591.546,left,0,0.4716,,591.5461,592.539,0,10,10,15,1,partial,1,images/Ex16.jpg,right,training,hard,1,,,,,
,,,,,612b6389df1f3d38677d06f2,001,34,female,Zimbabwean,Masters,2024-03-05_22h39.30.561,CRL1h,2023.2.3,Win32,60.24096386,65e67470ae2fbf2172c317b2,65e79a8f7357ea00136af8a8,,,,,,,,,,,592.5394,1,593.5424,593.5424,594.3966,left,0,0.8509,,594.3966,595.3926,0,11,11,12,1,partial,1,images/Ex13.jpg,right,training,hard,1,,,,,
,,,,,612b6389df1f3d38677d06f2,001,34,female,Zimbabwean,Masters,2024-03-05_22h39.30.561,CRL1h,2023.2.3,Win32,60.24096386,65e67470ae2fbf2172c317b2,65e79a8f7357ea00136af8a8,,,,,,,,,,,595.3948,1.1,596.4916,596.4917,597.1071,right,1,0.6116,,597.1072,598.1023,0,12,12,13,1,partial,1,images/Ex14.jpg,right,training,hard,1,,,,,
,,,,,612b6389df1f3d38677d06f2,001,34,female,Zimbabwean,Masters,2024-03-05_22h39.30.561,CRL1h,2023.2.3,Win32,60.24096386,65e67470ae2fbf2172c317b2,65e79a8f7357ea00136af8a8,,,,,,,,,,,598.1067,1.5,599.6063,599.6064,600.617,right,0,1.0073,,600.6173,601.6241,0,13,13,0,1,partial,1,images/Ex9.jpg,left,training,hard,1,,,,,
,,,,,612b6389df1f3d38677d06f2,001,34,female,Zimbabwean,Masters,2024-03-05_22h39.30.561,CRL1h,2023.2.3,Win32,60.24096386,65e67470ae2fbf2172c317b2,65e79a8f7357ea00136af8a8,,,,,,,,,,,601.6262,1.1,602.7249,602.725,603.7932,left,1,1.0631,,603.7933,604.7872,0,14,14,10,1,partial,1,images/Ex11.jpg,left,training,hard,1,,,,,
,,,,,612b6389df1f3d38677d06f2,001,34,female,Zimbabwean,Masters,2024-03-05_22h39.30.561,CRL1h,2023.2.3,Win32,60.24096386,65e67470ae2fbf2172c317b2,65e79a8f7357ea00136af8a8,,,,,,,,,,,604.7894,1.1,605.8961,605.8962,606.715,left,0,0.8147,,606.7155,607.7222,0,15,15,14,1,partial,1,images/Ex15.jpg,right,training,hard,1,,,,,
,,,,,612b6389df1f3d38677d06f2,001,34,female,Zimbabwean,Masters,2024-03-05_22h39.30.561,CRL1h,2023.2.3,Win32,60.24096386,65e67470ae2fbf2172c317b2,65e79a8f7357ea00136af8a8,,,,,,,,,,,607.7231,0.6,608.3238,608.3239,609.0337,right,1,0.7049,,609.0339,610.0244,1,0,16,4,1,partial,1,images/Ex13.jpg,right,training,hard,1,,,,,
,,,,,612b6389df1f3d38677d06f2,001,34,female,Zimbabwean,Masters,2024-03-05_22h39.30.561,CRL1h,2023.2.3,Win32,60.24096386,65e67470ae2fbf2172c317b2,65e79a8f7357ea00136af8a8,,,,,,,,,,,610.026,1.1,611.1223,611.1225,612.315,left,1,1.1866,,612.3151,613.3101,1,1,17,2,1,partial,1,images/Ex11.jpg,left,training,hard,1,,,,,
,,,,,612b6389df1f3d38677d06f2,001,34,female,Zimbabwean,Masters,2024-03-05_22h39.30.561,CRL1h,2023.2.3,Win32,60.24096386,65e67470ae2fbf2172c317b2,65e79a8f7357ea00136af8a8,,,,,,,,,,,613.3124,1.4,614.7061,614.7061,615.6016,left,0,0.8946,,615.6016,616.6067,1,2,18,7,1,partial,1,images/Ex16.jpg,right,training,hard,1,,,,,
,,,,,612b6389df1f3d38677d06f2,001,34,female,Zimbabwean,Masters,2024-03-05_22h39.30.561,CRL1h,2023.2.3,Win32,60.24096386,65e67470ae2fbf2172c317b2,65e79a8f7357ea00136af8a8,,,,,,,,,,,616.6072,1.1,617.7062,617.7062,618.3893,left,1,0.6767,,618.3893,619.3896,1,3,19,8,1,partial,1,images/Ex9.jpg,left,training,hard,1,,,,,
,,,,,612b6389df1f3d38677d06f2,001,34,female,Zimbabwean,Masters,2024-03-05_22h39.30.561,CRL1h,2023.2.3,Win32,60.24096386,65e67470ae2fbf2172c317b2,65e79a8f7357ea00136af8a8,,,,,,,,,,,619.3901,0.6,619.9888,619.9888,620.838,right,1,0.8436,,620.838,621.8395,1,4,20,6,1,partial,1,images/Ex15.jpg,right,training,hard,1,,,,,
,,,,,612b6389df1f3d38677d06f2,001,34,female,Zimbabwean,Masters,2024-03-05_22h39.30.561,CRL1h,2023.2.3,Win32,60.24096386,65e67470ae2fbf2172c317b2,65e79a8f7357ea00136af8a8,,,,,,,,,,,621.8406,0.8,622.6421,622.6422,623.5211,left,1,0.8743,,623.5212,624.5239,1,5,21,10,1,partial,1,images/Ex11.jpg,left,training,hard,1,,,,,
,,,,,612b6389df1f3d38677d06f2,001,34,female,Zimbabwean,Masters,2024-03-05_22h39.30.561,CRL1h,2023.2.3,Win32,60.24096386,65e67470ae2fbf2172c317b2,65e79a8f7357ea00136af8a8,,,,,,,,,,,624.5247,1.1,625.6212,625.6212,626.6085,left,1,0.985,,626.6089,627.6002,1,6,22,11,1,partial,1,images/Ex12.jpg,left,training,hard,1,,,,,
,,,,,612b6389df1f3d38677d06f2,001,34,female,Zimbabwean,Masters,2024-03-05_22h39.30.561,CRL1h,2023.2.3,Win32,60.24096386,65e67470ae2fbf2172c317b2,65e79a8f7357ea00136af8a8,,,,,,,,,,,627.6005,1.3,628.9037,628.9037,629.6997,left,1,0.7944,,629.6998,630.6997,1,7,23,3,1,partial,1,images/Ex12.jpg,left,training,hard,1,,,,,
,,,,,612b6389df1f3d38677d06f2,001,34,female,Zimbabwean,Masters,2024-03-05_22h39.30.561,CRL1h,2023.2.3,Win32,60.24096386,65e67470ae2fbf2172c317b2,65e79a8f7357ea00136af8a8,,,,,,,,,,,630.7008,1.1,631.7995,631.7995,632.5335,right,1,0.7323,,632.5336,633.5246,1,8,24,5,1,partial,1,images/Ex14.jpg,right,training,hard,1,,,,,
,,,,,612b6389df1f3d38677d06f2,001,34,female,Zimbabwean,Masters,2024-03-05_22h39.30.561,CRL1h,2023.2.3,Win32,60.24096386,65e67470ae2fbf2172c317b2,65e79a8f7357ea00136af8a8,,,,,,,,,,,633.5265,1.3,634.8207,634.8208,635.4642,right,1,0.6408,,635.4643,636.4426,1,9,25,13,1,partial,1,images/Ex14.jpg,right,training,hard,1,,,,,
,,,,,612b6389df1f3d38677d06f2,001,34,female,Zimbabwean,Masters,2024-03-05_22h39.30.561,CRL1h,2023.2.3,Win32,60.24096386,65e67470ae2fbf2172c317b2,65e79a8f7357ea00136af8a8,,,,,,,,,,,636.4445,1.1,637.543,637.5431,638.3362,right,1,0.7893,,638.3364,639.3431,1,10,26,12,1,partial,1,images/Ex13.jpg,right,training,hard,1,,,,,
,,,,,612b6389df1f3d38677d06f2,001,34,female,Zimbabwean,Masters,2024-03-05_22h39.30.561,CRL1h,2023.2.3,Win32,60.24096386,65e67470ae2fbf2172c317b2,65e79a8f7357ea00136af8a8,,,,,,,,,,,639.3449,0.6,639.9442,639.9444,640.9783,right,1,1.0287,,640.9785,641.9757,1,11,27,14,1,partial,1,images/Ex15.jpg,right,training,hard,1,,,,,
,,,,,612b6389df1f3d38677d06f2,001,34,female,Zimbabwean,Masters,2024-03-05_22h39.30.561,CRL1h,2023.2.3,Win32,60.24096386,65e67470ae2fbf2172c317b2,65e79a8f7357ea00136af8a8,,,,,,,,,,,641.9804,0.7,642.6721,642.6722,643.3357,left,1,0.6594,,643.3358,644.3241,1,12,28,1,1,partial,1,images/Ex10.jpg,left,training,hard,1,,,,,
,,,,,612b6389df1f3d38677d06f2,001,34,female,Zimbabwean,Masters,2024-03-05_22h39.30.561,CRL1h,2023.2.3,Win32,60.24096386,65e67470ae2fbf2172c317b2,65e79a8f7357ea00136af8a8,,,,,,,,,,,644.325,0.8,645.1235,645.1236,646.3804,left,0,1.2548,,646.3805,647.3772,1,13,29,15,1,partial,1,images/Ex16.jpg,right,training,hard,1,,,,,
,,,,,612b6389df1f3d38677d06f2,001,34,female,Zimbabwean,Masters,2024-03-05_22h39.30.561,CRL1h,2023.2.3,Win32,60.24096386,65e67470ae2fbf2172c317b2,65e79a8f7357ea00136af8a8,,,,,,,,,,,647.3817,0.8,648.1811,648.1812,648.7752,right,0,0.5911,,648.7753,649.7748,1,14,30,0,1,partial,1,images/Ex9.jpg,left,training,hard,1,,,,,
,,,,,612b6389df1f3d38677d06f2,001,34,female,Zimbabwean,Masters,2024-03-05_22h39.30.561,CRL1h,2023.2.3,Win32,60.24096386,65e67470ae2fbf2172c317b2,65e79a8f7357ea00136af8a8,,,,,,,,,,,649.7759,0.8,650.5573,650.5574,651.1019,left,1,0.5375,,651.102,652.0961,1,15,31,9,1,partial,1,images/Ex10.jpg,left,training,hard,1,,,,,
,,,,,612b6389df1f3d38677d06f2,001,34,female,Zimbabwean,Masters,2024-03-05_22h39.30.561,CRL1h,2023.2.3,Win32,60.24096386,65e67470ae2fbf2172c317b2,65e79a8f7357ea00136af8a8,,,,,,,,,,,652.0989,0.7,652.7901,652.7905,653.4093,left,0,0.6157,,653.4095,654.4028,2,0,32,4,1,partial,1,images/Ex13.jpg,right,training,hard,1,,,,,
,,,,,612b6389df1f3d38677d06f2,001,34,female,Zimbabwean,Masters,2024-03-05_22h39.30.561,CRL1h,2023.2.3,Win32,60.24096386,65e67470ae2fbf2172c317b2,65e79a8f7357ea00136af8a8,,,,,,,,,,,654.4032,0.7,655.1032,655.1033,655.6565,left,0,0.5441,,655.6565,656.6552,2,1,33,5,1,partial,1,images/Ex14.jpg,right,training,hard,1,,,,,
,,,,,612b6389df1f3d38677d06f2,001,34,female,Zimbabwean,Masters,2024-03-05_22h39.30.561,CRL1h,2023.2.3,Win32,60.24096386,65e67470ae2fbf2172c317b2,65e79a8f7357ea00136af8a8,,,,,,,,,,,656.6587,0.5,657.1608,657.161,657.8307,left,1,0.6661,,657.8308,658.8211,2,2,34,1,1,partial,1,images/Ex10.jpg,left,training,hard,1,,,,,
,,,,,612b6389df1f3d38677d06f2,001,34,female,Zimbabwean,Masters,2024-03-05_22h39.30.561,CRL1h,2023.2.3,Win32,60.24096386,65e67470ae2fbf2172c317b2,65e79a8f7357ea00136af8a8,,,,,,,,,,,658.822,1.2,660.0133,660.0133,660.6584,right,1,0.6425,,660.6584,661.6583,2,3,35,14,1,partial,1,images/Ex15.jpg,right,training,hard,1,,,,,
,,,,,612b6389df1f3d38677d06f2,001,34,female,Zimbabwean,Masters,2024-03-05_22h39.30.561,CRL1h,2023.2.3,Win32,60.24096386,65e67470ae2fbf2172c317b2,65e79a8f7357ea00136af8a8,,,,,,,,,,,661.6599,1.1,662.757,662.757,663.368,left,1,0.6077,,663.3681,664.3437,2,4,36,11,1,partial,1,images/Ex12.jpg,left,training,hard,1,,,,,
,,,,,612b6389df1f3d38677d06f2,001,34,female,Zimbabwean,Masters,2024-03-05_22h39.30.561,CRL1h,2023.2.3,Win32,60.24096386,65e67470ae2fbf2172c317b2,65e79a8f7357ea00136af8a8,,,,,,,,,,,664.3462,0.5,664.8514,664.8515,665.5193,left,1,0.6605,,665.5195,666.511,2,5,37,9,1,partial,1,images/Ex10.jpg,left,training,hard,1,,,,,
,,,,,612b6389df1f3d38677d06f2,001,34,female,Zimbabwean,Masters,2024-03-05_22h39.30.561,CRL1h,2023.2.3,Win32,60.24096386,65e67470ae2fbf2172c317b2,65e79a8f7357ea00136af8a8,,,,,,,,,,,666.5122,1.2,667.7098,667.7098,668.3031,right,0,0.5872,,668.3032,669.2934,2,6,38,0,1,partial,1,images/Ex9.jpg,left,training,hard,1,,,,,
,,,,,612b6389df1f3d38677d06f2,001,34,female,Zimbabwean,Masters,2024-03-05_22h39.30.561,CRL1h,2023.2.3,Win32,60.24096386,65e67470ae2fbf2172c317b2,65e79a8f7357ea00136af8a8,,,,,,,,,,,669.2944,0.7,669.9908,669.9908,670.6079,right,0,0.6123,,670.608,671.6108,2,7,39,10,1,partial,1,images/Ex11.jpg,left,training,hard,1,,,,,
,,,,,612b6389df1f3d38677d06f2,001,34,female,Zimbabwean,Masters,2024-03-05_22h39.30.561,CRL1h,2023.2.3,Win32,60.24096386,65e67470ae2fbf2172c317b2,65e79a8f7357ea00136af8a8,,,,,,,,,,,671.6126,0.6,672.2031,672.2034,672.7112,left,0,0.5031,,672.7114,673.7,2,8,40,6,1,partial,1,images/Ex15.jpg,right,training,hard,1,,,,,
,,,,,612b6389df1f3d38677d06f2,001,34,female,Zimbabwean,Masters,2024-03-05_22h39.30.561,CRL1h,2023.2.3,Win32,60.24096386,65e67470ae2fbf2172c317b2,65e79a8f7357ea00136af8a8,,,,,,,,,,,673.7003,1.4,675.0999,675.1,675.5941,left,0,0.492,,675.5941,676.5921,2,9,41,7,1,partial,1,images/Ex16.jpg,right,training,hard,1,,,,,
,,,,,612b6389df1f3d38677d06f2,001,34,female,Zimbabwean,Masters,2024-03-05_22h39.30.561,CRL1h,2023.2.3,Win32,60.24096386,65e67470ae2fbf2172c317b2,65e79a8f7357ea00136af8a8,,,,,,,,,,,676.5931,1.4,677.9916,677.9917,678.677,right,0,0.6817,,678.6772,679.6782,2,10,42,2,1,partial,1,images/Ex11.jpg,left,training,hard,1,,,,,
,,,,,612b6389df1f3d38677d06f2,001,34,female,Zimbabwean,Masters,2024-03-05_22h39.30.561,CRL1h,2023.2.3,Win32,60.24096386,65e67470ae2fbf2172c317b2,65e79a8f7357ea00136af8a8,,,,,,,,,,,679.6803,0.8,680.4752,680.4752,681.1546,left,0,0.6757,,681.1547,682.1564,2,11,43,12,1,partial,1,images/Ex13.jpg,right,training,hard,1,,,,,
,,,,,612b6389df1f3d38677d06f2,001,34,female,Zimbabwean,Masters,2024-03-05_22h39.30.561,CRL1h,2023.2.3,Win32,60.24096386,65e67470ae2fbf2172c317b2,65e79a8f7357ea00136af8a8,,,,,,,,,,,682.1615,1.2,683.3597,683.3598,684.0035,left,0,0.6391,,684.0037,685.0084,2,12,44,13,1,partial,1,images/Ex14.jpg,right,training,hard,1,,,,,
,,,,,612b6389df1f3d38677d06f2,001,34,female,Zimbabwean,Masters,2024-03-05_22h39.30.561,CRL1h,2023.2.3,Win32,60.24096386,65e67470ae2fbf2172c317b2,65e79a8f7357ea00136af8a8,,,,,,,,,,,685.0102,1.3,686.3078,686.3079,686.6159,right,0,0.3045,,686.6162,687.612,2,13,45,8,1,partial,1,images/Ex9.jpg,left,training,hard,1,,,,,
,,,,,612b6389df1f3d38677d06f2,001,34,female,Zimbabwean,Masters,2024-03-05_22h39.30.561,CRL1h,2023.2.3,Win32,60.24096386,65e67470ae2fbf2172c317b2,65e79a8f7357ea00136af8a8,,,,,,,,,,,687.6138,1.5,689.1022,689.1023,689.6437,left,0,0.5367,,689.6438,690.626,2,14,46,15,1,partial,1,images/Ex16.jpg,right,training,hard,1,,,,,
,,,,,612b6389df1f3d38677d06f2,001,34,female,Zimbabwean,Masters,2024-03-05_22h39.30.561,CRL1h,2023.2.3,Win32,60.24096386,65e67470ae2fbf2172c317b2,65e79a8f7357ea00136af8a8,,,,,,,,,,,690.6293,1,691.6236,691.6236,692.2638,left,1,0.6365,,692.2642,693.2528,2,15,47,3,1,partial,1,images/Ex12.jpg,left,training,hard,1,,,,,
,,,,,612b6389df1f3d38677d06f2,001,34,female,Zimbabwean,Masters,2024-03-05_22h39.30.561,CRL1h,2023.2.3,Win32,60.24096386,65e67470ae2fbf2172c317b2,65e79a8f7357ea00136af8a8,,,,,,,,,,,693.2571,0.9,694.1556,694.1557,694.7336,left,0,0.5711,,694.7337,695.7219,3,0,48,13,1,partial,1,images/Ex14.jpg,right,training,hard,1,,,,,
,,,,,612b6389df1f3d38677d06f2,001,34,female,Zimbabwean,Masters,2024-03-05_22h39.30.561,CRL1h,2023.2.3,Win32,60.24096386,65e67470ae2fbf2172c317b2,65e79a8f7357ea00136af8a8,,,,,,,,,,,695.7232,1.2,696.9076,696.9097,697.4847,right,0,0.5703,,697.4847,698.4748,3,1,49,2,1,partial,1,images/Ex11.jpg,left,training,hard,1,,,,,
,,,,,612b6389df1f3d38677d06f2,001,34,female,Zimbabwean,Masters,2024-03-05_22h39.30.561,CRL1h,2023.2.3,Win32,60.24096386,65e67470ae2fbf2172c317b2,65e79a8f7357ea00136af8a8,,,,,,,,,,,698.4756,1.2,699.675,699.675,700.045,left,1,0.3665,,700.0451,701.0297,3,2,50,8,1,partial,1,images/Ex9.jpg,left,training,hard,1,,,,,
,,,,,612b6389df1f3d38677d06f2,001,34,female,Zimbabwean,Masters,2024-03-05_22h39.30.561,CRL1h,2023.2.3,Win32,60.24096386,65e67470ae2fbf2172c317b2,65e79a8f7357ea00136af8a8,,,,,,,,,,,701.0304,1.3,702.3228,702.3231,703.1758,right,1,0.8486,,703.1758,704.1726,3,3,51,14,1,partial,1,images/Ex15.jpg,right,training,hard,1,,,,,
,,,,,612b6389df1f3d38677d06f2,001,34,female,Zimbabwean,Masters,2024-03-05_22h39.30.561,CRL1h,2023.2.3,Win32,60.24096386,65e67470ae2fbf2172c317b2,65e79a8f7357ea00136af8a8,,,,,,,,,,,704.1752,0.7,704.8732,704.8733,705.4067,left,0,0.5158,,705.4115,706.4062,3,4,52,12,1,partial,1,images/Ex13.jpg,right,training,hard,1,,,,,
,,,,,612b6389df1f3d38677d06f2,001,34,female,Zimbabwean,Masters,2024-03-05_22h39.30.561,CRL1h,2023.2.3,Win32,60.24096386,65e67470ae2fbf2172c317b2,65e79a8f7357ea00136af8a8,,,,,,,,,,,706.4114,0.6,707.0063,707.0064,707.4747,left,1,0.4436,,707.4748,708.4728,3,5,53,10,1,partial,1,images/Ex11.jpg,left,training,hard,1,,,,,
,,,,,612b6389df1f3d38677d06f2,001,34,female,Zimbabwean,Masters,2024-03-05_22h39.30.561,CRL1h,2023.2.3,Win32,60.24096386,65e67470ae2fbf2172c317b2,65e79a8f7357ea00136af8a8,,,,,,,,,,,708.4749,1,709.4729,709.473,710.1427,left,0,0.6594,,710.144,711.1404,3,6,54,15,1,partial,1,images/Ex16.jpg,right,training,hard,1,,,,,
,,,,,612b6389df1f3d38677d06f2,001,34,female,Zimbabwean,Masters,2024-03-05_22h39.30.561,CRL1h,2023.2.3,Win32,60.24096386,65e67470ae2fbf2172c317b2,65e79a8f7357ea00136af8a8,,,,,,,,,,,711.1429,0.8,711.9498,711.9498,712.5101,right,1,0.5519,,712.5102,713.5111,3,7,55,6,1,partial,1,images/Ex15.jpg,right,training,hard,1,,,,,
,,,,,612b6389df1f3d38677d06f2,001,34,female,Zimbabwean,Masters,2024-03-05_22h39.30.561,CRL1h,2023.2.3,Win32,60.24096386,65e67470ae2fbf2172c317b2,65e79a8f7357ea00136af8a8,,,,,,,,,,,713.5142,0.9,714.4064,714.4065,714.9197,left,1,0.5065,,714.9198,715.9063,3,8,56,3,1,partial,1,images/Ex12.jpg,left,training,hard,1,,,,,
,,,,,612b6389df1f3d38677d06f2,001,34,female,Zimbabwean,Masters,2024-03-05_22h39.30.561,CRL1h,2023.2.3,Win32,60.24096386,65e67470ae2fbf2172c317b2,65e79a8f7357ea00136af8a8,,,,,,,,,,,715.9108,0.7,716.6069,716.607,717.1148,left,1,0.5017,,717.115,718.1074,3,9,57,11,1,partial,1,images/Ex12.jpg,left,training,hard,1,,,,,
,,,,,612b6389df1f3d38677d06f2,001,34,female,Zimbabwean,Masters,2024-03-05_22h39.30.561,CRL1h,2023.2.3,Win32,60.24096386,65e67470ae2fbf2172c317b2,65e79a8f7357ea00136af8a8,,,,,,,,,,,718.111,0.6,718.7114,718.7114,719.2733,left,0,0.5466,,719.2736,720.2741,3,10,58,7,1,partial,1,images/Ex16.jpg,right,training,hard,1,,,,,
,,,,,612b6389df1f3d38677d06f2,001,34,female,Zimbabwean,Masters,2024-03-05_22h39.30.561,CRL1h,2023.2.3,Win32,60.24096386,65e67470ae2fbf2172c317b2,65e79a8f7357ea00136af8a8,,,,,,,,,,,720.2764,1,721.2741,721.2745,721.6427,left,0,0.3601,,721.6429,722.6427,3,11,59,5,1,partial,1,images/Ex14.jpg,right,training,hard,1,,,,,
,,,,,612b6389df1f3d38677d06f2,001,34,female,Zimbabwean,Masters,2024-03-05_22h39.30.561,CRL1h,2023.2.3,Win32,60.24096386,65e67470ae2fbf2172c317b2,65e79a8f7357ea00136af8a8,,,,,,,,,,,722.6443,1.5,724.1431,724.1434,724.6424,right,0,0.4829,,724.6426,725.6406,3,12,60,1,1,partial,1,images/Ex10.jpg,left,training,hard,1,,,,,
,,,,,612b6389df1f3d38677d06f2,001,34,female,Zimbabwean,Masters,2024-03-05_22h39.30.561,CRL1h,2023.2.3,Win32,60.24096386,65e67470ae2fbf2172c317b2,65e79a8f7357ea00136af8a8,,,,,,,,,,,725.6434,1.1,726.7425,726.7427,727.0738,left,1,0.3198,,727.0741,728.0748,3,13,61,9,1,partial,1,images/Ex10.jpg,left,training,hard,1,,,,,
,,,,,612b6389df1f3d38677d06f2,001,34,female,Zimbabwean,Masters,2024-03-05_22h39.30.561,CRL1h,2023.2.3,Win32,60.24096386,65e67470ae2fbf2172c317b2,65e79a8f7357ea00136af8a8,,,,,,,,,,,728.0771,0.8,728.8727,728.8727,729.4064,left,1,0.5269,,729.4065,730.4072,3,14,62,0,1,partial,1,images/Ex9.jpg,left,training,hard,1,,,,,
,,,,,612b6389df1f3d38677d06f2,001,34,female,Zimbabwean,Masters,2024-03-05_22h39.30.561,CRL1h,2023.2.3,Win32,60.24096386,65e67470ae2fbf2172c317b2,65e79a8f7357ea00136af8a8,,,,,,,,,,,730.4122,1.4,731.7888,731.7888,732.6937,left,0,0.8933,,732.6937,733.6889,3,15,63,4,1,partial,1,images/Ex13.jpg,right,training,hard,1,,,,,
,,,,,612b6389df1f3d38677d06f2,001,34,female,Zimbabwean,Masters,2024-03-05_22h39.30.561,CRL1h,2023.2.3,Win32,60.24096386,65e67470ae2fbf2172c317b2,65e79a8f7357ea00136af8a8,,,,,,,,,,,733.6903,1.1,734.7912,734.7916,735.2621,right,1,0.4654,,735.2622,736.2572,4,0,64,7,1,partial,1,images/Ex16.jpg,right,training,hard,1,,,,,
,,,,,612b6389df1f3d38677d06f2,001,34,female,Zimbabwean,Masters,2024-03-05_22h39.30.561,CRL1h,2023.2.3,Win32,60.24096386,65e67470ae2fbf2172c317b2,65e79a8f7357ea00136af8a8,,,,,,,,,,,736.262,0.6,736.8566,736.8569,737.3937,right,1,0.5139,,737.3941,738.3933,4,1,65,6,1,partial,1,images/Ex15.jpg,right,training,hard,1,,,,,
,,,,,612b6389df1f3d38677d06f2,001,34,female,Zimbabwean,Masters,2024-03-05_22h39.30.561,CRL1h,2023.2.3,Win32,60.24096386,65e67470ae2fbf2172c317b2,65e79a8f7357ea00136af8a8,,,,,,,,,,,738.3942,1.3,739.6927,739.6928,740.4927,left,1,0.7845,,740.4928,741.4905,4,2,66,9,1,partial,1,images/Ex10.jpg,left,training,hard,1,,,,,
,,,,,612b6389df1f3d38677d06f2,001,34,female,Zimbabwean,Masters,2024-03-05_22h39.30.561,CRL1h,2023.2.3,Win32,60.24096386,65e67470ae2fbf2172c317b2,65e79a8f7357ea00136af8a8,,,,,,,,,,,741.4937,1.5,742.9912,742.9913,743.5931,left,1,0.5866,,743.5939,744.5905,4,3,67,11,1,partial,1,images/Ex12.jpg,left,training,hard,1,,,,,
,,,,,612b6389df1f3d38677d06f2,001,34,female,Zimbabwean,Masters,2024-03-05_22h39.30.561,CRL1h,2023.2.3,Win32,60.24096386,65e67470ae2fbf2172c317b2,65e79a8f7357ea00136af8a8,,,,,,,,,,,744.5936,0.5,745.0925,745.0927,745.6233,right,0,0.5167,,745.6247,746.6249,4,4,68,8,1,partial,1,images/Ex9.jpg,left,training,hard,1,,,,,
,,,,,612b6389df1f3d38677d06f2,001,34,female,Zimbabwean,Masters,2024-03-05_22h39.30.561,CRL1h,2023.2.3,Win32,60.24096386,65e67470ae2fbf2172c317b2,65e79a8f7357ea00136af8a8,,,,,,,,,,,746.627,1.2,747.8236,747.8239,748.1977,left,0,0.3685,,748.1978,749.1898,4,5,69,5,1,partial,1,images/Ex14.jpg,right,training,hard,1,,,,,
,,,,,612b6389df1f3d38677d06f2,001,34,female,Zimbabwean,Masters,2024-03-05_22h39.30.561,CRL1h,2023.2.3,Win32,60.24096386,65e67470ae2fbf2172c317b2,65e79a8f7357ea00136af8a8,,,,,,,,,,,749.193,1.4,750.5961,750.5962,750.9261,right,1,0.3101,,750.9263,751.9233,4,6,70,12,1,partial,1,images/Ex13.jpg,right,training,hard,1,,,,,
,,,,,612b6389df1f3d38677d06f2,001,34,female,Zimbabwean,Masters,2024-03-05_22h39.30.561,CRL1h,2023.2.3,Win32,60.24096386,65e67470ae2fbf2172c317b2,65e79a8f7357ea00136af8a8,,,,,,,,,,,751.9265,1.4,753.3233,753.3235,753.7236,left,1,0.3913,,753.7239,754.7249,4,7,71,10,1,partial,1,images/Ex11.jpg,left,training,hard,1,,,,,
,,,,,612b6389df1f3d38677d06f2,001,34,female,Zimbabwean,Masters,2024-03-05_22h39.30.561,CRL1h,2023.2.3,Win32,60.24096386,65e67470ae2fbf2172c317b2,65e79a8f7357ea00136af8a8,,,,,,,,,,,754.7273,0.5,755.2232,755.2233,755.8238,left,0,0.5822,,755.8239,756.8239,4,8,72,15,1,partial,1,images/Ex16.jpg,right,training,hard,1,,,,,
,,,,,612b6389df1f3d38677d06f2,001,34,female,Zimbabwean,Masters,2024-03-05_22h39.30.561,CRL1h,2023.2.3,Win32,60.24096386,65e67470ae2fbf2172c317b2,65e79a8f7357ea00136af8a8,,,,,,,,,,,756.8265,1.2,758.0231,758.0234,758.4931,right,0,0.4581,,758.4932,759.4892,4,9,73,3,1,partial,1,images/Ex12.jpg,left,training,hard,1,,,,,
,,,,,612b6389df1f3d38677d06f2,001,34,female,Zimbabwean,Masters,2024-03-05_22h39.30.561,CRL1h,2023.2.3,Win32,60.24096386,65e67470ae2fbf2172c317b2,65e79a8f7357ea00136af8a8,,,,,,,,,,,759.4904,0.6,760.0907,760.0908,760.2259,left,0,0.1179,,760.2262,761.2236,4,10,74,13,1,partial,1,images/Ex14.jpg,right,training,hard,1,,,,,
,,,,,612b6389df1f3d38677d06f2,001,34,female,Zimbabwean,Masters,2024-03-05_22h39.30.561,CRL1h,2023.2.3,Win32,60.24096386,65e67470ae2fbf2172c317b2,65e79a8f7357ea00136af8a8,,,,,,,,,,,761.2269,0.6,761.8247,761.8251,762.2239,right,1,0.3791,,762.2241,763.2236,4,11,75,4,1,partial,1,images/Ex13.jpg,right,training,hard,1,,,,,
,,,,,612b6389df1f3d38677d06f2,001,34,female,Zimbabwean,Masters,2024-03-05_22h39.30.561,CRL1h,2023.2.3,Win32,60.24096386,65e67470ae2fbf2172c317b2,65e79a8f7357ea00136af8a8,,,,,,,,,,,763.2272,0.9,764.1233,764.1233,764.6254,right,0,0.4852,,764.6255,765.6224,4,12,76,2,1,partial,1,images/Ex11.jpg,left,training,hard,1,,,,,
,,,,,612b6389df1f3d38677d06f2,001,34,female,Zimbabwean,Masters,2024-03-05_22h39.30.561,CRL1h,2023.2.3,Win32,60.24096386,65e67470ae2fbf2172c317b2,65e79a8f7357ea00136af8a8,,,,,,,,,,,765.6237,1,766.6238,766.6238,766.9911,left,1,0.3589,,766.9914,767.99,4,13,77,0,1,partial,1,images/Ex9.jpg,left,training,hard,1,,,,,
,,,,,612b6389df1f3d38677d06f2,001,34,female,Zimbabwean,Masters,2024-03-05_22h39.30.561,CRL1h,2023.2.3,Win32,60.24096386,65e67470ae2fbf2172c317b2,65e79a8f7357ea00136af8a8,,,,,,,,,,,767.9934,0.9,768.8897,768.8898,769.4584,right,0,0.5548,,769.4589,770.4594,4,14,78,1,1,partial,1,images/Ex10.jpg,left,training,hard,1,,,,,
,,,,,612b6389df1f3d38677d06f2,001,34,female,Zimbabwean,Masters,2024-03-05_22h39.30.561,CRL1h,2023.2.3,Win32,60.24096386,65e67470ae2fbf2172c317b2,65e79a8f7357ea00136af8a8,,,,,,,,,,,770.463,1.3,771.7595,771.7596,772.1236,left,0,0.3496,,772.1251,773.1237,4,15,79,14,1,partial,1,images/Ex15.jpg,right,training,hard,1,,,,,
,,,,,612b6389df1f3d38677d06f2,001,34,female,Zimbabwean,Masters,2024-03-05_22h39.30.561,CRL1h,2023.2.3,Win32,60.24096386,65e67470ae2fbf2172c317b2,65e79a8f7357ea00136af8a8,,,,,,,,,,,773.1271,1.2,774.3245,774.3246,774.3907,right,1,0.0588,,774.3921,775.3906,5,0,80,14,1,partial,1,images/Ex15.jpg,right,training,hard,1,,,,,
,,,,,612b6389df1f3d38677d06f2,001,34,female,Zimbabwean,Masters,2024-03-05_22h39.30.561,CRL1h,2023.2.3,Win32,60.24096386,65e67470ae2fbf2172c317b2,65e79a8f7357ea00136af8a8,,,,,,,,,,,775.3935,1,776.3903,776.3904,777.1289,left,1,0.7327,,777.1291,778.1246,5,1,81,11,1,partial,1,images/Ex12.jpg,left,training,hard,1,,,,,
,,,,,612b6389df1f3d38677d06f2,001,34,female,Zimbabwean,Masters,2024-03-05_22h39.30.561,CRL1h,2023.2.3,Win32,60.24096386,65e67470ae2fbf2172c317b2,65e79a8f7357ea00136af8a8,,,,,,,,,,,778.1268,1.5,779.6239,779.6241,782.2275,left,0,2.5957,,782.2292,783.2246,5,2,82,5,1,partial,1,images/Ex14.jpg,right,training,hard,1,,,,,
,,,,,612b6389df1f3d38677d06f2,001,34,female,Zimbabwean,Masters,2024-03-05_22h39.30.561,CRL1h,2023.2.3,Win32,60.24096386,65e67470ae2fbf2172c317b2,65e79a8f7357ea00136af8a8,,,,,,,,,,,783.2631,0.5,783.7569,783.7569,784.3245,right,0,0.5466,,784.3259,785.3242,5,3,83,9,1,partial,1,images/Ex10.jpg,left,training,hard,1,,,,,
,,,,,612b6389df1f3d38677d06f2,001,34,female,Zimbabwean,Masters,2024-03-05_22h39.30.561,CRL1h,2023.2.3,Win32,60.24096386,65e67470ae2fbf2172c317b2,65e79a8f7357ea00136af8a8,,,,,,,,,,,785.327,1.3,786.624,786.624,786.9937,left,1,0.3554,,786.9939,787.9925,5,4,84,0,1,partial,1,images/Ex9.jpg,left,training,hard,1,,,,,
,,,,,612b6389df1f3d38677d06f2,001,34,female,Zimbabwean,Masters,2024-03-05_22h39.30.561,CRL1h,2023.2.3,Win32,60.24096386,65e67470ae2fbf2172c317b2,65e79a8f7357ea00136af8a8,,,,,,,,,,,787.9948,1.1,789.0902,789.0903,789.9933,left,1,0.8873,,789.9936,790.9902,5,5,85,10,1,partial,1,images/Ex11.jpg,left,training,hard,1,,,,,
,,,,,612b6389df1f3d38677d06f2,001,34,female,Zimbabwean,Masters,2024-03-05_22h39.30.561,CRL1h,2023.2.3,Win32,60.24096386,65e67470ae2fbf2172c317b2,65e79a8f7357ea00136af8a8,,,,,,,,,,,790.9937,1.2,792.1929,792.193,793.0928,right,1,0.8755,,793.0931,794.0919,5,6,86,4,1,partial,1,images/Ex13.jpg,right,training,hard,1,,,,,
,,,,,612b6389df1f3d38677d06f2,001,34,female,Zimbabwean,Masters,2024-03-05_22h39.30.561,CRL1h,2023.2.3,Win32,60.24096386,65e67470ae2fbf2172c317b2,65e79a8f7357ea00136af8a8,,,,,,,,,,,794.0947,1.4,795.4908,795.4908,795.9608,left,0,0.45,,795.9609,796.9572,5,7,87,13,1,partial,1,images/Ex14.jpg,right,training,hard,1,,,,,
,,,,,612b6389df1f3d38677d06f2,001,34,female,Zimbabwean,Masters,2024-03-05_22h39.30.561,CRL1h,2023.2.3,Win32,60.24096386,65e67470ae2fbf2172c317b2,65e79a8f7357ea00136af8a8,,,,,,,,,,,796.9591,1.5,798.4656,798.4657,798.9237,right,1,0.4371,,798.9237,799.9229,5,8,88,12,1,partial,1,images/Ex13.jpg,right,training,hard,1,,,,,
,,,,,612b6389df1f3d38677d06f2,001,34,female,Zimbabwean,Masters,2024-03-05_22h39.30.561,CRL1h,2023.2.3,Win32,60.24096386,65e67470ae2fbf2172c317b2,65e79a8f7357ea00136af8a8,,,,,,,,,,,799.9243,0.7,800.6229,800.6229,801.3572,left,0,0.7262,,801.3579,802.3805,5,9,89,6,1,partial,1,images/Ex15.jpg,right,training,hard,1,,,,,
,,,,,612b6389df1f3d38677d06f2,001,34,female,Zimbabwean,Masters,2024-03-05_22h39.30.561,CRL1h,2023.2.3,Win32,60.24096386,65e67470ae2fbf2172c317b2,65e79a8f7357ea00136af8a8,,,,,,,,,,,802.3809,1,803.3641,803.3642,804.6294,right,1,1.2468,,804.6295,805.6245,5,10,90,15,1,partial,1,images/Ex16.jpg,right,training,hard,1,,,,,
,,,,,612b6389df1f3d38677d06f2,001,34,female,Zimbabwean,Masters,2024-03-05_22h39.30.561,CRL1h,2023.2.3,Win32,60.24096386,65e67470ae2fbf2172c317b2,65e79a8f7357ea00136af8a8,,,,,,,,,,,805.63,0.6,806.2246,806.2247,806.5608,right,0,0.3242,,806.5609,807.56,5,11,91,2,1,partial,1,images/Ex11.jpg,left,training,hard,1,,,,,
,,,,,612b6389df1f3d38677d06f2,001,34,female,Zimbabwean,Masters,2024-03-05_22h39.30.561,CRL1h,2023.2.3,Win32,60.24096386,65e67470ae2fbf2172c317b2,65e79a8f7357ea00136af8a8,,,,,,,,,,,807.5622,1.4,808.9628,808.9629,809.268,left,0,0.302,,809.2682,810.2584,5,12,92,7,1,partial,1,images/Ex16.jpg,right,training,hard,1,,,,,
,,,,,612b6389df1f3d38677d06f2,001,34,female,Zimbabwean,Masters,2024-03-05_22h39.30.561,CRL1h,2023.2.3,Win32,60.24096386,65e67470ae2fbf2172c317b2,65e79a8f7357ea00136af8a8,,,,,,,,,,,810.2599,0.7,810.9625,810.9625,811.3614,right,0,0.3961,,811.3616,812.3574,5,13,93,1,1,partial,1,images/Ex10.jpg,left,training,hard,1,,,,,
,,,,,612b6389df1f3d38677d06f2,001,34,female,Zimbabwean,Masters,2024-03-05_22h39.30.561,CRL1h,2023.2.3,Win32,60.24096386,65e67470ae2fbf2172c317b2,65e79a8f7357ea00136af8a8,,,,,,,,,,,812.3594,1.3,813.6602,813.6603,814,left,1,0.3352,,814,814.9911,5,14,94,8,1,partial,1,images/Ex9.jpg,left,training,hard,1,,,,,
,,,,,612b6389df1f3d38677d06f2,001,34,female,Zimbabwean,Masters,2024-03-05_22h39.30.561,CRL1h,2023.2.3,Win32,60.24096386,65e67470ae2fbf2172c317b2,65e79a8f7357ea00136af8a8,,,,,,,,,,,814.9939,1,815.9909,815.991,816.4596,right,0,0.4527,,816.4597,817.4597,5,15,95,3,1,partial,1,images/Ex12.jpg,left,training,hard,1,,,,,
,,,,,612b6389df1f3d38677d06f2,001,34,female,Zimbabwean,Masters,2024-03-05_22h39.30.561,CRL1h,2023.2.3,Win32,60.24096386,65e67470ae2fbf2172c317b2,65e79a8f7357ea00136af8a8,,,,,,,,,,,817.4624,1.2,818.6594,818.6596,819.4269,left,1,0.7493,,819.4271,820.4254,6,0,96,3,1,partial,1,images/Ex12.jpg,left,training,hard,1,,,,,
,,,,,612b6389df1f3d38677d06f2,001,34,female,Zimbabwean,Masters,2024-03-05_22h39.30.561,CRL1h,2023.2.3,Win32,60.24096386,65e67470ae2fbf2172c317b2,65e79a8f7357ea00136af8a8,,,,,,,,,,,820.4293,0.6,821.0247,821.0248,821.5252,left,1,0.4815,,821.5254,822.5321,6,1,97,10,1,partial,1,images/Ex11.jpg,left,training,hard,1,,,,,
,,,,,612b6389df1f3d38677d06f2,001,34,female,Zimbabwean,Masters,2024-03-05_22h39.30.561,CRL1h,2023.2.3,Win32,60.24096386,65e67470ae2fbf2172c317b2,65e79a8f7357ea00136af8a8,,,,,,,,,,,822.5343,0.7,823.2246,823.2249,823.9001,left,0,0.6688,,823.9002,824.8913,6,2,98,6,1,partial,1,images/Ex15.jpg,right,training,hard,1,,,,,
,,,,,612b6389df1f3d38677d06f2,001,34,female,Zimbabwean,Masters,2024-03-05_22h39.30.561,CRL1h,2023.2.3,Win32,60.24096386,65e67470ae2fbf2172c317b2,65e79a8f7357ea00136af8a8,,,,,,,,,,,824.8941,1.5,826.3968,826.3968,826.4325,right,1,0.0126,,826.4326,827.4253,6,3,99,14,1,partial,1,images/Ex15.jpg,right,training,hard,1,,,,,
,,,,,612b6389df1f3d38677d06f2,001,34,female,Zimbabwean,Masters,2024-03-05_22h39.30.561,CRL1h,2023.2.3,Win32,60.24096386,65e67470ae2fbf2172c317b2,65e79a8f7357ea00136af8a8,,,,,,,,,,,827.4295,0.5,827.9249,827.9249,828.36,right,0,0.4205,,828.3603,829.3604,6,4,100,2,1,partial,1,images/Ex11.jpg,left,training,hard,1,,,,,
,,,,,612b6389df1f3d38677d06f2,001,34,female,Zimbabwean,Masters,2024-03-05_22h39.30.561,CRL1h,2023.2.3,Win32,60.24096386,65e67470ae2fbf2172c317b2,65e79a8f7357ea00136af8a8,,,,,,,,,,,829.3621,0.8,830.16,830.1601,830.6915,left,0,0.513,,830.6916,831.6913,6,5,101,7,1,partial,1,images/Ex16.jpg,right,training,hard,1,,,,,
,,,,,612b6389df1f3d38677d06f2,001,34,female,Zimbabwean,Masters,2024-03-05_22h39.30.561,CRL1h,2023.2.3,Win32,60.24096386,65e67470ae2fbf2172c317b2,65e79a8f7357ea00136af8a8,,,,,,,,,,,831.6945,0.7,832.3917,832.392,832.9914,right,1,0.5814,,832.9915,833.9928,6,6,102,15,1,partial,1,images/Ex16.jpg,right,training,hard,1,,,,,
,,,,,612b6389df1f3d38677d06f2,001,34,female,Zimbabwean,Masters,2024-03-05_22h39.30.561,CRL1h,2023.2.3,Win32,60.24096386,65e67470ae2fbf2172c317b2,65e79a8f7357ea00136af8a8,,,,,,,,,,,833.9948,0.6,834.5912,834.5912,835.3922,left,0,0.7824,,835.3936,836.392,6,7,103,12,1,partial,1,images/Ex13.jpg,right,training,hard,1,,,,,
,,,,,612b6389df1f3d38677d06f2,001,34,female,Zimbabwean,Masters,2024-03-05_22h39.30.561,CRL1h,2023.2.3,Win32,60.24096386,65e67470ae2fbf2172c317b2,65e79a8f7357ea00136af8a8,,,,,,,,,,,836.3953,1.2,837.5925,837.5926,837.9935,right,1,0.3973,,837.9937,838.9917,6,8,104,13,1,partial,1,images/Ex14.jpg,right,training,hard,1,,,,,
,,,,,612b6389df1f3d38677d06f2,001,34,female,Zimbabwean,Masters,2024-03-05_22h39.30.561,CRL1h,2023.2.3,Win32,60.24096386,65e67470ae2fbf2172c317b2,65e79a8f7357ea00136af8a8,,,,,,,,,,,838.995,1.2,840.1907,840.1908,840.599,right,0,0.4044,,840.5991,841.5915,6,9,105,1,1,partial,1,images/Ex10.jpg,left,training,hard,1,,,,,
,,,,,612b6389df1f3d38677d06f2,001,34,female,Zimbabwean,Masters,2024-03-05_22h39.30.561,CRL1h,2023.2.3,Win32,60.24096386,65e67470ae2fbf2172c317b2,65e79a8f7357ea00136af8a8,,,,,,,,,,,841.5941,1.5,843.0917,843.0917,843.7748,left,1,0.6784,,843.7749,844.7595,6,10,106,9,1,partial,1,images/Ex10.jpg,left,training,hard,1,,,,,
,,,,,612b6389df1f3d38677d06f2,001,34,female,Zimbabwean,Masters,2024-03-05_22h39.30.561,CRL1h,2023.2.3,Win32,60.24096386,65e67470ae2fbf2172c317b2,65e79a8f7357ea00136af8a8,,,,,,,,,,,844.7621,1.1,845.8605,845.8605,846.2248,left,0,0.3549,,846.2262,847.2256,6,11,107,4,1,partial,1,images/Ex13.jpg,right,training,hard,1,,,,,
,,,,,612b6389df1f3d38677d06f2,001,34,female,Zimbabwean,Masters,2024-03-05_22h39.30.561,CRL1h,2023.2.3,Win32,60.24096386,65e67470ae2fbf2172c317b2,65e79a8f7357ea00136af8a8,,,,,,,,,,,847.23,1.2,848.425,848.4251,848.8254,right,1,0.3903,,848.8269,849.8254,6,12,108,5,1,partial,1,images/Ex14.jpg,right,training,hard,1,,,,,
,,,,,612b6389df1f3d38677d06f2,001,34,female,Zimbabwean,Masters,2024-03-05_22h39.30.561,CRL1h,2023.2.3,Win32,60.24096386,65e67470ae2fbf2172c317b2,65e79a8f7357ea00136af8a8,,,,,,,,,,,849.8293,0.6,850.4251,850.4251,850.8936,left,1,0.4466,,850.8939,851.8923,6,13,109,8,1,partial,1,images/Ex9.jpg,left,training,hard,1,,,,,
,,,,,612b6389df1f3d38677d06f2,001,34,female,Zimbabwean,Masters,2024-03-05_22h39.30.561,CRL1h,2023.2.3,Win32,60.24096386,65e67470ae2fbf2172c317b2,65e79a8f7357ea00136af8a8,,,,,,,,,,,851.8951,1.2,853.0913,853.0914,853.5254,right,0,0.4163,,853.5257,854.5251,6,14,110,11,1,partial,1,images/Ex12.jpg,left,training,hard,1,,,,,
,,,,,612b6389df1f3d38677d06f2,001,34,female,Zimbabwean,Masters,2024-03-05_22h39.30.561,CRL1h,2023.2.3,Win32,60.24096386,65e67470ae2fbf2172c317b2,65e79a8f7357ea00136af8a8,,,,,,,,,,,854.5297,1.1,855.6251,855.6251,855.9924,left,1,0.348,,855.9926,856.9915,6,15,111,0,1,partial,1,images/Ex9.jpg,left,training,hard,1,,,,,
,,,,,612b6389df1f3d38677d06f2,001,34,female,Zimbabwean,Masters,2024-03-05_22h39.30.561,CRL1h,2023.2.3,Win32,60.24096386,65e67470ae2fbf2172c317b2,65e79a8f7357ea00136af8a8,,,,,,,,,,,856.9943,0.8,857.7919,857.7919,858.3257,left,0,0.5143,,858.326,859.334,7,0,112,6,1,partial,1,images/Ex15.jpg,right,training,hard,1,,,,,
,,,,,612b6389df1f3d38677d06f2,001,34,female,Zimbabwean,Masters,2024-03-05_22h39.30.561,CRL1h,2023.2.3,Win32,60.24096386,65e67470ae2fbf2172c317b2,65e79a8f7357ea00136af8a8,,,,,,,,,,,859.3351,0.9,860.2254,860.2255,860.567,right,1,0.3344,,860.5674,861.5596,7,1,113,7,1,partial,1,images/Ex16.jpg,right,training,hard,1,,,,,
,,,,,612b6389df1f3d38677d06f2,001,34,female,Zimbabwean,Masters,2024-03-05_22h39.30.561,CRL1h,2023.2.3,Win32,60.24096386,65e67470ae2fbf2172c317b2,65e79a8f7357ea00136af8a8,,,,,,,,,,,861.5623,1.1,862.6627,862.6629,863.2263,left,1,0.5489,,863.2263,864.2252,7,2,114,8,1,partial,1,images/Ex9.jpg,left,training,hard,1,,,,,
,,,,,612b6389df1f3d38677d06f2,001,34,female,Zimbabwean,Masters,2024-03-05_22h39.30.561,CRL1h,2023.2.3,Win32,60.24096386,65e67470ae2fbf2172c317b2,65e79a8f7357ea00136af8a8,,,,,,,,,,,864.23,1.5,865.7251,865.7254,866.0923,right,1,0.3508,,866.0924,867.093,7,3,115,15,1,partial,1,images/Ex16.jpg,right,training,hard,1,,,,,
,,,,,612b6389df1f3d38677d06f2,001,34,female,Zimbabwean,Masters,2024-03-05_22h39.30.561,CRL1h,2023.2.3,Win32,60.24096386,65e67470ae2fbf2172c317b2,65e79a8f7357ea00136af8a8,,,,,,,,,,,867.0953,0.9,867.9932,867.9933,868.3928,left,1,0.383,,868.3932,869.3917,7,4,116,3,1,partial,1,images/Ex12.jpg,left,training,hard,1,,,,,
,,,,,612b6389df1f3d38677d06f2,001,34,female,Zimbabwean,Masters,2024-03-05_22h39.30.561,CRL1h,2023.2.3,Win32,60.24096386,65e67470ae2fbf2172c317b2,65e79a8f7357ea00136af8a8,,,,,,,,,,,869.3951,0.9,870.291,870.2912,870.7296,left,0,0.4181,,870.7296,871.7263,7,5,117,5,1,partial,1,images/Ex14.jpg,right,training,hard,1,,,,,
,,,,,612b6389df1f3d38677d06f2,001,34,female,Zimbabwean,Masters,2024-03-05_22h39.30.561,CRL1h,2023.2.3,Win32,60.24096386,65e67470ae2fbf2172c317b2,65e79a8f7357ea00136af8a8,,,,,,,,,,,871.7298,1.4,873.126,873.1262,873.4605,right,0,0.3159,,873.4606,874.4601,7,6,118,0,1,partial,1,images/Ex9.jpg,left,training,hard,1,,,,,
,,,,,612b6389df1f3d38677d06f2,001,34,female,Zimbabwean,Masters,2024-03-05_22h39.30.561,CRL1h,2023.2.3,Win32,60.24096386,65e67470ae2fbf2172c317b2,65e79a8f7357ea00136af8a8,,,,,,,,,,,874.4626,1.4,875.8628,875.8629,875.9059,left,1,0.0395,,875.906,876.8927,7,7,119,1,1,partial,1,images/Ex10.jpg,left,training,hard,1,,,,,
,,,,,612b6389df1f3d38677d06f2,001,34,female,Zimbabwean,Masters,2024-03-05_22h39.30.561,CRL1h,2023.2.3,Win32,60.24096386,65e67470ae2fbf2172c317b2,65e79a8f7357ea00136af8a8,,,,,,,,,,,876.8955,1.4,878.2919,878.2921,878.5942,left,0,0.284,,878.5945,879.592,7,8,120,4,1,partial,1,images/Ex13.jpg,right,training,hard,1,,,,,
,,,,,612b6389df1f3d38677d06f2,001,34,female,Zimbabwean,Masters,2024-03-05_22h39.30.561,CRL1h,2023.2.3,Win32,60.24096386,65e67470ae2fbf2172c317b2,65e79a8f7357ea00136af8a8,,,,,,,,,,,879.5941,1.3,880.8927,880.8929,881.2299,right,0,0.3138,,881.2299,882.226,7,9,121,11,1,partial,1,images/Ex12.jpg,left,training,hard,1,,,,,
,,,,,612b6389df1f3d38677d06f2,001,34,female,Zimbabwean,Masters,2024-03-05_22h39.30.561,CRL1h,2023.2.3,Win32,60.24096386,65e67470ae2fbf2172c317b2,65e79a8f7357ea00136af8a8,,,,,,,,,,,882.2299,1.5,883.7253,883.7254,884.5635,left,1,0.8184,,884.5635,885.5605,7,10,122,2,1,partial,1,images/Ex11.jpg,left,training,hard,1,,,,,
,,,,,612b6389df1f3d38677d06f2,001,34,female,Zimbabwean,Masters,2024-03-05_22h39.30.561,CRL1h,2023.2.3,Win32,60.24096386,65e67470ae2fbf2172c317b2,65e79a8f7357ea00136af8a8,,,,,,,,,,,885.5625,1,886.5603,886.5604,886.962,left,1,0.3784,,886.9621,887.9627,7,11,123,10,1,partial,1,images/Ex11.jpg,left,training,hard,1,,,,,
,,,,,612b6389df1f3d38677d06f2,001,34,female,Zimbabwean,Masters,2024-03-05_22h39.30.561,CRL1h,2023.2.3,Win32,60.24096386,65e67470ae2fbf2172c317b2,65e79a8f7357ea00136af8a8,,,,,,,,,,,887.9637,1.4,889.3626,889.3628,889.8997,left,0,0.5315,,889.8999,890.8932,7,12,124,13,1,partial,1,images/Ex14.jpg,right,training,hard,1,,,,,
,,,,,612b6389df1f3d38677d06f2,001,34,female,Zimbabwean,Masters,2024-03-05_22h39.30.561,CRL1h,2023.2.3,Win32,60.24096386,65e67470ae2fbf2172c317b2,65e79a8f7357ea00136af8a8,,,,,,,,,,,890.8958,1.3,892.1922,892.1923,892.6603,right,1,0.4562,,892.6604,893.6601,7,13,125,12,1,partial,1,images/Ex13.jpg,right,training,hard,1,,,,,
,,,,,612b6389df1f3d38677d06f2,001,34,female,Zimbabwean,Masters,2024-03-05_22h39.30.561,CRL1h,2023.2.3,Win32,60.24096386,65e67470ae2fbf2172c317b2,65e79a8f7357ea00136af8a8,,,,,,,,,,,893.6628,1.4,895.0621,895.0621,895.4948,left,1,0.4167,,895.4949,896.4913,7,14,126,9,1,partial,1,images/Ex10.jpg,left,training,hard,1,,,,,
,,,,,612b6389df1f3d38677d06f2,001,34,female,Zimbabwean,Masters,2024-03-05_22h39.30.561,CRL1h,2023.2.3,Win32,60.24096386,65e67470ae2fbf2172c317b2,65e79a8f7357ea00136af8a8,,,,,,,,,,,896.4933,1.2,897.6921,897.6922,898.126,right,1,0.4195,,898.126,899.1267,7,15,127,14,1,partial,1,images/Ex15.jpg,right,training,hard,1,,,,,
,,,,,612b6389df1f3d38677d06f2,001,34,female,Zimbabwean,Masters,2024-03-05_22h39.30.561,CRL1h,2023.2.3,Win32,60.24096386,65e67470ae2fbf2172c317b2,65e79a8f7357ea00136af8a8,,,,,,,,,,,899.1501,0.6,899.7259,899.726,901.0315,left,1,1.2798,,901.0316,902.0257,0,0,0,13,1,partial,2,images/Ex14.jpg,left,reversed,hard,1,,,,,
,,,,,612b6389df1f3d38677d06f2,001,34,female,Zimbabwean,Masters,2024-03-05_22h39.30.561,CRL1h,2023.2.3,Win32,60.24096386,65e67470ae2fbf2172c317b2,65e79a8f7357ea00136af8a8,,,,,,,,,,,902.0302,0.7,902.7257,902.7258,904.1999,right,1,1.4672,,904.2,905.192,0,1,1,3,1,partial,2,images/Ex12.jpg,right,reversed,hard,1,,,,,
,,,,,612b6389df1f3d38677d06f2,001,34,female,Zimbabwean,Masters,2024-03-05_22h39.30.561,CRL1h,2023.2.3,Win32,60.24096386,65e67470ae2fbf2172c317b2,65e79a8f7357ea00136af8a8,,,,,,,,,,,905.1946,0.6,905.7923,905.7923,906.5264,left,0,0.7288,,906.5266,907.5265,0,2,2,6,1,partial,2,images/Ex15.jpg,right,nonreversed,hard,1,,,,,
,,,,,612b6389df1f3d38677d06f2,001,34,female,Zimbabwean,Masters,2024-03-05_22h39.30.561,CRL1h,2023.2.3,Win32,60.24096386,65e67470ae2fbf2172c317b2,65e79a8f7357ea00136af8a8,,,,,,,,,,,907.5301,0.7,908.226,908.2261,908.6929,right,1,0.452,,908.6943,909.6925,0,3,3,7,1,partial,2,images/Ex16.jpg,right,nonreversed,hard,1,,,,,
,,,,,612b6389df1f3d38677d06f2,001,34,female,Zimbabwean,Masters,2024-03-05_22h39.30.561,CRL1h,2023.2.3,Win32,60.24096386,65e67470ae2fbf2172c317b2,65e79a8f7357ea00136af8a8,,,,,,,,,,,909.6959,1.3,910.9939,910.9941,911.4281,left,1,0.4167,,911.4287,912.4265,0,4,4,4,1,partial,2,images/Ex13.jpg,left,reversed,hard,1,,,,,
,,,,,612b6389df1f3d38677d06f2,001,34,female,Zimbabwean,Masters,2024-03-05_22h39.30.561,CRL1h,2023.2.3,Win32,60.24096386,65e67470ae2fbf2172c317b2,65e79a8f7357ea00136af8a8,,,,,,,,,,,912.431,0.7,913.1266,913.1267,913.6688,left,0,0.5349,,913.669,914.6602,0,5,5,15,1,partial,2,images/Ex16.jpg,right,nonreversed,hard,1,,,,,
,,,,,612b6389df1f3d38677d06f2,001,34,female,Zimbabwean,Masters,2024-03-05_22h39.30.561,CRL1h,2023.2.3,Win32,60.24096386,65e67470ae2fbf2172c317b2,65e79a8f7357ea00136af8a8,,,,,,,,,,,914.663,1.1,915.7602,915.7605,916.1264,right,0,0.3474,,916.1292,917.1261,0,6,6,0,1,partial,2,images/Ex9.jpg,left,nonreversed,hard,1,,,,,
,,,,,612b6389df1f3d38677d06f2,001,34,female,Zimbabwean,Masters,2024-03-05_22h39.30.561,CRL1h,2023.2.3,Win32,60.24096386,65e67470ae2fbf2172c317b2,65e79a8f7357ea00136af8a8,,,,,,,,,,,917.1306,0.8,917.926,917.9261,918.2927,left,1,0.346,,918.2929,919.2933,0,7,7,8,1,partial,2,images/Ex9.jpg,left,nonreversed,hard,1,,,,,
,,,,,612b6389df1f3d38677d06f2,001,34,female,Zimbabwean,Masters,2024-03-05_22h39.30.561,CRL1h,2023.2.3,Win32,60.24096386,65e67470ae2fbf2172c317b2,65e79a8f7357ea00136af8a8,,,,,,,,,,,919.2961,0.7,919.9944,919.9946,920.7619,left,0,0.7538,,920.7622,921.7605,0,8,8,2,1,partial,2,images/Ex11.jpg,right,reversed,hard,1,,,,,
,,,,,612b6389df1f3d38677d06f2,001,34,female,Zimbabwean,Masters,2024-03-05_22h39.30.561,CRL1h,2023.2.3,Win32,60.24096386,65e67470ae2fbf2172c317b2,65e79a8f7357ea00136af8a8,,,,,,,,,,,921.7631,0.5,922.2623,922.2631,924.5629,right,1,2.284,,924.5633,925.5596,0,9,9,14,1,partial,2,images/Ex15.jpg,right,nonreversed,hard,1,,,,,
,,,,,612b6389df1f3d38677d06f2,001,34,female,Zimbabwean,Masters,2024-03-05_22h39.30.561,CRL1h,2023.2.3,Win32,60.24096386,65e67470ae2fbf2172c317b2,65e79a8f7357ea00136af8a8,,,,,,,,,,,925.599,0.9,926.4927,926.4928,927.863,left,1,1.3647,,927.8636,928.8602,0,10,10,1,1,partial,2,images/Ex10.jpg,left,nonreversed,hard,1,,,,,
,,,,,612b6389df1f3d38677d06f2,001,34,female,Zimbabwean,Masters,2024-03-05_22h39.30.561,CRL1h,2023.2.3,Win32,60.24096386,65e67470ae2fbf2172c317b2,65e79a8f7357ea00136af8a8,,,,,,,,,,,928.9,1.1,929.9943,929.9944,930.461,left,0,0.4625,,930.4656,931.4623,0,11,11,11,1,partial,2,images/Ex12.jpg,right,reversed,hard,1,,,,,
,,,,,612b6389df1f3d38677d06f2,001,34,female,Zimbabwean,Masters,2024-03-05_22h39.30.561,CRL1h,2023.2.3,Win32,60.24096386,65e67470ae2fbf2172c317b2,65e79a8f7357ea00136af8a8,,,,,,,,,,,931.4641,0.6,932.0598,932.0599,932.4933,right,0,0.4124,,932.4947,933.4942,0,12,12,12,1,partial,2,images/Ex13.jpg,left,reversed,hard,1,,,,,
,,,,,612b6389df1f3d38677d06f2,001,34,female,Zimbabwean,Masters,2024-03-05_22h39.30.561,CRL1h,2023.2.3,Win32,60.24096386,65e67470ae2fbf2172c317b2,65e79a8f7357ea00136af8a8,,,,,,,,,,,933.4966,1.1,934.5925,934.5927,935.1316,left,1,0.5226,,935.1319,936.1248,0,13,13,9,1,partial,2,images/Ex10.jpg,left,nonreversed,hard,1,,,,,
,,,,,612b6389df1f3d38677d06f2,001,34,female,Zimbabwean,Masters,2024-03-05_22h39.30.561,CRL1h,2023.2.3,Win32,60.24096386,65e67470ae2fbf2172c317b2,65e79a8f7357ea00136af8a8,,,,,,,,,,,936.1263,0.8,936.9267,936.9268,937.4345,left,0,0.501,,937.4346,938.4262,0,14,14,10,1,partial,2,images/Ex11.jpg,right,reversed,hard,1,,,,,
,,,,,612b6389df1f3d38677d06f2,001,34,female,Zimbabwean,Masters,2024-03-05_22h39.30.561,CRL1h,2023.2.3,Win32,60.24096386,65e67470ae2fbf2172c317b2,65e79a8f7357ea00136af8a8,,,,,,,,,,,938.4313,1,939.4308,939.4309,939.8312,right,0,0.3898,,939.8315,940.8259,0,15,15,5,1,partial,2,images/Ex14.jpg,left,reversed,hard,1,,,,,
,,,,,612b6389df1f3d38677d06f2,001,34,female,Zimbabwean,Masters,2024-03-05_22h39.30.561,CRL1h,2023.2.3,Win32,60.24096386,65e67470ae2fbf2172c317b2,65e79a8f7357ea00136af8a8,,,,,,,,,,,940.8303,0.7,941.5253,941.5254,942.0256,left,1,0.4788,,942.0257,943.0268,1,0,16,8,1,partial,2,images/Ex9.jpg,left,nonreversed,hard,1,,,,,
,,,,,612b6389df1f3d38677d06f2,001,34,female,Zimbabwean,Masters,2024-03-05_22h39.30.561,CRL1h,2023.2.3,Win32,60.24096386,65e67470ae2fbf2172c317b2,65e79a8f7357ea00136af8a8,,,,,,,,,,,943.0303,1.2,944.2266,944.2268,944.73,left,1,0.483,,944.7307,945.731,1,1,17,4,1,partial,2,images/Ex13.jpg,left,reversed,hard,1,,,,,
,,,,,612b6389df1f3d38677d06f2,001,34,female,Zimbabwean,Masters,2024-03-05_22h39.30.561,CRL1h,2023.2.3,Win32,60.24096386,65e67470ae2fbf2172c317b2,65e79a8f7357ea00136af8a8,,,,,,,,,,,945.7319,1.5,947.2276,947.2277,947.6316,right,0,0.3802,,947.6317,948.6271,1,2,18,5,1,partial,2,images/Ex14.jpg,left,reversed,hard,1,,,,,
,,,,,612b6389df1f3d38677d06f2,001,34,female,Zimbabwean,Masters,2024-03-05_22h39.30.561,CRL1h,2023.2.3,Win32,60.24096386,65e67470ae2fbf2172c317b2,65e79a8f7357ea00136af8a8,,,,,,,,,,,948.6319,0.8,949.427,949.4287,949.8948,left,0,0.4531,,949.8949,950.8925,1,3,19,2,1,partial,2,images/Ex11.jpg,right,reversed,hard,1,,,,,
,,,,,612b6389df1f3d38677d06f2,001,34,female,Zimbabwean,Masters,2024-03-05_22h39.30.561,CRL1h,2023.2.3,Win32,60.24096386,65e67470ae2fbf2172c317b2,65e79a8f7357ea00136af8a8,,,,,,,,,,,950.8947,1,951.8919,951.892,952.3292,right,1,0.4181,,952.3295,953.3288,1,4,20,3,1,partial,2,images/Ex12.jpg,right,reversed,hard,1,,,,,
,,,,,612b6389df1f3d38677d06f2,001,34,female,Zimbabwean,Masters,2024-03-05_22h39.30.561,CRL1h,2023.2.3,Win32,60.24096386,65e67470ae2fbf2172c317b2,65e79a8f7357ea00136af8a8,,,,,,,,,,,953.3308,1.1,954.427,954.4308,954.8324,right,0,0.3814,,954.8327,955.8275,1,5,21,12,1,partial,2,images/Ex13.jpg,left,reversed,hard,1,,,,,
,,,,,612b6389df1f3d38677d06f2,001,34,female,Zimbabwean,Masters,2024-03-05_22h39.30.561,CRL1h,2023.2.3,Win32,60.24096386,65e67470ae2fbf2172c317b2,65e79a8f7357ea00136af8a8,,,,,,,,,,,955.8306,1.1,956.9266,956.9267,957.5936,left,0,0.6512,,957.5938,958.5932,1,6,22,7,1,partial,2,images/Ex16.jpg,right,nonreversed,hard,1,,,,,
,,,,,612b6389df1f3d38677d06f2,001,34,female,Zimbabwean,Masters,2024-03-05_22h39.30.561,CRL1h,2023.2.3,Win32,60.24096386,65e67470ae2fbf2172c317b2,65e79a8f7357ea00136af8a8,,,,,,,,,,,958.5958,1.2,959.7934,959.7934,960.1935,right,1,0.3824,,960.1936,961.1943,1,7,23,14,1,partial,2,images/Ex15.jpg,right,nonreversed,hard,1,,,,,
,,,,,612b6389df1f3d38677d06f2,001,34,female,Zimbabwean,Masters,2024-03-05_22h39.30.561,CRL1h,2023.2.3,Win32,60.24096386,65e67470ae2fbf2172c317b2,65e79a8f7357ea00136af8a8,,,,,,,,,,,961.1972,1.1,962.2943,962.2943,963.0964,left,0,0.795,,963.0967,964.0934,1,8,24,10,1,partial,2,images/Ex11.jpg,right,reversed,hard,1,,,,,
,,,,,612b6389df1f3d38677d06f2,001,34,female,Zimbabwean,Masters,2024-03-05_22h39.30.561,CRL1h,2023.2.3,Win32,60.24096386,65e67470ae2fbf2172c317b2,65e79a8f7357ea00136af8a8,,,,,,,,,,,964.0969,0.7,964.7944,964.7945,965.1628,right,0,0.3549,,965.1634,966.1624,1,9,25,13,1,partial,2,images/Ex14.jpg,left,reversed,hard,1,,,,,
,,,,,612b6389df1f3d38677d06f2,001,34,female,Zimbabwean,Masters,2024-03-05_22h39.30.561,CRL1h,2023.2.3,Win32,60.24096386,65e67470ae2fbf2172c317b2,65e79a8f7357ea00136af8a8,,,,,,,,,,,966.1645,0.7,966.861,966.8611,967.627,left,0,0.7435,,967.6272,968.628,1,10,26,6,1,partial,2,images/Ex15.jpg,right,nonreversed,hard,1,,,,,
,,,,,612b6389df1f3d38677d06f2,001,34,female,Zimbabwean,Masters,2024-03-05_22h39.30.561,CRL1h,2023.2.3,Win32,60.24096386,65e67470ae2fbf2172c317b2,65e79a8f7357ea00136af8a8,,,,,,,,,,,968.6304,1.2,969.8298,969.8298,970.061,right,0,0.2134,,970.0614,971.0598,1,11,27,0,1,partial,2,images/Ex9.jpg,left,nonreversed,hard,1,,,,,
,,,,,612b6389df1f3d38677d06f2,001,34,female,Zimbabwean,Masters,2024-03-05_22h39.30.561,CRL1h,2023.2.3,Win32,60.24096386,65e67470ae2fbf2172c317b2,65e79a8f7357ea00136af8a8,,,,,,,,,,,971.0633,0.9,971.9605,971.9606,972.3937,left,0,0.4243,,972.395,973.394,1,12,28,15,1,partial,2,images/Ex16.jpg,right,nonreversed,hard,1,,,,,
,,,,,612b6389df1f3d38677d06f2,001,34,female,Zimbabwean,Masters,2024-03-05_22h39.30.561,CRL1h,2023.2.3,Win32,60.24096386,65e67470ae2fbf2172c317b2,65e79a8f7357ea00136af8a8,,,,,,,,,,,973.3969,0.8,974.1941,974.1941,974.6276,right,1,0.4081,,974.6277,975.6261,1,13,29,11,1,partial,2,images/Ex12.jpg,right,reversed,hard,1,,,,,
,,,,,612b6389df1f3d38677d06f2,001,34,female,Zimbabwean,Masters,2024-03-05_22h39.30.561,CRL1h,2023.2.3,Win32,60.24096386,65e67470ae2fbf2172c317b2,65e79a8f7357ea00136af8a8,,,,,,,,,,,975.6281,0.5,976.1274,976.1275,976.7932,right,0,0.6462,,976.7933,977.7944,1,14,30,9,1,partial,2,images/Ex10.jpg,left,nonreversed,hard,1,,,,,
,,,,,612b6389df1f3d38677d06f2,001,34,female,Zimbabwean,Masters,2024-03-05_22h39.30.561,CRL1h,2023.2.3,Win32,60.24096386,65e67470ae2fbf2172c317b2,65e79a8f7357ea00136af8a8,,,,,,,,,,,977.7971,0.6,978.3934,978.3935,978.8268,left,1,0.4281,,978.8269,979.8276,1,15,31,1,1,partial,2,images/Ex10.jpg,left,nonreversed,hard,1,,,,,
,,,,,612b6389df1f3d38677d06f2,001,34,female,Zimbabwean,Masters,2024-03-05_22h39.30.561,CRL1h,2023.2.3,Win32,60.24096386,65e67470ae2fbf2172c317b2,65e79a8f7357ea00136af8a8,,,,,,,,,,,979.8302,1.3,981.1265,981.1267,981.4305,right,0,0.2987,,981.4306,982.4278,2,0,32,12,1,partial,2,images/Ex13.jpg,left,reversed,hard,1,,,,,
,,,,,612b6389df1f3d38677d06f2,001,34,female,Zimbabwean,Masters,2024-03-05_22h39.30.561,CRL1h,2023.2.3,Win32,60.24096386,65e67470ae2fbf2172c317b2,65e79a8f7357ea00136af8a8,,,,,,,,,,,982.4312,1.2,983.6325,983.6325,983.8937,left,0,0.2479,,983.8939,984.894,2,1,33,10,1,partial,2,images/Ex11.jpg,right,reversed,hard,1,,,,,
,,,,,612b6389df1f3d38677d06f2,001,34,female,Zimbabwean,Masters,2024-03-05_22h39.30.561,CRL1h,2023.2.3,Win32,60.24096386,65e67470ae2fbf2172c317b2,65e79a8f7357ea00136af8a8,,,,,,,,,,,984.8969,1.3,986.1942,986.1945,986.4936,right,0,0.2855,,986.495,987.4946,2,2,34,13,1,partial,2,images/Ex14.jpg,left,reversed,hard,1,,,,,
,,,,,612b6389df1f3d38677d06f2,001,34,female,Zimbabwean,Masters,2024-03-05_22h39.30.561,CRL1h,2023.2.3,Win32,60.24096386,65e67470ae2fbf2172c317b2,65e79a8f7357ea00136af8a8,,,,,,,,,,,987.4984,1.1,988.5943,988.5943,988.902,left,0,0.3017,,988.902,989.8945,2,3,35,15,1,partial,2,images/Ex16.jpg,right,nonreversed,hard,1,,,,,
,,,,,612b6389df1f3d38677d06f2,001,34,female,Zimbabwean,Masters,2024-03-05_22h39.30.561,CRL1h,2023.2.3,Win32,60.24096386,65e67470ae2fbf2172c317b2,65e79a8f7357ea00136af8a8,,,,,,,,,,,989.8974,1.5,991.3943,991.3946,992.1326,left,1,0.716,,992.1331,993.1319,2,4,36,9,1,partial,2,images/Ex10.jpg,left,nonreversed,hard,1,,,,,
,,,,,612b6389df1f3d38677d06f2,001,34,female,Zimbabwean,Masters,2024-03-05_22h39.30.561,CRL1h,2023.2.3,Win32,60.24096386,65e67470ae2fbf2172c317b2,65e79a8f7357ea00136af8a8,,,,,,,,,,,993.1328,1.2,994.33,994.3301,994.7281,right,0,0.3828,,994.7282,995.7286,2,5,37,1,1,partial,2,images/Ex10.jpg,left,nonreversed,hard,1,,,,,
,,,,,612b6389df1f3d38677d06f2,001,34,female,Zimbabwean,Masters,2024-03-05_22h39.30.561,CRL1h,2023.2.3,Win32,60.24096386,65e67470ae2fbf2172c317b2,65e79a8f7357ea00136af8a8,,,,,,,,,,,995.7306,0.7,996.4266,996.4268,996.8601,left,1,0.4125,,996.8602,997.8604,2,6,38,0,1,partial,2,images/Ex9.jpg,left,nonreversed,hard,1,,,,,
,,,,,612b6389df1f3d38677d06f2,001,34,female,Zimbabwean,Masters,2024-03-05_22h39.30.561,CRL1h,2023.2.3,Win32,60.24096386,65e67470ae2fbf2172c317b2,65e79a8f7357ea00136af8a8,,,,,,,,,,,997.8633,1.3,999.1601,999.1601,999.6305,left,0,0.4628,,999.632,1000.6291,2,7,39,2,1,partial,2,images/Ex11.jpg,right,reversed,hard,1,,,,,
,,,,,612b6389df1f3d38677d06f2,001,34,female,Zimbabwean,Masters,2024-03-05_22h39.30.561,CRL1h,2023.2.3,Win32,60.24096386,65e67470ae2fbf2172c317b2,65e79a8f7357ea00136af8a8,,,,,,,,,,,1000.6318,0.8,1001.4276,1001.4277,1001.8022,right,1,0.3711,,1001.8027,1002.7938,2,8,40,11,1,partial,2,images/Ex12.jpg,right,reversed,hard,1,,,,,
,,,,,612b6389df1f3d38677d06f2,001,34,female,Zimbabwean,Masters,2024-03-05_22h39.30.561,CRL1h,2023.2.3,Win32,60.24096386,65e67470ae2fbf2172c317b2,65e79a8f7357ea00136af8a8,,,,,,,,,,,1002.7966,1.4,1004.1947,1004.1948,1004.5646,left,0,0.3488,,1004.5648,1005.5606,2,9,41,7,1,partial,2,images/Ex16.jpg,right,nonreversed,hard,1,,,,,
,,,,,612b6389df1f3d38677d06f2,001,34,female,Zimbabwean,Masters,2024-03-05_22h39.30.561,CRL1h,2023.2.3,Win32,60.24096386,65e67470ae2fbf2172c317b2,65e79a8f7357ea00136af8a8,,,,,,,,,,,1005.5632,1.3,1006.8606,1006.8606,1007.2626,right,0,0.3827,,1007.2628,1008.2618,2,10,42,8,1,partial,2,images/Ex9.jpg,left,nonreversed,hard,1,,,,,
,,,,,612b6389df1f3d38677d06f2,001,34,female,Zimbabwean,Masters,2024-03-05_22h39.30.561,CRL1h,2023.2.3,Win32,60.24096386,65e67470ae2fbf2172c317b2,65e79a8f7357ea00136af8a8,,,,,,,,,,,1008.264,0.7,1008.9622,1008.9624,1009.3951,right,1,0.4261,,1009.3952,1010.3939,2,11,43,6,1,partial,2,images/Ex15.jpg,right,nonreversed,hard,1,,,,,
,,,,,612b6389df1f3d38677d06f2,001,34,female,Zimbabwean,Masters,2024-03-05_22h39.30.561,CRL1h,2023.2.3,Win32,60.24096386,65e67470ae2fbf2172c317b2,65e79a8f7357ea00136af8a8,,,,,,,,,,,1010.3985,0.6,1010.9941,1010.9943,1012.1312,left,1,1.1142,,1012.1313,1013.1293,2,12,44,4,1,partial,2,images/Ex13.jpg,left,reversed,hard,1,,,,,
,,,,,612b6389df1f3d38677d06f2,001,34,female,Zimbabwean,Masters,2024-03-05_22h39.30.561,CRL1h,2023.2.3,Win32,60.24096386,65e67470ae2fbf2172c317b2,65e79a8f7357ea00136af8a8,,,,,,,,,,,1013.1307,1,1014.1276,1014.1276,1014.5607,left,0,0.4118,,1014.5621,1015.5603,2,13,45,14,1,partial,2,images/Ex15.jpg,right,nonreversed,hard,1,,,,,
,,,,,612b6389df1f3d38677d06f2,001,34,female,Zimbabwean,Masters,2024-03-05_22h39.30.561,CRL1h,2023.2.3,Win32,60.24096386,65e67470ae2fbf2172c317b2,65e79a8f7357ea00136af8a8,,,,,,,,,,,1015.5638,1.5,1017.0613,1017.0616,1017.4612,right,1,0.3893,,1017.4614,1018.4608,2,14,46,3,1,partial,2,images/Ex12.jpg,right,reversed,hard,1,,,,,
,,,,,612b6389df1f3d38677d06f2,001,34,female,Zimbabwean,Masters,2024-03-05_22h39.30.561,CRL1h,2023.2.3,Win32,60.24096386,65e67470ae2fbf2172c317b2,65e79a8f7357ea00136af8a8,,,,,,,,,,,1018.4635,0.7,1019.1594,1019.1595,1021.6329,left,1,2.4615,,1021.633,1022.6278,2,15,47,5,1,partial,2,images/Ex14.jpg,left,reversed,hard,1,,,,,
,,,,,612b6389df1f3d38677d06f2,001,34,female,Zimbabwean,Masters,2024-03-05_22h39.30.561,CRL1h,2023.2.3,Win32,60.24096386,65e67470ae2fbf2172c317b2,65e79a8f7357ea00136af8a8,,,,,,,,,,,1022.6294,1,1023.6284,1023.6284,1024.0963,left,1,0.4497,,1024.0965,1025.0944,3,0,48,0,1,partial,2,images/Ex9.jpg,left,nonreversed,hard,1,,,,,
,,,,,612b6389df1f3d38677d06f2,001,34,female,Zimbabwean,Masters,2024-03-05_22h39.30.561,CRL1h,2023.2.3,Win32,60.24096386,65e67470ae2fbf2172c317b2,65e79a8f7357ea00136af8a8,,,,,,,,,,,1025.0988,1.1,1026.1944,1026.1945,1026.6288,left,1,0.415,,1026.6302,1027.6322,3,1,49,5,1,partial,2,images/Ex14.jpg,left,reversed,hard,1,,,,,
,,,,,612b6389df1f3d38677d06f2,001,34,female,Zimbabwean,Masters,2024-03-05_22h39.30.561,CRL1h,2023.2.3,Win32,60.24096386,65e67470ae2fbf2172c317b2,65e79a8f7357ea00136af8a8,,,,,,,,,,,1027.6331,1,1028.6293,1028.6293,1029.1298,left,1,0.4929,,1029.1298,1030.1264,3,2,50,9,1,partial,2,images/Ex10.jpg,left,nonreversed,hard,1,,,,,
,,,,,612b6389df1f3d38677d06f2,001,34,female,Zimbabwean,Masters,2024-03-05_22h39.30.561,CRL1h,2023.2.3,Win32,60.24096386,65e67470ae2fbf2172c317b2,65e79a8f7357ea00136af8a8,,,,,,,,,,,1030.1275,0.8,1030.9324,1030.9324,1031.4299,left,0,0.4818,,1031.4299,1032.4317,3,3,51,10,1,partial,2,images/Ex11.jpg,right,reversed,hard,1,,,,,
,,,,,612b6389df1f3d38677d06f2,001,34,female,Zimbabwean,Masters,2024-03-05_22h39.30.561,CRL1h,2023.2.3,Win32,60.24096386,65e67470ae2fbf2172c317b2,65e79a8f7357ea00136af8a8,,,,,,,,,,,1032.4326,0.8,1033.2284,1033.2285,1033.6623,right,0,0.4213,,1033.6625,1034.661,3,4,52,8,1,partial,2,images/Ex9.jpg,left,nonreversed,hard,1,,,,,
,,,,,612b6389df1f3d38677d06f2,001,34,female,Zimbabwean,Masters,2024-03-05_22h39.30.561,CRL1h,2023.2.3,Win32,60.24096386,65e67470ae2fbf2172c317b2,65e79a8f7357ea00136af8a8,,,,,,,,,,,1034.6638,1.1,1035.761,1035.7611,1036.033,right,1,0.252,,1036.033,1037.029,3,5,53,6,1,partial,2,images/Ex15.jpg,right,nonreversed,hard,1,,,,,
,,,,,612b6389df1f3d38677d06f2,001,34,female,Zimbabwean,Masters,2024-03-05_22h39.30.561,CRL1h,2023.2.3,Win32,60.24096386,65e67470ae2fbf2172c317b2,65e79a8f7357ea00136af8a8,,,,,,,,,,,1037.0315,0.5,1037.53,1037.5301,1038.1297,right,0,0.5808,,1038.1299,1039.13,3,6,54,4,1,partial,2,images/Ex13.jpg,left,reversed,hard,1,,,,,
,,,,,612b6389df1f3d38677d06f2,001,34,female,Zimbabwean,Masters,2024-03-05_22h39.30.561,CRL1h,2023.2.3,Win32,60.24096386,65e67470ae2fbf2172c317b2,65e79a8f7357ea00136af8a8,,,,,,,,,,,1039.1321,1.1,1040.2325,1040.2326,1040.4985,right,0,0.2456,,1040.4986,1041.4952,3,7,55,12,1,partial,2,images/Ex13.jpg,left,reversed,hard,1,,,,,
,,,,,612b6389df1f3d38677d06f2,001,34,female,Zimbabwean,Masters,2024-03-05_22h39.30.561,CRL1h,2023.2.3,Win32,60.24096386,65e67470ae2fbf2172c317b2,65e79a8f7357ea00136af8a8,,,,,,,,,,,1041.499,1.5,1042.9951,1042.9954,1043.3407,left,0,0.3244,,1043.3412,1044.3321,3,8,56,2,1,partial,2,images/Ex11.jpg,right,reversed,hard,1,,,,,
,,,,,612b6389df1f3d38677d06f2,001,34,female,Zimbabwean,Masters,2024-03-05_22h39.30.561,CRL1h,2023.2.3,Win32,60.24096386,65e67470ae2fbf2172c317b2,65e79a8f7357ea00136af8a8,,,,,,,,,,,1044.3331,1.2,1045.5293,1045.5295,1045.9366,right,0,0.4015,,1045.937,1046.9322,3,9,57,13,1,partial,2,images/Ex14.jpg,left,reversed,hard,1,,,,,
,,,,,612b6389df1f3d38677d06f2,001,34,female,Zimbabwean,Masters,2024-03-05_22h39.30.561,CRL1h,2023.2.3,Win32,60.24096386,65e67470ae2fbf2172c317b2,65e79a8f7357ea00136af8a8,,,,,,,,,,,1046.9331,0.7,1047.6301,1047.6302,1048.1327,left,0,0.4819,,1048.1328,1049.1319,3,10,58,7,1,partial,2,images/Ex16.jpg,right,nonreversed,hard,1,,,,,
,,,,,612b6389df1f3d38677d06f2,001,34,female,Zimbabwean,Masters,2024-03-05_22h39.30.561,CRL1h,2023.2.3,Win32,60.24096386,65e67470ae2fbf2172c317b2,65e79a8f7357ea00136af8a8,,,,,,,,,,,1049.1328,1.4,1050.5299,1050.5301,1050.8037,right,1,0.27,,1050.8037,1051.7947,3,11,59,15,1,partial,2,images/Ex16.jpg,right,nonreversed,hard,1,,,,,
,,,,,612b6389df1f3d38677d06f2,001,34,female,Zimbabwean,Masters,2024-03-05_22h39.30.561,CRL1h,2023.2.3,Win32,60.24096386,65e67470ae2fbf2172c317b2,65e79a8f7357ea00136af8a8,,,,,,,,,,,1051.799,1.1,1052.8946,1052.8949,1053.2626,right,1,0.3518,,1053.2626,1054.261,3,12,60,11,1,partial,2,images/Ex12.jpg,right,reversed,hard,1,,,,,
,,,,,612b6389df1f3d38677d06f2,001,34,female,Zimbabwean,Masters,2024-03-05_22h39.30.561,CRL1h,2023.2.3,Win32,60.24096386,65e67470ae2fbf2172c317b2,65e79a8f7357ea00136af8a8,,,,,,,,,,,1054.2645,1.1,1055.3617,1055.3618,1055.6987,right,1,0.3196,,1055.6988,1056.6962,3,13,61,3,1,partial,2,images/Ex12.jpg,right,reversed,hard,1,,,,,
,,,,,612b6389df1f3d38677d06f2,001,34,female,Zimbabwean,Masters,2024-03-05_22h39.30.561,CRL1h,2023.2.3,Win32,60.24096386,65e67470ae2fbf2172c317b2,65e79a8f7357ea00136af8a8,,,,,,,,,,,1056.7,0.7,1057.3951,1057.3952,1057.9314,right,0,0.5148,,1057.9315,1058.93,3,14,62,1,1,partial,2,images/Ex10.jpg,left,nonreversed,hard,1,,,,,
,,,,,612b6389df1f3d38677d06f2,001,34,female,Zimbabwean,Masters,2024-03-05_22h39.30.561,CRL1h,2023.2.3,Win32,60.24096386,65e67470ae2fbf2172c317b2,65e79a8f7357ea00136af8a8,,,,,,,,,,,1058.9323,1.2,1060.1297,1060.1298,1060.9656,left,0,0.8166,,1060.966,1061.9619,3,15,63,14,1,partial,2,images/Ex15.jpg,right,nonreversed,hard,1,,,,,
,,,,,612b6389df1f3d38677d06f2,001,34,female,Zimbabwean,Masters,2024-03-05_22h39.30.561,CRL1h,2023.2.3,Win32,60.24096386,65e67470ae2fbf2172c317b2,65e79a8f7357ea00136af8a8,,,,,,1061.9656,1067.3633,space,5.3736,,1067.4186,1,1068.3952,1068.3953,1069.162,right,1,0.7456,,1069.1634,1070.1622,0,0,0,13,1,total,1,images/Ex6.jpg,right,training,hard,1,,,,,
,,,,,612b6389df1f3d38677d06f2,001,34,female,Zimbabwean,Masters,2024-03-05_22h39.30.561,CRL1h,2023.2.3,Win32,60.24096386,65e67470ae2fbf2172c317b2,65e79a8f7357ea00136af8a8,,,,,,,,,,,1070.1652,0.5,1070.662,1070.6623,1071.1319,right,1,0.463,,1071.1319,1072.1322,0,1,1,15,1,total,1,images/Ex8.jpg,right,training,hard,1,,,,,
,,,,,612b6389df1f3d38677d06f2,001,34,female,Zimbabwean,Masters,2024-03-05_22h39.30.561,CRL1h,2023.2.3,Win32,60.24096386,65e67470ae2fbf2172c317b2,65e79a8f7357ea00136af8a8,,,,,,,,,,,1072.1332,1.3,1073.4324,1073.4325,1074.0645,left,0,0.6189,,1074.0651,1075.0622,0,2,2,4,1,total,1,images/Ex5.jpg,right,training,hard,1,,,,,
,,,,,612b6389df1f3d38677d06f2,001,34,female,Zimbabwean,Masters,2024-03-05_22h39.30.561,CRL1h,2023.2.3,Win32,60.24096386,65e67470ae2fbf2172c317b2,65e79a8f7357ea00136af8a8,,,,,,,,,,,1075.065,1.2,1076.2622,1076.2625,1076.8043,left,1,0.537,,1076.8044,1077.7959,0,3,3,8,1,total,1,images/Ex1.jpg,left,training,hard,1,,,,,
,,,,,612b6389df1f3d38677d06f2,001,34,female,Zimbabwean,Masters,2024-03-05_22h39.30.561,CRL1h,2023.2.3,Win32,60.24096386,65e67470ae2fbf2172c317b2,65e79a8f7357ea00136af8a8,,,,,,,,,,,1077.8004,0.5,1078.2951,1078.2952,1079.1635,right,1,0.8482,,1079.1638,1080.1622,0,4,4,12,1,total,1,images/Ex5.jpg,right,training,hard,1,,,,,
,,,,,612b6389df1f3d38677d06f2,001,34,female,Zimbabwean,Masters,2024-03-05_22h39.30.561,CRL1h,2023.2.3,Win32,60.24096386,65e67470ae2fbf2172c317b2,65e79a8f7357ea00136af8a8,,,,,,,,,,,1080.1649,1.5,1081.6629,1081.663,1082.2314,left,1,0.5521,,1082.2315,1083.229,0,5,5,0,1,total,1,images/Ex1.jpg,left,training,hard,1,,,,,
,,,,,612b6389df1f3d38677d06f2,001,34,female,Zimbabwean,Masters,2024-03-05_22h39.30.561,CRL1h,2023.2.3,Win32,60.24096386,65e67470ae2fbf2172c317b2,65e79a8f7357ea00136af8a8,,,,,,,,,,,1083.2324,0.9,1084.1296,1084.13,1084.633,right,1,0.4924,,1084.633,1085.6317,0,6,6,6,1,total,1,images/Ex7.jpg,right,training,hard,1,,,,,
,,,,,612b6389df1f3d38677d06f2,001,34,female,Zimbabwean,Masters,2024-03-05_22h39.30.561,CRL1h,2023.2.3,Win32,60.24096386,65e67470ae2fbf2172c317b2,65e79a8f7357ea00136af8a8,,,,,,,,,,,1085.6334,0.6,1086.2318,1086.2324,1086.9993,left,1,0.7472,,1086.9994,1087.9961,0,7,7,3,1,total,1,images/Ex4.jpg,left,training,hard,1,,,,,
,,,,,612b6389df1f3d38677d06f2,001,34,female,Zimbabwean,Masters,2024-03-05_22h39.30.561,CRL1h,2023.2.3,Win32,60.24096386,65e67470ae2fbf2172c317b2,65e79a8f7357ea00136af8a8,,,,,,,,,,,1088.0005,0.7,1088.6991,1088.6992,1089.464,right,1,0.7458,,1089.4643,1090.4614,0,8,8,14,1,total,1,images/Ex7.jpg,right,training,hard,1,,,,,
,,,,,612b6389df1f3d38677d06f2,001,34,female,Zimbabwean,Masters,2024-03-05_22h39.30.561,CRL1h,2023.2.3,Win32,60.24096386,65e67470ae2fbf2172c317b2,65e79a8f7357ea00136af8a8,,,,,,,,,,,1090.4648,0.9,1091.3636,1091.3636,1091.9311,right,1,0.5486,,1091.9312,1092.9323,0,9,9,7,1,total,1,images/Ex8.jpg,right,training,hard,1,,,,,
,,,,,612b6389df1f3d38677d06f2,001,34,female,Zimbabwean,Masters,2024-03-05_22h39.30.561,CRL1h,2023.2.3,Win32,60.24096386,65e67470ae2fbf2172c317b2,65e79a8f7357ea00136af8a8,,,,,,,,,,,1092.9333,1.4,1094.3299,1094.33,1095.0303,left,1,0.6815,,1095.0305,1096.0291,0,10,10,11,1,total,1,images/Ex4.jpg,left,training,hard,1,,,,,
,,,,,612b6389df1f3d38677d06f2,001,34,female,Zimbabwean,Masters,2024-03-05_22h39.30.561,CRL1h,2023.2.3,Win32,60.24096386,65e67470ae2fbf2172c317b2,65e79a8f7357ea00136af8a8,,,,,,,,,,,1096.032,1.2,1097.2302,1097.2306,1097.8625,right,0,0.6154,,1097.8625,1098.8619,0,11,11,2,1,total,1,images/Ex3.jpg,left,training,hard,1,,,,,
,,,,,612b6389df1f3d38677d06f2,001,34,female,Zimbabwean,Masters,2024-03-05_22h39.30.561,CRL1h,2023.2.3,Win32,60.24096386,65e67470ae2fbf2172c317b2,65e79a8f7357ea00136af8a8,,,,,,,,,,,1098.8653,0.7,1099.5619,1099.5619,1100.4648,right,1,0.8955,,1100.4649,1101.4621,0,12,12,5,1,total,1,images/Ex6.jpg,right,training,hard,1,,,,,
,,,,,612b6389df1f3d38677d06f2,001,34,female,Zimbabwean,Masters,2024-03-05_22h39.30.561,CRL1h,2023.2.3,Win32,60.24096386,65e67470ae2fbf2172c317b2,65e79a8f7357ea00136af8a8,,,,,,,,,,,1101.465,0.8,1102.263,1102.2634,1103.0962,right,0,0.818,,1103.1041,1104.0948,0,13,13,9,1,total,1,images/Ex2.jpg,left,training,hard,1,,,,,
,,,,,612b6389df1f3d38677d06f2,001,34,female,Zimbabwean,Masters,2024-03-05_22h39.30.561,CRL1h,2023.2.3,Win32,60.24096386,65e67470ae2fbf2172c317b2,65e79a8f7357ea00136af8a8,,,,,,,,,,,1104.0985,1.2,1105.2954,1105.2955,1106.0993,left,1,0.7825,,1106.0994,1107.0961,0,14,14,10,1,total,1,images/Ex3.jpg,left,training,hard,1,,,,,
,,,,,612b6389df1f3d38677d06f2,001,34,female,Zimbabwean,Masters,2024-03-05_22h39.30.561,CRL1h,2023.2.3,Win32,60.24096386,65e67470ae2fbf2172c317b2,65e79a8f7357ea00136af8a8,,,,,,,,,,,1107.0998,0.6,1107.6962,1107.6964,1108.4996,right,0,0.7835,,1108.4997,1109.4956,0,15,15,1,1,total,1,images/Ex2.jpg,left,training,hard,1,,,,,
,,,,,612b6389df1f3d38677d06f2,001,34,female,Zimbabwean,Masters,2024-03-05_22h39.30.561,CRL1h,2023.2.3,Win32,60.24096386,65e67470ae2fbf2172c317b2,65e79a8f7357ea00136af8a8,,,,,,,,,,,1109.5008,0.7,1110.1965,1110.1971,1110.9326,right,1,0.717,,1110.9327,1111.9289,1,0,16,4,1,total,1,images/Ex5.jpg,right,training,hard,1,,,,,
,,,,,612b6389df1f3d38677d06f2,001,34,female,Zimbabwean,Masters,2024-03-05_22h39.30.561,CRL1h,2023.2.3,Win32,60.24096386,65e67470ae2fbf2172c317b2,65e79a8f7357ea00136af8a8,,,,,,,,,,,1111.9302,0.8,1112.7299,1112.7303,1113.6644,left,0,0.9172,,1113.6646,1114.6628,1,1,17,13,1,total,1,images/Ex6.jpg,right,training,hard,1,,,,,
,,,,,612b6389df1f3d38677d06f2,001,34,female,Zimbabwean,Masters,2024-03-05_22h39.30.561,CRL1h,2023.2.3,Win32,60.24096386,65e67470ae2fbf2172c317b2,65e79a8f7357ea00136af8a8,,,,,,,,,,,1114.6655,1.4,1116.0631,1116.0634,1116.5983,left,1,0.5182,,1116.5985,1117.5957,1,2,18,2,1,total,1,images/Ex3.jpg,left,training,hard,1,,,,,
,,,,,612b6389df1f3d38677d06f2,001,34,female,Zimbabwean,Masters,2024-03-05_22h39.30.561,CRL1h,2023.2.3,Win32,60.24096386,65e67470ae2fbf2172c317b2,65e79a8f7357ea00136af8a8,,,,,,,,,,,1117.6002,0.6,1118.1965,1118.1966,1119.232,right,1,1.0157,,1119.2321,1120.2317,1,3,19,15,1,total,1,images/Ex8.jpg,right,training,hard,1,,,,,
,,,,,612b6389df1f3d38677d06f2,001,34,female,Zimbabwean,Masters,2024-03-05_22h39.30.561,CRL1h,2023.2.3,Win32,60.24096386,65e67470ae2fbf2172c317b2,65e79a8f7357ea00136af8a8,,,,,,,,,,,1120.2331,0.8,1121.0293,1121.0295,1121.6329,right,1,0.5977,,1121.6335,1122.6298,1,4,20,12,1,total,1,images/Ex5.jpg,right,training,hard,1,,,,,
,,,,,612b6389df1f3d38677d06f2,001,34,female,Zimbabwean,Masters,2024-03-05_22h39.30.561,CRL1h,2023.2.3,Win32,60.24096386,65e67470ae2fbf2172c317b2,65e79a8f7357ea00136af8a8,,,,,,,,,,,1122.6325,1.2,1123.8309,1123.8313,1124.4299,right,1,0.5833,,1124.43,1125.4298,1,5,21,14,1,total,1,images/Ex7.jpg,right,training,hard,1,,,,,
,,,,,612b6389df1f3d38677d06f2,001,34,female,Zimbabwean,Masters,2024-03-05_22h39.30.561,CRL1h,2023.2.3,Win32,60.24096386,65e67470ae2fbf2172c317b2,65e79a8f7357ea00136af8a8,,,,,,,,,,,1125.4326,1.2,1126.6316,1126.6317,1127.234,right,1,0.5811,,1127.2341,1128.2317,1,6,22,7,1,total,1,images/Ex8.jpg,right,training,hard,1,,,,,
,,,,,612b6389df1f3d38677d06f2,001,34,female,Zimbabwean,Masters,2024-03-05_22h39.30.561,CRL1h,2023.2.3,Win32,60.24096386,65e67470ae2fbf2172c317b2,65e79a8f7357ea00136af8a8,,,,,,,,,,,1128.2332,0.7,1128.9296,1128.9297,1129.5649,right,1,0.6291,,1129.565,1130.5623,1,7,23,6,1,total,1,images/Ex7.jpg,right,training,hard,1,,,,,
,,,,,612b6389df1f3d38677d06f2,001,34,female,Zimbabwean,Masters,2024-03-05_22h39.30.561,CRL1h,2023.2.3,Win32,60.24096386,65e67470ae2fbf2172c317b2,65e79a8f7357ea00136af8a8,,,,,,,,,,,1130.565,1.2,1131.7629,1131.763,1132.2643,right,1,0.4896,,1132.2644,1133.2632,1,8,24,5,1,total,1,images/Ex6.jpg,right,training,hard,1,,,,,
,,,,,612b6389df1f3d38677d06f2,001,34,female,Zimbabwean,Masters,2024-03-05_22h39.30.561,CRL1h,2023.2.3,Win32,60.24096386,65e67470ae2fbf2172c317b2,65e79a8f7357ea00136af8a8,,,,,,,,,,,1133.2659,1.3,1134.5636,1134.564,1135.5334,left,1,0.9512,,1135.5337,1136.5323,1,9,25,8,1,total,1,images/Ex1.jpg,left,training,hard,1,,,,,
,,,,,612b6389df1f3d38677d06f2,001,34,female,Zimbabwean,Masters,2024-03-05_22h39.30.561,CRL1h,2023.2.3,Win32,60.24096386,65e67470ae2fbf2172c317b2,65e79a8f7357ea00136af8a8,,,,,,,,,,,1136.5333,1.3,1137.832,1137.8321,1138.8629,left,1,1.0135,,1138.8631,1139.8626,1,10,26,9,1,total,1,images/Ex2.jpg,left,training,hard,1,,,,,
,,,,,612b6389df1f3d38677d06f2,001,34,female,Zimbabwean,Masters,2024-03-05_22h39.30.561,CRL1h,2023.2.3,Win32,60.24096386,65e67470ae2fbf2172c317b2,65e79a8f7357ea00136af8a8,,,,,,,,,,,1139.8653,1.3,1141.163,1141.1631,1141.9328,left,1,0.7485,,1141.9329,1142.9319,1,11,27,0,1,total,1,images/Ex1.jpg,left,training,hard,1,,,,,
,,,,,612b6389df1f3d38677d06f2,001,34,female,Zimbabwean,Masters,2024-03-05_22h39.30.561,CRL1h,2023.2.3,Win32,60.24096386,65e67470ae2fbf2172c317b2,65e79a8f7357ea00136af8a8,,,,,,,,,,,1142.9334,1,1143.9312,1143.9312,1145.4051,left,1,1.4692,,1145.4052,1146.3981,1,12,28,1,1,total,1,images/Ex2.jpg,left,training,hard,1,,,,,
,,,,,612b6389df1f3d38677d06f2,001,34,female,Zimbabwean,Masters,2024-03-05_22h39.30.561,CRL1h,2023.2.3,Win32,60.24096386,65e67470ae2fbf2172c317b2,65e79a8f7357ea00136af8a8,,,,,,,,,,,1146.4005,0.9,1147.2963,1147.2964,1147.9959,left,1,0.6892,,1147.996,1148.9965,1,13,29,10,1,total,1,images/Ex3.jpg,left,training,hard,1,,,,,
,,,,,612b6389df1f3d38677d06f2,001,34,female,Zimbabwean,Masters,2024-03-05_22h39.30.561,CRL1h,2023.2.3,Win32,60.24096386,65e67470ae2fbf2172c317b2,65e79a8f7357ea00136af8a8,,,,,,,,,,,1149.0005,0.5,1149.4964,1149.4966,1150.2022,left,1,0.6988,,1150.2022,1151.1961,1,14,30,11,1,total,1,images/Ex4.jpg,left,training,hard,1,,,,,
,,,,,612b6389df1f3d38677d06f2,001,34,female,Zimbabwean,Masters,2024-03-05_22h39.30.561,CRL1h,2023.2.3,Win32,60.24096386,65e67470ae2fbf2172c317b2,65e79a8f7357ea00136af8a8,,,,,,,,,,,1151.2008,1.2,1152.3963,1152.3968,1152.9638,left,1,0.552,,1152.9639,1153.9633,1,15,31,3,1,total,1,images/Ex4.jpg,left,training,hard,1,,,,,
,,,,,612b6389df1f3d38677d06f2,001,34,female,Zimbabwean,Masters,2024-03-05_22h39.30.561,CRL1h,2023.2.3,Win32,60.24096386,65e67470ae2fbf2172c317b2,65e79a8f7357ea00136af8a8,,,,,,,,,,,1153.9662,1,1154.9628,1154.9628,1155.8299,left,0,0.8491,,1155.8313,1156.8308,2,0,32,13,1,total,1,images/Ex6.jpg,right,training,hard,1,,,,,
,,,,,612b6389df1f3d38677d06f2,001,34,female,Zimbabwean,Masters,2024-03-05_22h39.30.561,CRL1h,2023.2.3,Win32,60.24096386,65e67470ae2fbf2172c317b2,65e79a8f7357ea00136af8a8,,,,,,,,,,,1156.8327,1.4,1158.2317,1158.2319,1158.832,right,0,0.5852,,1158.8321,1159.8319,2,1,33,9,1,total,1,images/Ex2.jpg,left,training,hard,1,,,,,
,,,,,612b6389df1f3d38677d06f2,001,34,female,Zimbabwean,Masters,2024-03-05_22h39.30.561,CRL1h,2023.2.3,Win32,60.24096386,65e67470ae2fbf2172c317b2,65e79a8f7357ea00136af8a8,,,,,,,,,,,1159.8335,1.3,1161.1319,1161.1321,1162.2651,left,1,1.1194,,1162.2654,1163.2635,2,2,34,11,1,total,1,images/Ex4.jpg,left,training,hard,1,,,,,
,,,,,612b6389df1f3d38677d06f2,001,34,female,Zimbabwean,Masters,2024-03-05_22h39.30.561,CRL1h,2023.2.3,Win32,60.24096386,65e67470ae2fbf2172c317b2,65e79a8f7357ea00136af8a8,,,,,,,,,,,1163.2668,0.9,1164.163,1164.1631,1164.805,left,1,0.618,,1164.805,1165.7968,2,3,35,2,1,total,1,images/Ex3.jpg,left,training,hard,1,,,,,
,,,,,612b6389df1f3d38677d06f2,001,34,female,Zimbabwean,Masters,2024-03-05_22h39.30.561,CRL1h,2023.2.3,Win32,60.24096386,65e67470ae2fbf2172c317b2,65e79a8f7357ea00136af8a8,,,,,,,,,,,1165.7985,0.6,1166.395,1166.3951,1167.1011,left,1,0.683,,1167.1013,1168.0972,2,4,36,8,1,total,1,images/Ex1.jpg,left,training,hard,1,,,,,
,,,,,612b6389df1f3d38677d06f2,001,34,female,Zimbabwean,Masters,2024-03-05_22h39.30.561,CRL1h,2023.2.3,Win32,60.24096386,65e67470ae2fbf2172c317b2,65e79a8f7357ea00136af8a8,,,,,,,,,,,1168.1002,1.1,1169.1957,1169.1959,1169.9314,right,1,0.7201,,1169.932,1170.9299,2,5,37,7,1,total,1,images/Ex8.jpg,right,training,hard,1,,,,,
,,,,,612b6389df1f3d38677d06f2,001,34,female,Zimbabwean,Masters,2024-03-05_22h39.30.561,CRL1h,2023.2.3,Win32,60.24096386,65e67470ae2fbf2172c317b2,65e79a8f7357ea00136af8a8,,,,,,,,,,,1170.9327,1.3,1172.2304,1172.2305,1172.7359,right,1,0.5009,,1172.736,1173.7301,2,6,38,4,1,total,1,images/Ex5.jpg,right,training,hard,1,,,,,
,,,,,612b6389df1f3d38677d06f2,001,34,female,Zimbabwean,Masters,2024-03-05_22h39.30.561,CRL1h,2023.2.3,Win32,60.24096386,65e67470ae2fbf2172c317b2,65e79a8f7357ea00136af8a8,,,,,,,,,,,1173.7327,0.9,1174.6316,1174.6317,1175.1964,right,0,0.5497,,1175.1965,1176.1972,2,7,39,10,1,total,1,images/Ex3.jpg,left,training,hard,1,,,,,
,,,,,612b6389df1f3d38677d06f2,001,34,female,Zimbabwean,Masters,2024-03-05_22h39.30.561,CRL1h,2023.2.3,Win32,60.24096386,65e67470ae2fbf2172c317b2,65e79a8f7357ea00136af8a8,,,,,,,,,,,1176.2,1.4,1177.5973,1177.5974,1178.8977,left,1,1.29,,1178.8977,1179.9004,2,8,40,1,1,total,1,images/Ex2.jpg,left,training,hard,1,,,,,
,,,,,612b6389df1f3d38677d06f2,001,34,female,Zimbabwean,Masters,2024-03-05_22h39.30.561,CRL1h,2023.2.3,Win32,60.24096386,65e67470ae2fbf2172c317b2,65e79a8f7357ea00136af8a8,,,,,,,,,,,1179.9013,1.3,1181.1975,1181.1976,1182.0487,left,0,0.832,,1182.049,1183.0486,2,9,41,5,1,total,1,images/Ex6.jpg,right,training,hard,1,,,,,
,,,,,612b6389df1f3d38677d06f2,001,34,female,Zimbabwean,Masters,2024-03-05_22h39.30.561,CRL1h,2023.2.3,Win32,60.24096386,65e67470ae2fbf2172c317b2,65e79a8f7357ea00136af8a8,,,,,,,,,,,1183.0513,1.2,1184.247,1184.2471,1184.9859,left,1,0.7323,,1184.9865,1185.9818,2,10,42,3,1,total,1,images/Ex4.jpg,left,training,hard,1,,,,,
,,,,,612b6389df1f3d38677d06f2,001,34,female,Zimbabwean,Masters,2024-03-05_22h39.30.561,CRL1h,2023.2.3,Win32,60.24096386,65e67470ae2fbf2172c317b2,65e79a8f7357ea00136af8a8,,,,,,,,,,,1185.984,1.2,1187.1818,1187.1818,1187.8859,right,1,0.6986,,1187.8867,1188.8831,2,11,43,15,1,total,1,images/Ex8.jpg,right,training,hard,1,,,,,
,,,,,612b6389df1f3d38677d06f2,001,34,female,Zimbabwean,Masters,2024-03-05_22h39.30.561,CRL1h,2023.2.3,Win32,60.24096386,65e67470ae2fbf2172c317b2,65e79a8f7357ea00136af8a8,,,,,,,,,,,1188.8859,1.1,1189.9795,1189.9796,1190.5868,right,1,0.6017,,1190.5868,1191.5795,2,12,44,12,1,total,1,images/Ex5.jpg,right,training,hard,1,,,,,
,,,,,612b6389df1f3d38677d06f2,001,34,female,Zimbabwean,Masters,2024-03-05_22h39.30.561,CRL1h,2023.2.3,Win32,60.24096386,65e67470ae2fbf2172c317b2,65e79a8f7357ea00136af8a8,,,,,,,,,,,1191.5829,1.3,1192.885,1192.8851,1193.582,left,1,0.6805,,1193.5824,1194.5815,2,13,45,0,1,total,1,images/Ex1.jpg,left,training,hard,1,,,,,
,,,,,612b6389df1f3d38677d06f2,001,34,female,Zimbabwean,Masters,2024-03-05_22h39.30.561,CRL1h,2023.2.3,Win32,60.24096386,65e67470ae2fbf2172c317b2,65e79a8f7357ea00136af8a8,,,,,,,,,,,1194.5835,1.3,1195.8812,1195.8814,1196.9158,right,1,1.0234,,1196.9159,1197.914,2,14,46,14,1,total,1,images/Ex7.jpg,right,training,hard,1,,,,,
,,,,,612b6389df1f3d38677d06f2,001,34,female,Zimbabwean,Masters,2024-03-05_22h39.30.561,CRL1h,2023.2.3,Win32,60.24096386,65e67470ae2fbf2172c317b2,65e79a8f7357ea00136af8a8,,,,,,,,,,,1197.9178,1.4,1199.3139,1199.3141,1200.2544,right,1,0.9235,,1200.2545,1201.2484,2,15,47,6,1,total,1,images/Ex7.jpg,right,training,hard,1,,,,,
,,,,,612b6389df1f3d38677d06f2,001,34,female,Zimbabwean,Masters,2024-03-05_22h39.30.561,CRL1h,2023.2.3,Win32,60.24096386,65e67470ae2fbf2172c317b2,65e79a8f7357ea00136af8a8,,,,,,,,,,,1201.2536,0.8,1202.0479,1202.0479,1202.9175,left,1,0.8503,,1202.9176,1203.9143,3,0,48,2,1,total,1,images/Ex3.jpg,left,training,hard,1,,,,,
,,,,,612b6389df1f3d38677d06f2,001,34,female,Zimbabwean,Masters,2024-03-05_22h39.30.561,CRL1h,2023.2.3,Win32,60.24096386,65e67470ae2fbf2172c317b2,65e79a8f7357ea00136af8a8,,,,,,,,,,,1203.9177,1.1,1205.0139,1205.0141,1205.6821,left,1,0.6616,,1205.6822,1206.6814,3,1,49,10,1,total,1,images/Ex3.jpg,left,training,hard,1,,,,,
,,,,,612b6389df1f3d38677d06f2,001,34,female,Zimbabwean,Masters,2024-03-05_22h39.30.561,CRL1h,2023.2.3,Win32,60.24096386,65e67470ae2fbf2172c317b2,65e79a8f7357ea00136af8a8,,,,,,,,,,,1206.684,0.8,1207.4799,1207.4801,1208.2819,right,1,0.782,,1208.282,1209.2817,3,2,50,7,1,total,1,images/Ex8.jpg,right,training,hard,1,,,,,
,,,,,612b6389df1f3d38677d06f2,001,34,female,Zimbabwean,Masters,2024-03-05_22h39.30.561,CRL1h,2023.2.3,Win32,60.24096386,65e67470ae2fbf2172c317b2,65e79a8f7357ea00136af8a8,,,,,,,,,,,1209.2838,1.2,1210.4806,1210.4807,1211.482,right,1,0.9825,,1211.4821,1212.4817,3,3,51,5,1,total,1,images/Ex6.jpg,right,training,hard,1,,,,,
,,,,,612b6389df1f3d38677d06f2,001,34,female,Zimbabwean,Masters,2024-03-05_22h39.30.561,CRL1h,2023.2.3,Win32,60.24096386,65e67470ae2fbf2172c317b2,65e79a8f7357ea00136af8a8,,,,,,,,,,,1212.4836,1.3,1213.7818,1213.7819,1214.3832,left,1,0.5903,,1214.3833,1215.3812,3,4,52,8,1,total,1,images/Ex1.jpg,left,training,hard,1,,,,,
,,,,,612b6389df1f3d38677d06f2,001,34,female,Zimbabwean,Masters,2024-03-05_22h39.30.561,CRL1h,2023.2.3,Win32,60.24096386,65e67470ae2fbf2172c317b2,65e79a8f7357ea00136af8a8,,,,,,,,,,,1215.3841,1.3,1216.6818,1216.6819,1217.25,right,1,0.5536,,1217.2503,1218.2493,3,5,53,15,1,total,1,images/Ex8.jpg,right,training,hard,1,,,,,
,,,,,612b6389df1f3d38677d06f2,001,34,female,Zimbabwean,Masters,2024-03-05_22h39.30.561,CRL1h,2023.2.3,Win32,60.24096386,65e67470ae2fbf2172c317b2,65e79a8f7357ea00136af8a8,,,,,,,,,,,1218.2517,1.2,1219.4494,1219.4494,1220.1163,left,1,0.6622,,1220.1169,1221.1138,3,6,54,3,1,total,1,images/Ex4.jpg,left,training,hard,1,,,,,
,,,,,612b6389df1f3d38677d06f2,001,34,female,Zimbabwean,Masters,2024-03-05_22h39.30.561,CRL1h,2023.2.3,Win32,60.24096386,65e67470ae2fbf2172c317b2,65e79a8f7357ea00136af8a8,,,,,,,,,,,1221.1186,1.4,1222.5124,1222.5124,1223.2809,left,1,0.7534,,1223.2813,1224.279,3,7,55,11,1,total,1,images/Ex4.jpg,left,training,hard,1,,,,,
,,,,,612b6389df1f3d38677d06f2,001,34,female,Zimbabwean,Masters,2024-03-05_22h39.30.561,CRL1h,2023.2.3,Win32,60.24096386,65e67470ae2fbf2172c317b2,65e79a8f7357ea00136af8a8,,,,,,,,,,,1224.2801,1.2,1225.4805,1225.4806,1226.6493,left,1,1.1439,,1226.6494,1227.6526,3,8,56,1,1,total,1,images/Ex2.jpg,left,training,hard,1,,,,,
,,,,,612b6389df1f3d38677d06f2,001,34,female,Zimbabwean,Masters,2024-03-05_22h39.30.561,CRL1h,2023.2.3,Win32,60.24096386,65e67470ae2fbf2172c317b2,65e79a8f7357ea00136af8a8,,,,,,,,,,,1227.6947,1.1,1228.7812,1228.7816,1229.416,right,1,0.6194,,1229.4177,1230.4177,3,9,57,12,1,total,1,images/Ex5.jpg,right,training,hard,1,,,,,
,,,,,612b6389df1f3d38677d06f2,001,34,female,Zimbabwean,Masters,2024-03-05_22h39.30.561,CRL1h,2023.2.3,Win32,60.24096386,65e67470ae2fbf2172c317b2,65e79a8f7357ea00136af8a8,,,,,,,,,,,1230.4195,0.8,1231.2234,1231.2237,1231.9811,right,1,0.7432,,1231.9824,1232.9811,3,10,58,6,1,total,1,images/Ex7.jpg,right,training,hard,1,,,,,
,,,,,612b6389df1f3d38677d06f2,001,34,female,Zimbabwean,Masters,2024-03-05_22h39.30.561,CRL1h,2023.2.3,Win32,60.24096386,65e67470ae2fbf2172c317b2,65e79a8f7357ea00136af8a8,,,,,,,,,,,1232.9838,0.7,1233.6806,1233.6806,1234.9498,left,1,1.2492,,1234.9499,1235.9489,3,11,59,0,1,total,1,images/Ex1.jpg,left,training,hard,1,,,,,
,,,,,612b6389df1f3d38677d06f2,001,34,female,Zimbabwean,Masters,2024-03-05_22h39.30.561,CRL1h,2023.2.3,Win32,60.24096386,65e67470ae2fbf2172c317b2,65e79a8f7357ea00136af8a8,,,,,,,,,,,1235.9511,1.4,1237.3519,1237.3519,1238.4812,left,0,1.1127,,1238.4826,1239.4807,3,12,60,13,1,total,1,images/Ex6.jpg,right,training,hard,1,,,,,
,,,,,612b6389df1f3d38677d06f2,001,34,female,Zimbabwean,Masters,2024-03-05_22h39.30.561,CRL1h,2023.2.3,Win32,60.24096386,65e67470ae2fbf2172c317b2,65e79a8f7357ea00136af8a8,,,,,,,,,,,1239.4841,0.5,1239.9814,1239.9815,1240.6827,right,1,0.6805,,1240.6828,1241.6816,3,13,61,14,1,total,1,images/Ex7.jpg,right,training,hard,1,,,,,
,,,,,612b6389df1f3d38677d06f2,001,34,female,Zimbabwean,Masters,2024-03-05_22h39.30.561,CRL1h,2023.2.3,Win32,60.24096386,65e67470ae2fbf2172c317b2,65e79a8f7357ea00136af8a8,,,,,,,,,,,1241.6843,0.6,1242.2803,1242.2804,1243.2803,right,0,0.9874,,1243.2803,1244.2808,3,14,62,9,1,total,1,images/Ex2.jpg,left,training,hard,1,,,,,
,,,,,612b6389df1f3d38677d06f2,001,34,female,Zimbabwean,Masters,2024-03-05_22h39.30.561,CRL1h,2023.2.3,Win32,60.24096386,65e67470ae2fbf2172c317b2,65e79a8f7357ea00136af8a8,,,,,,,,,,,1244.2841,1,1245.2818,1245.282,1245.9524,right,1,0.6488,,1245.9524,1246.9489,3,15,63,4,1,total,1,images/Ex5.jpg,right,training,hard,1,,,,,
,,,,,612b6389df1f3d38677d06f2,001,34,female,Zimbabwean,Masters,2024-03-05_22h39.30.561,CRL1h,2023.2.3,Win32,60.24096386,65e67470ae2fbf2172c317b2,65e79a8f7357ea00136af8a8,,,,,,,,,,,1246.9512,1.4,1248.349,1248.3491,1248.9887,left,1,0.6182,,1248.9888,1249.9822,4,0,64,8,1,total,1,images/Ex1.jpg,left,training,hard,1,,,,,
,,,,,612b6389df1f3d38677d06f2,001,34,female,Zimbabwean,Masters,2024-03-05_22h39.30.561,CRL1h,2023.2.3,Win32,60.24096386,65e67470ae2fbf2172c317b2,65e79a8f7357ea00136af8a8,,,,,,,,,,,1249.9848,1.4,1251.3808,1251.381,1252.6493,left,1,1.2534,,1252.6494,1253.6517,4,1,65,9,1,total,1,images/Ex2.jpg,left,training,hard,1,,,,,
,,,,,612b6389df1f3d38677d06f2,001,34,female,Zimbabwean,Masters,2024-03-05_22h39.30.561,CRL1h,2023.2.3,Win32,60.24096386,65e67470ae2fbf2172c317b2,65e79a8f7357ea00136af8a8,,,,,,,,,,,1253.6526,1.3,1254.9519,1254.952,1255.5833,right,1,0.6205,,1255.5834,1256.5816,4,2,66,12,1,total,1,images/Ex5.jpg,right,training,hard,1,,,,,
,,,,,612b6389df1f3d38677d06f2,001,34,female,Zimbabwean,Masters,2024-03-05_22h39.30.561,CRL1h,2023.2.3,Win32,60.24096386,65e67470ae2fbf2172c317b2,65e79a8f7357ea00136af8a8,,,,,,,,,,,1256.5841,1.5,1258.081,1258.0811,1258.7599,left,1,0.6734,,1258.7599,1259.7518,4,3,67,11,1,total,1,images/Ex4.jpg,left,training,hard,1,,,,,
,,,,,612b6389df1f3d38677d06f2,001,34,female,Zimbabwean,Masters,2024-03-05_22h39.30.561,CRL1h,2023.2.3,Win32,60.24096386,65e67470ae2fbf2172c317b2,65e79a8f7357ea00136af8a8,,,,,,,,,,,1259.7528,0.8,1260.5494,1260.5495,1261.3184,right,1,0.7469,,1261.3185,1262.3152,4,4,68,6,1,total,1,images/Ex7.jpg,right,training,hard,1,,,,,
,,,,,612b6389df1f3d38677d06f2,001,34,female,Zimbabwean,Masters,2024-03-05_22h39.30.561,CRL1h,2023.2.3,Win32,60.24096386,65e67470ae2fbf2172c317b2,65e79a8f7357ea00136af8a8,,,,,,,,,,,1262.3187,0.8,1263.1229,1263.123,1264.0833,right,1,0.9454,,1264.0835,1265.0807,4,5,69,15,1,total,1,images/Ex8.jpg,right,training,hard,1,,,,,
,,,,,612b6389df1f3d38677d06f2,001,34,female,Zimbabwean,Masters,2024-03-05_22h39.30.561,CRL1h,2023.2.3,Win32,60.24096386,65e67470ae2fbf2172c317b2,65e79a8f7357ea00136af8a8,,,,,,,,,,,1265.0846,1.1,1266.1816,1266.1816,1266.9818,right,1,0.7885,,1266.982,1267.9809,4,6,70,7,1,total,1,images/Ex8.jpg,right,training,hard,1,,,,,
,,,,,612b6389df1f3d38677d06f2,001,34,female,Zimbabwean,Masters,2024-03-05_22h39.30.561,CRL1h,2023.2.3,Win32,60.24096386,65e67470ae2fbf2172c317b2,65e79a8f7357ea00136af8a8,,,,,,,,,,,1267.983,1.1,1269.082,1269.0821,1269.8524,left,1,0.7491,,1269.8524,1270.8518,4,7,71,2,1,total,1,images/Ex3.jpg,left,training,hard,1,,,,,
,,,,,612b6389df1f3d38677d06f2,001,34,female,Zimbabwean,Masters,2024-03-05_22h39.30.561,CRL1h,2023.2.3,Win32,60.24096386,65e67470ae2fbf2172c317b2,65e79a8f7357ea00136af8a8,,,,,,,,,,,1270.8527,0.9,1271.7494,1271.7496,1272.7836,left,0,1.021,,1272.7838,1273.782,4,8,72,13,1,total,1,images/Ex6.jpg,right,training,hard,1,,,,,
,,,,,612b6389df1f3d38677d06f2,001,34,female,Zimbabwean,Masters,2024-03-05_22h39.30.561,CRL1h,2023.2.3,Win32,60.24096386,65e67470ae2fbf2172c317b2,65e79a8f7357ea00136af8a8,,,,,,,,,,,1273.7848,1.3,1275.0812,1275.0813,1275.8514,left,0,0.748,,1275.8515,1276.8496,4,9,73,5,1,total,1,images/Ex6.jpg,right,training,hard,1,,,,,
,,,,,612b6389df1f3d38677d06f2,001,34,female,Zimbabwean,Masters,2024-03-05_22h39.30.561,CRL1h,2023.2.3,Win32,60.24096386,65e67470ae2fbf2172c317b2,65e79a8f7357ea00136af8a8,,,,,,,,,,,1276.8515,1,1277.8491,1277.8492,1278.3846,right,1,0.5289,,1278.3847,1279.3827,4,10,74,4,1,total,1,images/Ex5.jpg,right,training,hard,1,,,,,
,,,,,612b6389df1f3d38677d06f2,001,34,female,Zimbabwean,Masters,2024-03-05_22h39.30.561,CRL1h,2023.2.3,Win32,60.24096386,65e67470ae2fbf2172c317b2,65e79a8f7357ea00136af8a8,,,,,,,,,,,1279.3846,0.6,1279.9804,1279.9804,1280.7801,left,1,0.7817,,1280.7807,1281.78,4,11,75,3,1,total,1,images/Ex4.jpg,left,training,hard,1,,,,,
,,,,,612b6389df1f3d38677d06f2,001,34,female,Zimbabwean,Masters,2024-03-05_22h39.30.561,CRL1h,2023.2.3,Win32,60.24096386,65e67470ae2fbf2172c317b2,65e79a8f7357ea00136af8a8,,,,,,,,,,,1281.7811,1.1,1282.8804,1282.8805,1283.448,left,1,0.5482,,1283.4481,1284.4485,4,12,76,0,1,total,1,images/Ex1.jpg,left,training,hard,1,,,,,
,,,,,612b6389df1f3d38677d06f2,001,34,female,Zimbabwean,Masters,2024-03-05_22h39.30.561,CRL1h,2023.2.3,Win32,60.24096386,65e67470ae2fbf2172c317b2,65e79a8f7357ea00136af8a8,,,,,,,,,,,1284.4511,1.5,1285.9477,1285.9478,1286.6143,left,1,0.6515,,1286.6144,1287.6134,4,13,77,10,1,total,1,images/Ex3.jpg,left,training,hard,1,,,,,
,,,,,612b6389df1f3d38677d06f2,001,34,female,Zimbabwean,Masters,2024-03-05_22h39.30.561,CRL1h,2023.2.3,Win32,60.24096386,65e67470ae2fbf2172c317b2,65e79a8f7357ea00136af8a8,,,,,,,,,,,1287.6144,0.8,1288.4137,1288.4137,1289.2142,right,1,0.7887,,1289.2143,1290.2154,4,14,78,14,1,total,1,images/Ex7.jpg,right,training,hard,1,,,,,
,,,,,612b6389df1f3d38677d06f2,001,34,female,Zimbabwean,Masters,2024-03-05_22h39.30.561,CRL1h,2023.2.3,Win32,60.24096386,65e67470ae2fbf2172c317b2,65e79a8f7357ea00136af8a8,,,,,,,,,,,1290.2175,1,1291.2138,1291.2139,1292.0831,right,0,0.8639,,1292.0831,1293.0803,4,15,79,1,1,total,1,images/Ex2.jpg,left,training,hard,1,,,,,
,,,,,612b6389df1f3d38677d06f2,001,34,female,Zimbabwean,Masters,2024-03-05_22h39.30.561,CRL1h,2023.2.3,Win32,60.24096386,65e67470ae2fbf2172c317b2,65e79a8f7357ea00136af8a8,,,,,,,,,,,1293.081,1.5,1294.5801,1294.5801,1296.2828,right,0,1.6849,,1296.2829,1297.2821,5,0,80,9,1,total,1,images/Ex2.jpg,left,training,hard,1,,,,,
,,,,,612b6389df1f3d38677d06f2,001,34,female,Zimbabwean,Masters,2024-03-05_22h39.30.561,CRL1h,2023.2.3,Win32,60.24096386,65e67470ae2fbf2172c317b2,65e79a8f7357ea00136af8a8,,,,,,,,,,,1297.2852,1.1,1298.382,1298.3821,1299.3169,left,1,0.9206,,1299.3171,1300.3158,5,1,81,1,1,total,1,images/Ex2.jpg,left,training,hard,1,,,,,
,,,,,612b6389df1f3d38677d06f2,001,34,female,Zimbabwean,Masters,2024-03-05_22h39.30.561,CRL1h,2023.2.3,Win32,60.24096386,65e67470ae2fbf2172c317b2,65e79a8f7357ea00136af8a8,,,,,,,,,,,1300.3193,0.7,1301.0152,1301.0154,1301.6516,left,1,0.6122,,1301.6531,1302.649,5,2,82,10,1,total,1,images/Ex3.jpg,left,training,hard,1,,,,,
,,,,,612b6389df1f3d38677d06f2,001,34,female,Zimbabwean,Masters,2024-03-05_22h39.30.561,CRL1h,2023.2.3,Win32,60.24096386,65e67470ae2fbf2172c317b2,65e79a8f7357ea00136af8a8,,,,,,,,,,,1302.6518,0.7,1303.3499,1303.35,1303.952,left,1,0.5967,,1303.9522,1304.9492,5,3,83,11,1,total,1,images/Ex4.jpg,left,training,hard,1,,,,,
,,,,,612b6389df1f3d38677d06f2,001,34,female,Zimbabwean,Masters,2024-03-05_22h39.30.561,CRL1h,2023.2.3,Win32,60.24096386,65e67470ae2fbf2172c317b2,65e79a8f7357ea00136af8a8,,,,,,,,,,,1304.9523,0.9,1305.8493,1305.8493,1307.0527,right,1,1.1922,,1307.0528,1308.0514,5,4,84,5,1,total,1,images/Ex6.jpg,right,training,hard,1,,,,,
,,,,,612b6389df1f3d38677d06f2,001,34,female,Zimbabwean,Masters,2024-03-05_22h39.30.561,CRL1h,2023.2.3,Win32,60.24096386,65e67470ae2fbf2172c317b2,65e79a8f7357ea00136af8a8,,,,,,,,,,,1308.0888,1.5,1309.5827,1309.5827,1310.2181,left,1,0.6232,,1310.2184,1311.216,5,5,85,3,1,total,1,images/Ex4.jpg,left,training,hard,1,,,,,
,,,,,612b6389df1f3d38677d06f2,001,34,female,Zimbabwean,Masters,2024-03-05_22h39.30.561,CRL1h,2023.2.3,Win32,60.24096386,65e67470ae2fbf2172c317b2,65e79a8f7357ea00136af8a8,,,,,,,,,,,1311.2197,1,1312.2159,1312.216,1312.8525,left,1,0.6143,,1312.8527,1313.8486,5,6,86,0,1,total,1,images/Ex1.jpg,left,training,hard,1,,,,,
,,,,,612b6389df1f3d38677d06f2,001,34,female,Zimbabwean,Masters,2024-03-05_22h39.30.561,CRL1h,2023.2.3,Win32,60.24096386,65e67470ae2fbf2172c317b2,65e79a8f7357ea00136af8a8,,,,,,,,,,,1313.852,1.2,1315.0516,1315.0516,1315.7523,right,1,0.6815,,1315.7527,1316.749,5,7,87,6,1,total,1,images/Ex7.jpg,right,training,hard,1,,,,,
,,,,,612b6389df1f3d38677d06f2,001,34,female,Zimbabwean,Masters,2024-03-05_22h39.30.561,CRL1h,2023.2.3,Win32,60.24096386,65e67470ae2fbf2172c317b2,65e79a8f7357ea00136af8a8,,,,,,,,,,,1316.7521,0.6,1317.3523,1317.3524,1318.1158,left,1,0.7544,,1318.1159,1319.1153,5,8,88,8,1,total,1,images/Ex1.jpg,left,training,hard,1,,,,,
,,,,,612b6389df1f3d38677d06f2,001,34,female,Zimbabwean,Masters,2024-03-05_22h39.30.561,CRL1h,2023.2.3,Win32,60.24096386,65e67470ae2fbf2172c317b2,65e79a8f7357ea00136af8a8,,,,,,,,,,,1319.1208,0.6,1319.7155,1319.7156,1320.5822,left,0,0.8457,,1320.5823,1321.5814,5,9,89,13,1,total,1,images/Ex6.jpg,right,training,hard,1,,,,,
,,,,,612b6389df1f3d38677d06f2,001,34,female,Zimbabwean,Masters,2024-03-05_22h39.30.561,CRL1h,2023.2.3,Win32,60.24096386,65e67470ae2fbf2172c317b2,65e79a8f7357ea00136af8a8,,,,,,,,,,,1321.5848,0.7,1322.2818,1322.2819,1323.0823,right,1,0.7906,,1323.0825,1324.0822,5,10,90,14,1,total,1,images/Ex7.jpg,right,training,hard,1,,,,,
,,,,,612b6389df1f3d38677d06f2,001,34,female,Zimbabwean,Masters,2024-03-05_22h39.30.561,CRL1h,2023.2.3,Win32,60.24096386,65e67470ae2fbf2172c317b2,65e79a8f7357ea00136af8a8,,,,,,,,,,,1324.0856,0.8,1324.8809,1324.8809,1326.0156,right,1,1.1223,,1326.0157,1327.0162,5,11,91,7,1,total,1,images/Ex8.jpg,right,training,hard,1,,,,,
,,,,,612b6389df1f3d38677d06f2,001,34,female,Zimbabwean,Masters,2024-03-05_22h39.30.561,CRL1h,2023.2.3,Win32,60.24096386,65e67470ae2fbf2172c317b2,65e79a8f7357ea00136af8a8,,,,,,,,,,,1327.0206,0.8,1327.8159,1327.816,1328.3845,right,1,0.5629,,1328.3847,1329.3824,5,12,92,15,1,total,1,images/Ex8.jpg,right,training,hard,1,,,,,
,,,,,612b6389df1f3d38677d06f2,001,34,female,Zimbabwean,Masters,2024-03-05_22h39.30.561,CRL1h,2023.2.3,Win32,60.24096386,65e67470ae2fbf2172c317b2,65e79a8f7357ea00136af8a8,,,,,,,,,,,1329.3851,1.3,1330.6828,1330.683,1331.4194,right,1,0.7171,,1331.4196,1332.4192,5,13,93,12,1,total,1,images/Ex5.jpg,right,training,hard,1,,,,,
,,,,,612b6389df1f3d38677d06f2,001,34,female,Zimbabwean,Masters,2024-03-05_22h39.30.561,CRL1h,2023.2.3,Win32,60.24096386,65e67470ae2fbf2172c317b2,65e79a8f7357ea00136af8a8,,,,,,,,,,,1332.4206,1.4,1333.8205,1333.8205,1334.65,left,1,0.8134,,1334.6501,1335.6491,5,14,94,2,1,total,1,images/Ex3.jpg,left,training,hard,1,,,,,
,,,,,612b6389df1f3d38677d06f2,001,34,female,Zimbabwean,Masters,2024-03-05_22h39.30.561,CRL1h,2023.2.3,Win32,60.24096386,65e67470ae2fbf2172c317b2,65e79a8f7357ea00136af8a8,,,,,,,,,,,1335.6519,1.5,1337.153,1337.153,1338.1826,right,1,1.0136,,1338.183,1339.1818,5,15,95,4,1,total,1,images/Ex5.jpg,right,training,hard,1,,,,,
,,,,,612b6389df1f3d38677d06f2,001,34,female,Zimbabwean,Masters,2024-03-05_22h39.30.561,CRL1h,2023.2.3,Win32,60.24096386,65e67470ae2fbf2172c317b2,65e79a8f7357ea00136af8a8,,,,,,,,,,,1339.1854,1.1,1340.2825,1340.2826,1340.954,left,1,0.6668,,1340.954,1341.9514,6,0,96,0,1,total,1,images/Ex1.jpg,left,training,hard,1,,,,,
,,,,,612b6389df1f3d38677d06f2,001,34,female,Zimbabwean,Masters,2024-03-05_22h39.30.561,CRL1h,2023.2.3,Win32,60.24096386,65e67470ae2fbf2172c317b2,65e79a8f7357ea00136af8a8,,,,,,,,,,,1341.9529,1,1342.9513,1342.9514,1343.6823,left,1,0.719,,1343.6837,1344.6818,6,1,97,2,1,total,1,images/Ex3.jpg,left,training,hard,1,,,,,
,,,,,612b6389df1f3d38677d06f2,001,34,female,Zimbabwean,Masters,2024-03-05_22h39.30.561,CRL1h,2023.2.3,Win32,60.24096386,65e67470ae2fbf2172c317b2,65e79a8f7357ea00136af8a8,,,,,,,,,,,1344.6845,1,1345.6818,1345.682,1346.9163,right,1,1.2138,,1346.9164,1347.9157,6,2,98,6,1,total,1,images/Ex7.jpg,right,training,hard,1,,,,,
,,,,,612b6389df1f3d38677d06f2,001,34,female,Zimbabwean,Masters,2024-03-05_22h39.30.561,CRL1h,2023.2.3,Win32,60.24096386,65e67470ae2fbf2172c317b2,65e79a8f7357ea00136af8a8,,,,,,,,,,,1347.9177,0.8,1348.7155,1348.7156,1349.4497,left,1,0.7149,,1349.4499,1350.4491,6,3,99,11,1,total,1,images/Ex4.jpg,left,training,hard,1,,,,,
,,,,,612b6389df1f3d38677d06f2,001,34,female,Zimbabwean,Masters,2024-03-05_22h39.30.561,CRL1h,2023.2.3,Win32,60.24096386,65e67470ae2fbf2172c317b2,65e79a8f7357ea00136af8a8,,,,,,,,,,,1350.4522,0.7,1351.1511,1351.1514,1351.8841,right,1,0.725,,1351.8843,1352.8832,6,4,100,15,1,total,1,images/Ex8.jpg,right,training,hard,1,,,,,
,,,,,612b6389df1f3d38677d06f2,001,34,female,Zimbabwean,Masters,2024-03-05_22h39.30.561,CRL1h,2023.2.3,Win32,60.24096386,65e67470ae2fbf2172c317b2,65e79a8f7357ea00136af8a8,,,,,,,,,,,1352.8856,1,1353.8824,1353.8826,1354.4519,right,1,0.5491,,1354.4522,1355.4493,6,5,101,12,1,total,1,images/Ex5.jpg,right,training,hard,1,,,,,
,,,,,612b6389df1f3d38677d06f2,001,34,female,Zimbabwean,Masters,2024-03-05_22h39.30.561,CRL1h,2023.2.3,Win32,60.24096386,65e67470ae2fbf2172c317b2,65e79a8f7357ea00136af8a8,,,,,,,,,,,1355.4518,0.7,1356.1495,1356.1495,1357.2166,right,1,1.0504,,1357.2167,1358.2158,6,6,102,5,1,total,1,images/Ex6.jpg,right,training,hard,1,,,,,
,,,,,612b6389df1f3d38677d06f2,001,34,female,Zimbabwean,Masters,2024-03-05_22h39.30.561,CRL1h,2023.2.3,Win32,60.24096386,65e67470ae2fbf2172c317b2,65e79a8f7357ea00136af8a8,,,,,,,,,,,1358.2177,0.9,1359.1165,1359.1165,1359.8844,right,1,0.7519,,1359.8845,1360.8833,6,7,103,13,1,total,1,images/Ex6.jpg,right,training,hard,1,,,,,
,,,,,612b6389df1f3d38677d06f2,001,34,female,Zimbabwean,Masters,2024-03-05_22h39.30.561,CRL1h,2023.2.3,Win32,60.24096386,65e67470ae2fbf2172c317b2,65e79a8f7357ea00136af8a8,,,,,,,,,,,1360.8859,1.3,1362.1834,1362.1836,1362.9531,left,1,0.751,,1362.9532,1363.9528,6,8,104,9,1,total,1,images/Ex2.jpg,left,training,hard,1,,,,,
,,,,,612b6389df1f3d38677d06f2,001,34,female,Zimbabwean,Masters,2024-03-05_22h39.30.561,CRL1h,2023.2.3,Win32,60.24096386,65e67470ae2fbf2172c317b2,65e79a8f7357ea00136af8a8,,,,,,,,,,,1363.9548,0.9,1364.8491,1364.8492,1365.5603,left,1,0.7061,,1365.5604,1366.551,6,9,105,8,1,total,1,images/Ex1.jpg,left,training,hard,1,,,,,
,,,,,612b6389df1f3d38677d06f2,001,34,female,Zimbabwean,Masters,2024-03-05_22h39.30.561,CRL1h,2023.2.3,Win32,60.24096386,65e67470ae2fbf2172c317b2,65e79a8f7357ea00136af8a8,,,,,,,,,,,1366.5527,1.3,1367.8512,1367.8514,1368.5841,right,1,0.7173,,1368.5844,1369.5834,6,10,106,7,1,total,1,images/Ex8.jpg,right,training,hard,1,,,,,
,,,,,612b6389df1f3d38677d06f2,001,34,female,Zimbabwean,Masters,2024-03-05_22h39.30.561,CRL1h,2023.2.3,Win32,60.24096386,65e67470ae2fbf2172c317b2,65e79a8f7357ea00136af8a8,,,,,,,,,,,1369.5864,0.9,1370.4834,1370.4835,1371.1501,left,1,0.6544,,1371.1504,1372.1495,6,11,107,3,1,total,1,images/Ex4.jpg,left,training,hard,1,,,,,
,,,,,612b6389df1f3d38677d06f2,001,34,female,Zimbabwean,Masters,2024-03-05_22h39.30.561,CRL1h,2023.2.3,Win32,60.24096386,65e67470ae2fbf2172c317b2,65e79a8f7357ea00136af8a8,,,,,,,,,,,1372.1523,0.6,1372.7491,1372.7493,1373.3241,right,1,0.549,,1373.3243,1374.3161,6,12,108,4,1,total,1,images/Ex5.jpg,right,training,hard,1,,,,,
,,,,,612b6389df1f3d38677d06f2,001,34,female,Zimbabwean,Masters,2024-03-05_22h39.30.561,CRL1h,2023.2.3,Win32,60.24096386,65e67470ae2fbf2172c317b2,65e79a8f7357ea00136af8a8,,,,,,,,,,,1374.3201,0.8,1375.117,1375.117,1376.2558,left,1,1.1235,,1376.2559,1377.2493,6,13,109,10,1,total,1,images/Ex3.jpg,left,training,hard,1,,,,,
,,,,,612b6389df1f3d38677d06f2,001,34,female,Zimbabwean,Masters,2024-03-05_22h39.30.561,CRL1h,2023.2.3,Win32,60.24096386,65e67470ae2fbf2172c317b2,65e79a8f7357ea00136af8a8,,,,,,,,,,,1377.252,1.3,1378.549,1378.5491,1379.1202,right,0,0.5582,,1379.1203,1380.1225,6,14,110,1,1,total,1,images/Ex2.jpg,left,training,hard,1,,,,,
,,,,,612b6389df1f3d38677d06f2,001,34,female,Zimbabwean,Masters,2024-03-05_22h39.30.561,CRL1h,2023.2.3,Win32,60.24096386,65e67470ae2fbf2172c317b2,65e79a8f7357ea00136af8a8,,,,,,,,,,,1380.1251,0.7,1380.8168,1380.8168,1381.4918,right,1,0.6702,,1381.4919,1382.4841,6,15,111,14,1,total,1,images/Ex7.jpg,right,training,hard,1,,,,,
,,,,,612b6389df1f3d38677d06f2,001,34,female,Zimbabwean,Masters,2024-03-05_22h39.30.561,CRL1h,2023.2.3,Win32,60.24096386,65e67470ae2fbf2172c317b2,65e79a8f7357ea00136af8a8,,,,,,,,,,,1382.487,0.7,1383.1843,1383.1844,1384.4527,left,1,1.2537,,1384.4529,1385.4511,7,0,112,1,1,total,1,images/Ex2.jpg,left,training,hard,1,,,,,
,,,,,612b6389df1f3d38677d06f2,001,34,female,Zimbabwean,Masters,2024-03-05_22h39.30.561,CRL1h,2023.2.3,Win32,60.24096386,65e67470ae2fbf2172c317b2,65e79a8f7357ea00136af8a8,,,,,,,,,,,1385.453,0.9,1386.3588,1386.3589,1387.0844,left,1,0.7076,,1387.0845,1388.0829,7,1,113,0,1,total,1,images/Ex1.jpg,left,training,hard,1,,,,,
,,,,,612b6389df1f3d38677d06f2,001,34,female,Zimbabwean,Masters,2024-03-05_22h39.30.561,CRL1h,2023.2.3,Win32,60.24096386,65e67470ae2fbf2172c317b2,65e79a8f7357ea00136af8a8,,,,,,,,,,,1388.0858,1.2,1389.284,1389.2841,1389.9198,right,1,0.6156,,1389.92,1390.918,7,2,114,7,1,total,1,images/Ex8.jpg,right,training,hard,1,,,,,
,,,,,612b6389df1f3d38677d06f2,001,34,female,Zimbabwean,Masters,2024-03-05_22h39.30.561,CRL1h,2023.2.3,Win32,60.24096386,65e67470ae2fbf2172c317b2,65e79a8f7357ea00136af8a8,,,,,,,,,,,1390.9206,1,1391.9174,1391.9175,1392.9849,left,1,1.0505,,1392.985,1393.9844,7,3,115,10,1,total,1,images/Ex3.jpg,left,training,hard,1,,,,,
,,,,,612b6389df1f3d38677d06f2,001,34,female,Zimbabwean,Masters,2024-03-05_22h39.30.561,CRL1h,2023.2.3,Win32,60.24096386,65e67470ae2fbf2172c317b2,65e79a8f7357ea00136af8a8,,,,,,,,,,,1393.9875,0.5,1394.4836,1394.4839,1395.1511,left,1,0.6549,,1395.1514,1396.1502,7,4,116,11,1,total,1,images/Ex4.jpg,left,training,hard,1,,,,,
