infCons.started,infCons.stopped,resp_consent.keys,resp_consent.rt,resp_consent.duration,participant,session,Age?,Gender?,Nationality?,Highest Educational Degree?,date,expName,psychopyVersion,OS,frameRate,STUDY_ID,SESSION_ID,instructions.started,instructions.stopped,resp_instructions.keys,resp_instructions.rt,resp_instructions.duration,nextTask.started,nextTask.stopped,ready_task.keys,ready_task.rt,ready_task.duration,fixation.started,ITI,fixation.stopped,stim.started,stim.stopped,response.keys,response.corr,response.rt,response.duration,feedback.started,feedback.stopped,trials.thisRepN,trials.thisTrialN,trials.thisN,trials.thisIndex,trials.ran,task,phase,Exemplars,r_correct,condition,difficulty,set,end.started,end.stopped,resp_end.keys,resp_end.rt,resp_end.duration
0.0003,22.8227,space,22.7806,,63d53b38b9e515c80720bb76,001,,,,,2024-03-06_13h54.33.652,CRL1h,2023.2.3,Win32,55.55555556,65e67470ae2fbf2172c317b2,65e8755a928abe21664b702a,,,,,,,,,,,,,,,,,,,,,,,,,,,,,,,,,,,,,,
,,,,,63d53b38b9e515c80720bb76,001,,,,,2024-03-06_13h54.33.652,CRL1h,2023.2.3,Win32,55.55555556,65e67470ae2fbf2172c317b2,65e8755a928abe21664b702a,22.823,24.5751,space,1.7092,,,,,,,,,,,,,,,,,,,,,,,,,,,,,,,,,,
,,,,,63d53b38b9e515c80720bb76,001,,,,,2024-03-06_13h54.33.652,CRL1h,2023.2.3,Win32,55.55555556,65e67470ae2fbf2172c317b2,65e8755a928abe21664b702a,,,,,,24.5848,26.6014,space,1.9986,,26.6102,1.5,28.1147,28.1152,38.9296,left,1,10.7901,,38.9297,39.9309,0,0,0,9,1,total,1,images/Ex2.jpg,left,training,hard,2,,,,,
,,,,,63d53b38b9e515c80720bb76,001,,,,,2024-03-06_13h54.33.652,CRL1h,2023.2.3,Win32,55.55555556,65e67470ae2fbf2172c317b2,65e8755a928abe21664b702a,,,,,,,,,,,39.9327,1,40.9305,40.9306,41.9291,right,0,0.9937,,41.9292,42.9169,0,1,1,11,1,total,1,images/Ex4.jpg,left,training,hard,2,,,,,
,,,,,63d53b38b9e515c80720bb76,001,,,,,2024-03-06_13h54.33.652,CRL1h,2023.2.3,Win32,55.55555556,65e67470ae2fbf2172c317b2,65e8755a928abe21664b702a,,,,,,,,,,,42.9173,1.1,44.0124,44.0124,44.4754,left,0,0.4556,,44.4755,45.4652,0,2,2,12,1,total,1,images/Ex5.jpg,right,training,hard,2,,,,,
,,,,,63d53b38b9e515c80720bb76,001,,,,,2024-03-06_13h54.33.652,CRL1h,2023.2.3,Win32,55.55555556,65e67470ae2fbf2172c317b2,65e8755a928abe21664b702a,,,,,,,,,,,45.4656,1.4,46.8589,46.8589,47.8108,right,1,0.9454,,47.8108,48.8016,0,3,3,15,1,total,1,images/Ex8.jpg,right,training,hard,2,,,,,
,,,,,63d53b38b9e515c80720bb76,001,,,,,2024-03-06_13h54.33.652,CRL1h,2023.2.3,Win32,55.55555556,65e67470ae2fbf2172c317b2,65e8755a928abe21664b702a,,,,,,,,,,,48.8029,1.4,50.1973,50.1973,50.9033,left,1,0.6969,,50.9034,51.9072,0,4,4,1,1,total,1,images/Ex2.jpg,left,training,hard,2,,,,,
,,,,,63d53b38b9e515c80720bb76,001,,,,,2024-03-06_13h54.33.652,CRL1h,2023.2.3,Win32,55.55555556,65e67470ae2fbf2172c317b2,65e8755a928abe21664b702a,,,,,,,,,,,51.9075,1.5,53.4035,53.4036,53.7373,left,0,0.3305,,53.7374,54.7375,0,5,5,13,1,total,1,images/Ex6.jpg,right,training,hard,2,,,,,
,,,,,63d53b38b9e515c80720bb76,001,,,,,2024-03-06_13h54.33.652,CRL1h,2023.2.3,Win32,55.55555556,65e67470ae2fbf2172c317b2,65e8755a928abe21664b702a,,,,,,,,,,,54.7387,1.4,56.1293,56.1294,57.2163,right,0,1.0767,,57.2165,58.2164,0,6,6,10,1,total,1,images/Ex3.jpg,left,training,hard,2,,,,,
,,,,,63d53b38b9e515c80720bb76,001,,,,,2024-03-06_13h54.33.652,CRL1h,2023.2.3,Win32,55.55555556,65e67470ae2fbf2172c317b2,65e8755a928abe21664b702a,,,,,,,,,,,58.217,1.1,59.3061,59.3062,59.9777,left,1,0.6657,,59.9777,60.9658,0,7,7,0,1,total,1,images/Ex1.jpg,left,training,hard,2,,,,,
,,,,,63d53b38b9e515c80720bb76,001,,,,,2024-03-06_13h54.33.652,CRL1h,2023.2.3,Win32,55.55555556,65e67470ae2fbf2172c317b2,65e8755a928abe21664b702a,,,,,,,,,,,60.9663,1,61.9701,61.9701,63.1654,left,0,1.1938,,63.1655,64.1532,0,8,8,6,1,total,1,images/Ex7.jpg,right,training,hard,2,,,,,
,,,,,63d53b38b9e515c80720bb76,001,,,,,2024-03-06_13h54.33.652,CRL1h,2023.2.3,Win32,55.55555556,65e67470ae2fbf2172c317b2,65e8755a928abe21664b702a,,,,,,,,,,,64.1541,1.1,65.2582,65.2583,65.7537,left,1,0.4912,,65.7539,66.7567,0,9,9,8,1,total,1,images/Ex1.jpg,left,training,hard,2,,,,,
,,,,,63d53b38b9e515c80720bb76,001,,,,,2024-03-06_13h54.33.652,CRL1h,2023.2.3,Win32,55.55555556,65e67470ae2fbf2172c317b2,65e8755a928abe21664b702a,,,,,,,,,,,66.7571,1.5,68.2492,68.2493,68.6172,right,1,0.364,,68.6173,69.6218,0,10,10,5,1,total,1,images/Ex6.jpg,right,training,hard,2,,,,,
,,,,,63d53b38b9e515c80720bb76,001,,,,,2024-03-06_13h54.33.652,CRL1h,2023.2.3,Win32,55.55555556,65e67470ae2fbf2172c317b2,65e8755a928abe21664b702a,,,,,,,,,,,69.6225,0.6,70.2203,70.2204,70.6062,left,0,0.3772,,70.6062,71.6053,0,11,11,14,1,total,1,images/Ex7.jpg,right,training,hard,2,,,,,
,,,,,63d53b38b9e515c80720bb76,001,,,,,2024-03-06_13h54.33.652,CRL1h,2023.2.3,Win32,55.55555556,65e67470ae2fbf2172c317b2,65e8755a928abe21664b702a,,,,,,,,,,,71.6058,0.9,72.4974,72.4974,72.8649,right,1,0.3558,,72.865,73.8545,0,12,12,7,1,total,1,images/Ex8.jpg,right,training,hard,2,,,,,
,,,,,63d53b38b9e515c80720bb76,001,,,,,2024-03-06_13h54.33.652,CRL1h,2023.2.3,Win32,55.55555556,65e67470ae2fbf2172c317b2,65e8755a928abe21664b702a,,,,,,,,,,,73.8549,1,74.8422,74.8423,75.1963,left,0,0.3402,,75.1964,76.1843,0,13,13,4,1,total,1,images/Ex5.jpg,right,training,hard,2,,,,,
,,,,,63d53b38b9e515c80720bb76,001,,,,,2024-03-06_13h54.33.652,CRL1h,2023.2.3,Win32,55.55555556,65e67470ae2fbf2172c317b2,65e8755a928abe21664b702a,,,,,,,,,,,76.1846,0.7,76.8893,76.8893,77.4392,left,1,0.5379,,77.4393,78.4383,0,14,14,3,1,total,1,images/Ex4.jpg,left,training,hard,2,,,,,
,,,,,63d53b38b9e515c80720bb76,001,,,,,2024-03-06_13h54.33.652,CRL1h,2023.2.3,Win32,55.55555556,65e67470ae2fbf2172c317b2,65e8755a928abe21664b702a,,,,,,,,,,,78.4387,1.5,79.9325,79.9327,80.1978,right,0,0.2574,,80.1978,81.1879,0,15,15,2,1,total,1,images/Ex3.jpg,left,training,hard,2,,,,,
,,,,,63d53b38b9e515c80720bb76,001,,,,,2024-03-06_13h54.33.652,CRL1h,2023.2.3,Win32,55.55555556,65e67470ae2fbf2172c317b2,65e8755a928abe21664b702a,,,,,,,,,,,81.1886,1.1,82.2799,82.2799,82.8247,left,0,0.5382,,82.8248,83.8272,1,0,16,14,1,total,1,images/Ex7.jpg,right,training,hard,2,,,,,
,,,,,63d53b38b9e515c80720bb76,001,,,,,2024-03-06_13h54.33.652,CRL1h,2023.2.3,Win32,55.55555556,65e67470ae2fbf2172c317b2,65e8755a928abe21664b702a,,,,,,,,,,,83.828,0.6,84.427,84.4271,85.0785,right,0,0.6432,,85.0786,86.0822,1,1,17,1,1,total,1,images/Ex2.jpg,left,training,hard,2,,,,,
,,,,,63d53b38b9e515c80720bb76,001,,,,,2024-03-06_13h54.33.652,CRL1h,2023.2.3,Win32,55.55555556,65e67470ae2fbf2172c317b2,65e8755a928abe21664b702a,,,,,,,,,,,86.0826,0.8,86.8736,86.8736,87.4715,right,1,0.5914,,87.4715,88.4725,1,2,18,12,1,total,1,images/Ex5.jpg,right,training,hard,2,,,,,
,,,,,63d53b38b9e515c80720bb76,001,,,,,2024-03-06_13h54.33.652,CRL1h,2023.2.3,Win32,55.55555556,65e67470ae2fbf2172c317b2,65e8755a928abe21664b702a,,,,,,,,,,,88.473,1.1,89.5661,89.5661,89.8698,right,0,0.2969,,89.8699,90.8593,1,3,19,3,1,total,1,images/Ex4.jpg,left,training,hard,2,,,,,
,,,,,63d53b38b9e515c80720bb76,001,,,,,2024-03-06_13h54.33.652,CRL1h,2023.2.3,Win32,55.55555556,65e67470ae2fbf2172c317b2,65e8755a928abe21664b702a,,,,,,,,,,,90.8599,1.1,91.9633,91.9633,92.2969,left,0,0.3236,,92.297,93.2992,1,4,20,15,1,total,1,images/Ex8.jpg,right,training,hard,2,,,,,
,,,,,63d53b38b9e515c80720bb76,001,,,,,2024-03-06_13h54.33.652,CRL1h,2023.2.3,Win32,55.55555556,65e67470ae2fbf2172c317b2,65e8755a928abe21664b702a,,,,,,,,,,,93.2995,0.9,94.1949,94.1949,94.7561,left,1,0.5549,,94.7562,95.7585,1,5,21,8,1,total,1,images/Ex1.jpg,left,training,hard,2,,,,,
,,,,,63d53b38b9e515c80720bb76,001,,,,,2024-03-06_13h54.33.652,CRL1h,2023.2.3,Win32,55.55555556,65e67470ae2fbf2172c317b2,65e8755a928abe21664b702a,,,,,,,,,,,95.7593,1.1,96.8466,96.8466,97.1474,left,1,0.2932,,97.1475,98.1502,1,6,22,9,1,total,1,images/Ex2.jpg,left,training,hard,2,,,,,
,,,,,63d53b38b9e515c80720bb76,001,,,,,2024-03-06_13h54.33.652,CRL1h,2023.2.3,Win32,55.55555556,65e67470ae2fbf2172c317b2,65e8755a928abe21664b702a,,,,,,,,,,,98.1506,1,99.1538,99.1538,99.8037,left,1,0.6442,,99.8037,100.7911,1,7,23,10,1,total,1,images/Ex3.jpg,left,training,hard,2,,,,,
,,,,,63d53b38b9e515c80720bb76,001,,,,,2024-03-06_13h54.33.652,CRL1h,2023.2.3,Win32,55.55555556,65e67470ae2fbf2172c317b2,65e8755a928abe21664b702a,,,,,,,,,,,100.7914,1.1,101.8951,101.8952,102.2294,right,0,0.3208,,102.2295,103.2328,1,8,24,2,1,total,1,images/Ex3.jpg,left,training,hard,2,,,,,
,,,,,63d53b38b9e515c80720bb76,001,,,,,2024-03-06_13h54.33.652,CRL1h,2023.2.3,Win32,55.55555556,65e67470ae2fbf2172c317b2,65e8755a928abe21664b702a,,,,,,,,,,,103.2331,0.8,104.0283,104.0283,104.5942,left,1,0.5534,,104.5943,105.598,1,9,25,0,1,total,1,images/Ex1.jpg,left,training,hard,2,,,,,
,,,,,63d53b38b9e515c80720bb76,001,,,,,2024-03-06_13h54.33.652,CRL1h,2023.2.3,Win32,55.55555556,65e67470ae2fbf2172c317b2,65e8755a928abe21664b702a,,,,,,,,,,,105.5983,0.9,106.495,106.4951,106.8127,left,0,0.304,,106.8127,107.8039,1,10,26,4,1,total,1,images/Ex5.jpg,right,training,hard,2,,,,,
,,,,,63d53b38b9e515c80720bb76,001,,,,,2024-03-06_13h54.33.652,CRL1h,2023.2.3,Win32,55.55555556,65e67470ae2fbf2172c317b2,65e8755a928abe21664b702a,,,,,,,,,,,107.8047,0.9,108.7005,108.7006,108.9662,right,1,0.2577,,108.9662,109.9707,1,11,27,6,1,total,1,images/Ex7.jpg,right,training,hard,2,,,,,
,,,,,63d53b38b9e515c80720bb76,001,,,,,2024-03-06_13h54.33.652,CRL1h,2023.2.3,Win32,55.55555556,65e67470ae2fbf2172c317b2,65e8755a928abe21664b702a,,,,,,,,,,,109.9713,1.2,111.1656,111.1656,111.2545,right,1,0.0785,,111.2546,112.2551,1,12,28,13,1,total,1,images/Ex6.jpg,right,training,hard,2,,,,,
,,,,,63d53b38b9e515c80720bb76,001,,,,,2024-03-06_13h54.33.652,CRL1h,2023.2.3,Win32,55.55555556,65e67470ae2fbf2172c317b2,65e8755a928abe21664b702a,,,,,,,,,,,112.2556,0.6,112.853,112.8531,113.2057,left,0,0.3516,,113.2058,114.193,1,13,29,5,1,total,1,images/Ex6.jpg,right,training,hard,2,,,,,
,,,,,63d53b38b9e515c80720bb76,001,,,,,2024-03-06_13h54.33.652,CRL1h,2023.2.3,Win32,55.55555556,65e67470ae2fbf2172c317b2,65e8755a928abe21664b702a,,,,,,,,,,,114.1936,0.9,115.0959,115.0959,115.4293,right,0,0.3204,,115.4294,116.4199,1,14,30,11,1,total,1,images/Ex4.jpg,left,training,hard,2,,,,,
,,,,,63d53b38b9e515c80720bb76,001,,,,,2024-03-06_13h54.33.652,CRL1h,2023.2.3,Win32,55.55555556,65e67470ae2fbf2172c317b2,65e8755a928abe21664b702a,,,,,,,,,,,116.4206,1.5,117.919,117.9192,118.1649,right,1,0.2382,,118.1649,119.1534,1,15,31,7,1,total,1,images/Ex8.jpg,right,training,hard,2,,,,,
,,,,,63d53b38b9e515c80720bb76,001,,,,,2024-03-06_13h54.33.652,CRL1h,2023.2.3,Win32,55.55555556,65e67470ae2fbf2172c317b2,65e8755a928abe21664b702a,,,,,,,,,,,119.1541,1.2,120.3557,120.3557,120.6562,left,0,0.2975,,120.6562,121.6579,2,0,32,6,1,total,1,images/Ex7.jpg,right,training,hard,2,,,,,
,,,,,63d53b38b9e515c80720bb76,001,,,,,2024-03-06_13h54.33.652,CRL1h,2023.2.3,Win32,55.55555556,65e67470ae2fbf2172c317b2,65e8755a928abe21664b702a,,,,,,,,,,,121.6584,1.3,122.9483,122.9484,123.247,right,0,0.29,,123.2471,124.2396,2,1,33,9,1,total,1,images/Ex2.jpg,left,training,hard,2,,,,,
,,,,,63d53b38b9e515c80720bb76,001,,,,,2024-03-06_13h54.33.652,CRL1h,2023.2.3,Win32,55.55555556,65e67470ae2fbf2172c317b2,65e8755a928abe21664b702a,,,,,,,,,,,124.2401,1.4,125.6344,125.6344,126.0381,left,0,0.3955,,126.0382,127.0262,2,2,34,14,1,total,1,images/Ex7.jpg,right,training,hard,2,,,,,
,,,,,63d53b38b9e515c80720bb76,001,,,,,2024-03-06_13h54.33.652,CRL1h,2023.2.3,Win32,55.55555556,65e67470ae2fbf2172c317b2,65e8755a928abe21664b702a,,,,,,,,,,,127.0272,1.3,128.315,128.3151,128.5966,right,1,0.2761,,128.5967,129.5864,2,3,35,5,1,total,1,images/Ex6.jpg,right,training,hard,2,,,,,
,,,,,63d53b38b9e515c80720bb76,001,,,,,2024-03-06_13h54.33.652,CRL1h,2023.2.3,Win32,55.55555556,65e67470ae2fbf2172c317b2,65e8755a928abe21664b702a,,,,,,,,,,,129.587,1.2,130.7853,130.7854,131.1712,right,1,0.3781,,131.1713,132.161,2,4,36,7,1,total,1,images/Ex8.jpg,right,training,hard,2,,,,,
,,,,,63d53b38b9e515c80720bb76,001,,,,,2024-03-06_13h54.33.652,CRL1h,2023.2.3,Win32,55.55555556,65e67470ae2fbf2172c317b2,65e8755a928abe21664b702a,,,,,,,,,,,132.1616,1.1,133.2497,133.2497,133.6938,left,1,0.4427,,133.6939,134.6973,2,5,37,3,1,total,1,images/Ex4.jpg,left,training,hard,2,,,,,
,,,,,63d53b38b9e515c80720bb76,001,,,,,2024-03-06_13h54.33.652,CRL1h,2023.2.3,Win32,55.55555556,65e67470ae2fbf2172c317b2,65e8755a928abe21664b702a,,,,,,,,,,,134.6978,1.3,135.9895,135.9895,136.2174,right,0,0.2179,,136.2174,137.2088,2,6,38,2,1,total,1,images/Ex3.jpg,left,training,hard,2,,,,,
,,,,,63d53b38b9e515c80720bb76,001,,,,,2024-03-06_13h54.33.652,CRL1h,2023.2.3,Win32,55.55555556,65e67470ae2fbf2172c317b2,65e8755a928abe21664b702a,,,,,,,,,,,137.209,1.3,138.5105,138.5106,138.755,left,0,0.2383,,138.755,139.7571,2,7,39,12,1,total,1,images/Ex5.jpg,right,training,hard,2,,,,,
,,,,,63d53b38b9e515c80720bb76,001,,,,,2024-03-06_13h54.33.652,CRL1h,2023.2.3,Win32,55.55555556,65e67470ae2fbf2172c317b2,65e8755a928abe21664b702a,,,,,,,,,,,139.7577,1.3,141.0552,141.0552,141.3233,right,0,0.2615,,141.3233,142.325,2,8,40,0,1,total,1,images/Ex1.jpg,left,training,hard,2,,,,,
,,,,,63d53b38b9e515c80720bb76,001,,,,,2024-03-06_13h54.33.652,CRL1h,2023.2.3,Win32,55.55555556,65e67470ae2fbf2172c317b2,65e8755a928abe21664b702a,,,,,,,,,,,142.3257,1.5,143.821,143.821,144.0709,right,0,0.2479,,144.071,145.0593,2,9,41,1,1,total,1,images/Ex2.jpg,left,training,hard,2,,,,,
,,,,,63d53b38b9e515c80720bb76,001,,,,,2024-03-06_13h54.33.652,CRL1h,2023.2.3,Win32,55.55555556,65e67470ae2fbf2172c317b2,65e8755a928abe21664b702a,,,,,,,,,,,145.0605,0.6,145.6563,145.6563,146.484,left,0,0.8216,,146.484,147.4874,2,10,42,13,1,total,1,images/Ex6.jpg,right,training,hard,2,,,,,
,,,,,63d53b38b9e515c80720bb76,001,,,,,2024-03-06_13h54.33.652,CRL1h,2023.2.3,Win32,55.55555556,65e67470ae2fbf2172c317b2,65e8755a928abe21664b702a,,,,,,,,,,,147.488,0.6,148.0866,148.0866,148.4364,left,1,0.3438,,148.4365,149.4357,2,11,43,10,1,total,1,images/Ex3.jpg,left,training,hard,2,,,,,
,,,,,63d53b38b9e515c80720bb76,001,,,,,2024-03-06_13h54.33.652,CRL1h,2023.2.3,Win32,55.55555556,65e67470ae2fbf2172c317b2,65e8755a928abe21664b702a,,,,,,,,,,,149.4362,1.4,150.8374,150.8374,151.5397,right,1,0.6951,,151.5397,152.5414,2,12,44,4,1,total,1,images/Ex5.jpg,right,training,hard,2,,,,,
,,,,,63d53b38b9e515c80720bb76,001,,,,,2024-03-06_13h54.33.652,CRL1h,2023.2.3,Win32,55.55555556,65e67470ae2fbf2172c317b2,65e8755a928abe21664b702a,,,,,,,,,,,152.5421,1.4,153.934,153.9341,154.3573,right,0,0.4137,,154.3574,155.3534,2,13,45,8,1,total,1,images/Ex1.jpg,left,training,hard,2,,,,,
,,,,,63d53b38b9e515c80720bb76,001,,,,,2024-03-06_13h54.33.652,CRL1h,2023.2.3,Win32,55.55555556,65e67470ae2fbf2172c317b2,65e8755a928abe21664b702a,,,,,,,,,,,155.354,0.9,156.2563,156.2563,156.5197,left,0,0.2602,,156.5197,157.5172,2,14,46,15,1,total,1,images/Ex8.jpg,right,training,hard,2,,,,,
,,,,,63d53b38b9e515c80720bb76,001,,,,,2024-03-06_13h54.33.652,CRL1h,2023.2.3,Win32,55.55555556,65e67470ae2fbf2172c317b2,65e8755a928abe21664b702a,,,,,,,,,,,157.5175,1.1,158.61,158.61,158.9443,right,0,0.3228,,158.9444,159.9471,2,15,47,11,1,total,1,images/Ex4.jpg,left,training,hard,2,,,,,
,,,,,63d53b38b9e515c80720bb76,001,,,,,2024-03-06_13h54.33.652,CRL1h,2023.2.3,Win32,55.55555556,65e67470ae2fbf2172c317b2,65e8755a928abe21664b702a,,,,,,,,,,,159.9476,1.5,161.4469,161.447,161.8196,left,0,0.3599,,161.8196,162.8069,3,0,48,13,1,total,1,images/Ex6.jpg,right,training,hard,2,,,,,
,,,,,63d53b38b9e515c80720bb76,001,,,,,2024-03-06_13h54.33.652,CRL1h,2023.2.3,Win32,55.55555556,65e67470ae2fbf2172c317b2,65e8755a928abe21664b702a,,,,,,,,,,,162.8073,0.7,163.5083,163.5083,163.9504,left,0,0.4391,,163.9504,164.9506,3,1,49,6,1,total,1,images/Ex7.jpg,right,training,hard,2,,,,,
,,,,,63d53b38b9e515c80720bb76,001,,,,,2024-03-06_13h54.33.652,CRL1h,2023.2.3,Win32,55.55555556,65e67470ae2fbf2172c317b2,65e8755a928abe21664b702a,,,,,,,,,,,164.9513,1.2,166.1433,166.1433,166.4587,right,0,0.3098,,166.4588,167.4602,3,2,50,10,1,total,1,images/Ex3.jpg,left,training,hard,2,,,,,
,,,,,63d53b38b9e515c80720bb76,001,,,,,2024-03-06_13h54.33.652,CRL1h,2023.2.3,Win32,55.55555556,65e67470ae2fbf2172c317b2,65e8755a928abe21664b702a,,,,,,,,,,,167.461,1.3,168.7643,168.7644,169.0634,left,0,0.2915,,169.0635,170.0526,3,3,51,5,1,total,1,images/Ex6.jpg,right,training,hard,2,,,,,
,,,,,63d53b38b9e515c80720bb76,001,,,,,2024-03-06_13h54.33.652,CRL1h,2023.2.3,Win32,55.55555556,65e67470ae2fbf2172c317b2,65e8755a928abe21664b702a,,,,,,,,,,,170.0537,1.2,171.2472,171.2473,171.5822,right,1,0.3235,,171.5822,172.5704,3,4,52,15,1,total,1,images/Ex8.jpg,right,training,hard,2,,,,,
,,,,,63d53b38b9e515c80720bb76,001,,,,,2024-03-06_13h54.33.652,CRL1h,2023.2.3,Win32,55.55555556,65e67470ae2fbf2172c317b2,65e8755a928abe21664b702a,,,,,,,,,,,172.571,1.1,173.6605,173.6605,173.9601,left,0,0.2979,,173.9602,174.9487,3,5,53,4,1,total,1,images/Ex5.jpg,right,training,hard,2,,,,,
,,,,,63d53b38b9e515c80720bb76,001,,,,,2024-03-06_13h54.33.652,CRL1h,2023.2.3,Win32,55.55555556,65e67470ae2fbf2172c317b2,65e8755a928abe21664b702a,,,,,,,,,,,174.9491,1.2,176.1478,176.1479,176.5893,left,1,0.4324,,176.5894,177.591,3,6,54,9,1,total,1,images/Ex2.jpg,left,training,hard,2,,,,,
,,,,,63d53b38b9e515c80720bb76,001,,,,,2024-03-06_13h54.33.652,CRL1h,2023.2.3,Win32,55.55555556,65e67470ae2fbf2172c317b2,65e8755a928abe21664b702a,,,,,,,,,,,177.5913,0.8,178.3808,178.3809,178.734,left,0,0.3424,,178.7341,179.7339,3,7,55,7,1,total,1,images/Ex8.jpg,right,training,hard,2,,,,,
,,,,,63d53b38b9e515c80720bb76,001,,,,,2024-03-06_13h54.33.652,CRL1h,2023.2.3,Win32,55.55555556,65e67470ae2fbf2172c317b2,65e8755a928abe21664b702a,,,,,,,,,,,179.7346,1.4,181.126,181.126,181.1966,right,0,0.057,,181.1966,182.198,3,8,56,2,1,total,1,images/Ex3.jpg,left,training,hard,2,,,,,
,,,,,63d53b38b9e515c80720bb76,001,,,,,2024-03-06_13h54.33.652,CRL1h,2023.2.3,Win32,55.55555556,65e67470ae2fbf2172c317b2,65e8755a928abe21664b702a,,,,,,,,,,,182.1984,1.2,183.394,183.394,183.4466,left,1,0.0437,,183.4466,184.4358,3,9,57,3,1,total,1,images/Ex4.jpg,left,training,hard,2,,,,,
,,,,,63d53b38b9e515c80720bb76,001,,,,,2024-03-06_13h54.33.652,CRL1h,2023.2.3,Win32,55.55555556,65e67470ae2fbf2172c317b2,65e8755a928abe21664b702a,,,,,,,,,,,184.4364,1.4,185.8323,185.8323,186.1323,right,1,0.289,,186.1323,187.125,3,10,58,12,1,total,1,images/Ex5.jpg,right,training,hard,2,,,,,
,,,,,63d53b38b9e515c80720bb76,001,,,,,2024-03-06_13h54.33.652,CRL1h,2023.2.3,Win32,55.55555556,65e67470ae2fbf2172c317b2,65e8755a928abe21664b702a,,,,,,,,,,,187.1253,1,188.1288,188.1288,188.4115,left,1,0.2701,,188.4115,189.4035,3,11,59,11,1,total,1,images/Ex4.jpg,left,training,hard,2,,,,,
,,,,,63d53b38b9e515c80720bb76,001,,,,,2024-03-06_13h54.33.652,CRL1h,2023.2.3,Win32,55.55555556,65e67470ae2fbf2172c317b2,65e8755a928abe21664b702a,,,,,,,,,,,189.4039,0.6,190.0078,190.0079,190.7506,right,0,0.7358,,190.7506,191.7431,3,12,60,8,1,total,1,images/Ex1.jpg,left,training,hard,2,,,,,
,,,,,63d53b38b9e515c80720bb76,001,,,,,2024-03-06_13h54.33.652,CRL1h,2023.2.3,Win32,55.55555556,65e67470ae2fbf2172c317b2,65e8755a928abe21664b702a,,,,,,,,,,,191.7438,0.6,192.3429,192.3429,192.7662,left,1,0.4216,,192.7662,193.7662,3,13,61,1,1,total,1,images/Ex2.jpg,left,training,hard,2,,,,,
,,,,,63d53b38b9e515c80720bb76,001,,,,,2024-03-06_13h54.33.652,CRL1h,2023.2.3,Win32,55.55555556,65e67470ae2fbf2172c317b2,65e8755a928abe21664b702a,,,,,,,,,,,193.7669,1.3,195.0551,195.0552,195.3539,left,0,0.2936,,195.354,196.3547,3,14,62,14,1,total,1,images/Ex7.jpg,right,training,hard,2,,,,,
,,,,,63d53b38b9e515c80720bb76,001,,,,,2024-03-06_13h54.33.652,CRL1h,2023.2.3,Win32,55.55555556,65e67470ae2fbf2172c317b2,65e8755a928abe21664b702a,,,,,,,,,,,196.355,1.4,197.7461,197.7461,197.87,right,0,0.1161,,197.87,198.8726,3,15,63,0,1,total,1,images/Ex1.jpg,left,training,hard,2,,,,,
,,,,,63d53b38b9e515c80720bb76,001,,,,,2024-03-06_13h54.33.652,CRL1h,2023.2.3,Win32,55.55555556,65e67470ae2fbf2172c317b2,65e8755a928abe21664b702a,,,,,,,,,,,198.8731,0.5,199.3695,199.3697,199.8077,left,0,0.435,,199.8078,200.8008,4,0,64,14,1,total,1,images/Ex7.jpg,right,training,hard,2,,,,,
,,,,,63d53b38b9e515c80720bb76,001,,,,,2024-03-06_13h54.33.652,CRL1h,2023.2.3,Win32,55.55555556,65e67470ae2fbf2172c317b2,65e8755a928abe21664b702a,,,,,,,,,,,200.8014,0.8,201.596,201.596,201.9298,right,0,0.3206,,201.9299,202.9331,4,1,65,8,1,total,1,images/Ex1.jpg,left,training,hard,2,,,,,
,,,,,63d53b38b9e515c80720bb76,001,,,,,2024-03-06_13h54.33.652,CRL1h,2023.2.3,Win32,55.55555556,65e67470ae2fbf2172c317b2,65e8755a928abe21664b702a,,,,,,,,,,,202.9334,1.5,204.437,204.4371,204.7021,left,1,0.2546,,204.7024,205.6981,4,2,66,10,1,total,1,images/Ex3.jpg,left,training,hard,2,,,,,
,,,,,63d53b38b9e515c80720bb76,001,,,,,2024-03-06_13h54.33.652,CRL1h,2023.2.3,Win32,55.55555556,65e67470ae2fbf2172c317b2,65e8755a928abe21664b702a,,,,,,,,,,,205.6984,1.3,207.0011,207.0011,207.2834,left,0,0.2754,,207.2834,208.2838,4,3,67,15,1,total,1,images/Ex8.jpg,right,training,hard,2,,,,,
,,,,,63d53b38b9e515c80720bb76,001,,,,,2024-03-06_13h54.33.652,CRL1h,2023.2.3,Win32,55.55555556,65e67470ae2fbf2172c317b2,65e8755a928abe21664b702a,,,,,,,,,,,208.2845,0.8,209.0737,209.0738,209.6381,right,1,0.5591,,209.6381,210.6326,4,4,68,12,1,total,1,images/Ex5.jpg,right,training,hard,2,,,,,
,,,,,63d53b38b9e515c80720bb76,001,,,,,2024-03-06_13h54.33.652,CRL1h,2023.2.3,Win32,55.55555556,65e67470ae2fbf2172c317b2,65e8755a928abe21664b702a,,,,,,,,,,,210.6329,1,211.6206,211.6206,212.2537,right,1,0.6242,,212.2538,213.2574,4,5,69,13,1,total,1,images/Ex6.jpg,right,training,hard,2,,,,,
,,,,,63d53b38b9e515c80720bb76,001,,,,,2024-03-06_13h54.33.652,CRL1h,2023.2.3,Win32,55.55555556,65e67470ae2fbf2172c317b2,65e8755a928abe21664b702a,,,,,,,,,,,213.258,0.5,213.7519,213.7521,214.0718,right,0,0.3106,,214.0718,215.0743,4,6,70,3,1,total,1,images/Ex4.jpg,left,training,hard,2,,,,,
,,,,,63d53b38b9e515c80720bb76,001,,,,,2024-03-06_13h54.33.652,CRL1h,2023.2.3,Win32,55.55555556,65e67470ae2fbf2172c317b2,65e8755a928abe21664b702a,,,,,,,,,,,215.0746,0.9,215.9711,215.9711,216.584,left,1,0.6018,,216.584,217.5727,4,7,71,2,1,total,1,images/Ex3.jpg,left,training,hard,2,,,,,
,,,,,63d53b38b9e515c80720bb76,001,,,,,2024-03-06_13h54.33.652,CRL1h,2023.2.3,Win32,55.55555556,65e67470ae2fbf2172c317b2,65e8755a928abe21664b702a,,,,,,,,,,,217.5732,0.6,218.1712,218.1712,219.3721,left,1,1.1916,,219.3721,220.3716,4,8,72,1,1,total,1,images/Ex2.jpg,left,training,hard,2,,,,,
,,,,,63d53b38b9e515c80720bb76,001,,,,,2024-03-06_13h54.33.652,CRL1h,2023.2.3,Win32,55.55555556,65e67470ae2fbf2172c317b2,65e8755a928abe21664b702a,,,,,,,,,,,220.3931,0.8,221.1949,221.1949,223.3532,right,0,2.1513,,223.3532,224.3418,4,9,73,0,1,total,1,images/Ex1.jpg,left,training,hard,2,,,,,
,,,,,63d53b38b9e515c80720bb76,001,,,,,2024-03-06_13h54.33.652,CRL1h,2023.2.3,Win32,55.55555556,65e67470ae2fbf2172c317b2,65e8755a928abe21664b702a,,,,,,,,,,,224.3422,0.9,225.24,225.24,226.1572,right,0,0.903,,226.1574,227.1442,4,10,74,11,1,total,1,images/Ex4.jpg,left,training,hard,2,,,,,
,,,,,63d53b38b9e515c80720bb76,001,,,,,2024-03-06_13h54.33.652,CRL1h,2023.2.3,Win32,55.55555556,65e67470ae2fbf2172c317b2,65e8755a928abe21664b702a,,,,,,,,,,,227.1447,1,228.1444,228.1444,231.1884,right,1,3.034,,231.1885,232.1777,4,11,75,4,1,total,1,images/Ex5.jpg,right,training,hard,2,,,,,
,,,,,63d53b38b9e515c80720bb76,001,,,,,2024-03-06_13h54.33.652,CRL1h,2023.2.3,Win32,55.55555556,65e67470ae2fbf2172c317b2,65e8755a928abe21664b702a,,,,,,,,,,,232.1903,0.7,232.8864,232.8865,234.2469,right,1,1.3532,,234.247,235.2442,4,12,76,7,1,total,1,images/Ex8.jpg,right,training,hard,2,,,,,
,,,,,63d53b38b9e515c80720bb76,001,,,,,2024-03-06_13h54.33.652,CRL1h,2023.2.3,Win32,55.55555556,65e67470ae2fbf2172c317b2,65e8755a928abe21664b702a,,,,,,,,,,,235.2449,0.5,235.739,235.739,238.18,right,1,2.4334,,238.18,239.1671,4,13,77,6,1,total,1,images/Ex7.jpg,right,training,hard,2,,,,,
,,,,,63d53b38b9e515c80720bb76,001,,,,,2024-03-06_13h54.33.652,CRL1h,2023.2.3,Win32,55.55555556,65e67470ae2fbf2172c317b2,65e8755a928abe21664b702a,,,,,,,,,,,239.1908,0.8,239.9927,239.9928,240.0993,left,1,0.0994,,240.0993,241.0992,4,14,78,9,1,total,1,images/Ex2.jpg,left,training,hard,2,,,,,
,,,,,63d53b38b9e515c80720bb76,001,,,,,2024-03-06_13h54.33.652,CRL1h,2023.2.3,Win32,55.55555556,65e67470ae2fbf2172c317b2,65e8755a928abe21664b702a,,,,,,,,,,,241.0995,1,242.0882,242.0883,242.4572,left,0,0.3573,,242.4573,243.4445,4,15,79,5,1,total,1,images/Ex6.jpg,right,training,hard,2,,,,,
,,,,,63d53b38b9e515c80720bb76,001,,,,,2024-03-06_13h54.33.652,CRL1h,2023.2.3,Win32,55.55555556,65e67470ae2fbf2172c317b2,65e8755a928abe21664b702a,,,,,,,,,,,243.4449,1.3,244.7489,244.7489,245.0483,right,1,0.2922,,245.0483,246.0481,5,0,80,5,1,total,1,images/Ex6.jpg,right,training,hard,2,,,,,
,,,,,63d53b38b9e515c80720bb76,001,,,,,2024-03-06_13h54.33.652,CRL1h,2023.2.3,Win32,55.55555556,65e67470ae2fbf2172c317b2,65e8755a928abe21664b702a,,,,,,,,,,,246.049,0.9,246.9458,246.9458,247.4559,right,1,0.4986,,247.4559,248.456,5,1,81,4,1,total,1,images/Ex5.jpg,right,training,hard,2,,,,,
,,,,,63d53b38b9e515c80720bb76,001,,,,,2024-03-06_13h54.33.652,CRL1h,2023.2.3,Win32,55.55555556,65e67470ae2fbf2172c317b2,65e8755a928abe21664b702a,,,,,,,,,,,248.4567,1.5,249.9469,249.9469,250.174,right,0,0.2184,,250.1742,251.1629,5,2,82,10,1,total,1,images/Ex3.jpg,left,training,hard,2,,,,,
,,,,,63d53b38b9e515c80720bb76,001,,,,,2024-03-06_13h54.33.652,CRL1h,2023.2.3,Win32,55.55555556,65e67470ae2fbf2172c317b2,65e8755a928abe21664b702a,,,,,,,,,,,251.1633,0.9,252.0624,252.0625,252.3793,left,1,0.3036,,252.3794,253.3703,5,3,83,2,1,total,1,images/Ex3.jpg,left,training,hard,2,,,,,
,,,,,63d53b38b9e515c80720bb76,001,,,,,2024-03-06_13h54.33.652,CRL1h,2023.2.3,Win32,55.55555556,65e67470ae2fbf2172c317b2,65e8755a928abe21664b702a,,,,,,,,,,,253.371,1.1,254.4646,254.4646,254.6747,left,1,0.1971,,254.6747,255.6783,5,4,84,9,1,total,1,images/Ex2.jpg,left,training,hard,2,,,,,
,,,,,63d53b38b9e515c80720bb76,001,,,,,2024-03-06_13h54.33.652,CRL1h,2023.2.3,Win32,55.55555556,65e67470ae2fbf2172c317b2,65e8755a928abe21664b702a,,,,,,,,,,,255.6788,1,256.6845,256.6848,257.1985,left,0,0.506,,257.1985,258.1922,5,5,85,7,1,total,1,images/Ex8.jpg,right,training,hard,2,,,,,
,,,,,63d53b38b9e515c80720bb76,001,,,,,2024-03-06_13h54.33.652,CRL1h,2023.2.3,Win32,55.55555556,65e67470ae2fbf2172c317b2,65e8755a928abe21664b702a,,,,,,,,,,,258.1925,1.3,259.4964,259.4964,259.8315,right,1,0.3318,,259.8315,260.8222,5,6,86,12,1,total,1,images/Ex5.jpg,right,training,hard,2,,,,,
,,,,,63d53b38b9e515c80720bb76,001,,,,,2024-03-06_13h54.33.652,CRL1h,2023.2.3,Win32,55.55555556,65e67470ae2fbf2172c317b2,65e8755a928abe21664b702a,,,,,,,,,,,260.8227,1,261.8107,261.8108,262.0941,right,0,0.2748,,262.0942,263.0827,5,7,87,3,1,total,1,images/Ex4.jpg,left,training,hard,2,,,,,
,,,,,63d53b38b9e515c80720bb76,001,,,,,2024-03-06_13h54.33.652,CRL1h,2023.2.3,Win32,55.55555556,65e67470ae2fbf2172c317b2,65e8755a928abe21664b702a,,,,,,,,,,,263.0833,1.3,264.3837,264.3837,264.6634,left,0,0.2707,,264.6634,265.6652,5,8,88,6,1,total,1,images/Ex7.jpg,right,training,hard,2,,,,,
,,,,,63d53b38b9e515c80720bb76,001,,,,,2024-03-06_13h54.33.652,CRL1h,2023.2.3,Win32,55.55555556,65e67470ae2fbf2172c317b2,65e8755a928abe21664b702a,,,,,,,,,,,265.6655,0.9,266.5594,266.5595,266.9486,left,0,0.3763,,266.9486,267.9411,5,9,89,14,1,total,1,images/Ex7.jpg,right,training,hard,2,,,,,
,,,,,63d53b38b9e515c80720bb76,001,,,,,2024-03-06_13h54.33.652,CRL1h,2023.2.3,Win32,55.55555556,65e67470ae2fbf2172c317b2,65e8755a928abe21664b702a,,,,,,,,,,,267.9414,1.4,269.3345,269.3345,270.9875,left,1,1.6426,,270.9876,271.9867,5,10,90,8,1,total,1,images/Ex1.jpg,left,training,hard,2,,,,,
,,,,,63d53b38b9e515c80720bb76,001,,,,,2024-03-06_13h54.33.652,CRL1h,2023.2.3,Win32,55.55555556,65e67470ae2fbf2172c317b2,65e8755a928abe21664b702a,,,,,,,,,,,271.9871,1.4,273.38,273.3801,274.0523,right,1,0.6592,,274.0525,275.0538,5,11,91,13,1,total,1,images/Ex6.jpg,right,training,hard,2,,,,,
,,,,,63d53b38b9e515c80720bb76,001,,,,,2024-03-06_13h54.33.652,CRL1h,2023.2.3,Win32,55.55555556,65e67470ae2fbf2172c317b2,65e8755a928abe21664b702a,,,,,,,,,,,275.0543,0.9,275.9532,275.9533,276.237,right,1,0.273,,276.237,277.2254,5,12,92,15,1,total,1,images/Ex8.jpg,right,training,hard,2,,,,,
,,,,,63d53b38b9e515c80720bb76,001,,,,,2024-03-06_13h54.33.652,CRL1h,2023.2.3,Win32,55.55555556,65e67470ae2fbf2172c317b2,65e8755a928abe21664b702a,,,,,,,,,,,277.2257,0.9,278.1207,278.1207,279.2462,left,1,1.1183,,279.2463,280.2464,5,13,93,0,1,total,1,images/Ex1.jpg,left,training,hard,2,,,,,
,,,,,63d53b38b9e515c80720bb76,001,,,,,2024-03-06_13h54.33.652,CRL1h,2023.2.3,Win32,55.55555556,65e67470ae2fbf2172c317b2,65e8755a928abe21664b702a,,,,,,,,,,,280.2467,0.5,280.7394,280.7395,281.2141,left,1,0.4618,,281.2142,282.2072,5,14,94,11,1,total,1,images/Ex4.jpg,left,training,hard,2,,,,,
,,,,,63d53b38b9e515c80720bb76,001,,,,,2024-03-06_13h54.33.652,CRL1h,2023.2.3,Win32,55.55555556,65e67470ae2fbf2172c317b2,65e8755a928abe21664b702a,,,,,,,,,,,282.2074,1.1,283.3037,283.3037,283.3231,right,0,0.0178,,283.3231,284.3235,5,15,95,1,1,total,1,images/Ex2.jpg,left,training,hard,2,,,,,
,,,,,63d53b38b9e515c80720bb76,001,,,,,2024-03-06_13h54.33.652,CRL1h,2023.2.3,Win32,55.55555556,65e67470ae2fbf2172c317b2,65e8755a928abe21664b702a,,,,,,,,,,,284.3241,0.5,284.8179,284.8179,285.788,left,0,0.9637,,285.7881,286.7756,6,0,96,14,1,total,1,images/Ex7.jpg,right,training,hard,2,,,,,
,,,,,63d53b38b9e515c80720bb76,001,,,,,2024-03-06_13h54.33.652,CRL1h,2023.2.3,Win32,55.55555556,65e67470ae2fbf2172c317b2,65e8755a928abe21664b702a,,,,,,,,,,,286.7763,1.1,287.8803,287.8803,288.2485,right,1,0.3586,,288.2486,289.2352,6,1,97,15,1,total,1,images/Ex8.jpg,right,training,hard,2,,,,,
,,,,,63d53b38b9e515c80720bb76,001,,,,,2024-03-06_13h54.33.652,CRL1h,2023.2.3,Win32,55.55555556,65e67470ae2fbf2172c317b2,65e8755a928abe21664b702a,,,,,,,,,,,289.2368,1.3,290.5248,290.5248,291.1905,right,0,0.6633,,291.1905,292.1923,6,2,98,0,1,total,1,images/Ex1.jpg,left,training,hard,2,,,,,
,,,,,63d53b38b9e515c80720bb76,001,,,,,2024-03-06_13h54.33.652,CRL1h,2023.2.3,Win32,55.55555556,65e67470ae2fbf2172c317b2,65e8755a928abe21664b702a,,,,,,,,,,,292.1926,0.7,292.8964,292.8964,293.3582,left,1,0.4524,,293.3582,294.3613,6,3,99,10,1,total,1,images/Ex3.jpg,left,training,hard,2,,,,,
,,,,,63d53b38b9e515c80720bb76,001,,,,,2024-03-06_13h54.33.652,CRL1h,2023.2.3,Win32,55.55555556,65e67470ae2fbf2172c317b2,65e8755a928abe21664b702a,,,,,,,,,,,294.3615,1,295.3564,295.3566,295.9825,right,0,0.6118,,295.9825,296.9707,6,4,100,9,1,total,1,images/Ex2.jpg,left,training,hard,2,,,,,
,,,,,63d53b38b9e515c80720bb76,001,,,,,2024-03-06_13h54.33.652,CRL1h,2023.2.3,Win32,55.55555556,65e67470ae2fbf2172c317b2,65e8755a928abe21664b702a,,,,,,,,,,,296.9713,0.8,297.7654,297.7654,298.1875,left,0,0.4178,,298.1875,299.1884,6,5,101,13,1,total,1,images/Ex6.jpg,right,training,hard,2,,,,,
,,,,,63d53b38b9e515c80720bb76,001,,,,,2024-03-06_13h54.33.652,CRL1h,2023.2.3,Win32,55.55555556,65e67470ae2fbf2172c317b2,65e8755a928abe21664b702a,,,,,,,,,,,299.1888,1,300.1928,300.1928,300.4723,right,0,0.2775,,300.4723,301.4715,6,6,102,2,1,total,1,images/Ex3.jpg,left,training,hard,2,,,,,
,,,,,63d53b38b9e515c80720bb76,001,,,,,2024-03-06_13h54.33.652,CRL1h,2023.2.3,Win32,55.55555556,65e67470ae2fbf2172c317b2,65e8755a928abe21664b702a,,,,,,,,,,,301.4718,1.4,302.8642,302.8642,303.1806,left,1,0.3094,,303.1806,304.1702,6,7,103,8,1,total,1,images/Ex1.jpg,left,training,hard,2,,,,,
,,,,,63d53b38b9e515c80720bb76,001,,,,,2024-03-06_13h54.33.652,CRL1h,2023.2.3,Win32,55.55555556,65e67470ae2fbf2172c317b2,65e8755a928abe21664b702a,,,,,,,,,,,304.1705,0.5,304.6642,304.6642,305.0866,left,1,0.4133,,305.0866,306.0736,6,8,104,1,1,total,1,images/Ex2.jpg,left,training,hard,2,,,,,
,,,,,63d53b38b9e515c80720bb76,001,,,,,2024-03-06_13h54.33.652,CRL1h,2023.2.3,Win32,55.55555556,65e67470ae2fbf2172c317b2,65e8755a928abe21664b702a,,,,,,,,,,,306.074,1.3,307.3698,307.3698,307.7098,right,1,0.3263,,307.7099,308.6974,6,9,105,12,1,total,1,images/Ex5.jpg,right,training,hard,2,,,,,
,,,,,63d53b38b9e515c80720bb76,001,,,,,2024-03-06_13h54.33.652,CRL1h,2023.2.3,Win32,55.55555556,65e67470ae2fbf2172c317b2,65e8755a928abe21664b702a,,,,,,,,,,,308.6981,0.6,309.2963,309.2964,310.1425,left,0,0.844,,310.1425,311.145,6,10,106,5,1,total,1,images/Ex6.jpg,right,training,hard,2,,,,,
,,,,,63d53b38b9e515c80720bb76,001,,,,,2024-03-06_13h54.33.652,CRL1h,2023.2.3,Win32,55.55555556,65e67470ae2fbf2172c317b2,65e8755a928abe21664b702a,,,,,,,,,,,311.1453,0.9,312.0491,312.0491,312.4548,left,1,0.3976,,312.4548,313.4581,6,11,107,11,1,total,1,images/Ex4.jpg,left,training,hard,2,,,,,
,,,,,63d53b38b9e515c80720bb76,001,,,,,2024-03-06_13h54.33.652,CRL1h,2023.2.3,Win32,55.55555556,65e67470ae2fbf2172c317b2,65e8755a928abe21664b702a,,,,,,,,,,,313.4586,0.7,314.1487,314.1487,319.2642,left,0,5.1083,,319.2642,320.2636,6,12,108,6,1,total,1,images/Ex7.jpg,right,training,hard,2,,,,,
,,,,,63d53b38b9e515c80720bb76,001,,,,,2024-03-06_13h54.33.652,CRL1h,2023.2.3,Win32,55.55555556,65e67470ae2fbf2172c317b2,65e8755a928abe21664b702a,,,,,,,,,,,320.2902,1.3,321.5888,321.5889,321.9416,right,0,0.3398,,321.9417,322.9293,6,13,109,3,1,total,1,images/Ex4.jpg,left,training,hard,2,,,,,
,,,,,63d53b38b9e515c80720bb76,001,,,,,2024-03-06_13h54.33.652,CRL1h,2023.2.3,Win32,55.55555556,65e67470ae2fbf2172c317b2,65e8755a928abe21664b702a,,,,,,,,,,,322.9297,1.2,324.127,324.127,326.0324,left,0,1.9027,,326.0324,327.0235,6,14,110,4,1,total,1,images/Ex5.jpg,right,training,hard,2,,,,,
,,,,,63d53b38b9e515c80720bb76,001,,,,,2024-03-06_13h54.33.652,CRL1h,2023.2.3,Win32,55.55555556,65e67470ae2fbf2172c317b2,65e8755a928abe21664b702a,,,,,,,,,,,327.042,1.2,328.2424,328.2424,328.7877,right,1,0.5347,,328.7878,329.7913,6,15,111,7,1,total,1,images/Ex8.jpg,right,training,hard,2,,,,,
,,,,,63d53b38b9e515c80720bb76,001,,,,,2024-03-06_13h54.33.652,CRL1h,2023.2.3,Win32,55.55555556,65e67470ae2fbf2172c317b2,65e8755a928abe21664b702a,,,,,,,,,,,329.7919,0.9,330.6898,330.6899,331.6978,right,1,1.0024,,331.698,332.7011,7,0,112,5,1,total,1,images/Ex6.jpg,right,training,hard,2,,,,,
,,,,,63d53b38b9e515c80720bb76,001,,,,,2024-03-06_13h54.33.652,CRL1h,2023.2.3,Win32,55.55555556,65e67470ae2fbf2172c317b2,65e8755a928abe21664b702a,,,,,,,,,,,332.7015,1.2,333.8946,333.8947,334.3896,right,1,0.4937,,334.3896,335.3775,7,1,113,7,1,total,1,images/Ex8.jpg,right,training,hard,2,,,,,
,,,,,63d53b38b9e515c80720bb76,001,,,,,2024-03-06_13h54.33.652,CRL1h,2023.2.3,Win32,55.55555556,65e67470ae2fbf2172c317b2,65e8755a928abe21664b702a,,,,,,,,,,,335.3782,1,336.3819,336.3819,336.6627,left,1,0.2726,,336.6628,337.6648,7,2,114,11,1,total,1,images/Ex4.jpg,left,training,hard,2,,,,,
,,,,,63d53b38b9e515c80720bb76,001,,,,,2024-03-06_13h54.33.652,CRL1h,2023.2.3,Win32,55.55555556,65e67470ae2fbf2172c317b2,65e8755a928abe21664b702a,,,,,,,,,,,337.6656,1.1,338.7541,338.7542,339.0169,right,1,0.2526,,339.0169,340.0042,7,3,115,14,1,total,1,images/Ex7.jpg,right,training,hard,2,,,,,
,,,,,63d53b38b9e515c80720bb76,001,,,,,2024-03-06_13h54.33.652,CRL1h,2023.2.3,Win32,55.55555556,65e67470ae2fbf2172c317b2,65e8755a928abe21664b702a,,,,,,,,,,,340.0049,0.7,340.7081,340.7081,341.2711,right,1,0.5619,,341.2712,342.2715,7,4,116,6,1,total,1,images/Ex7.jpg,right,training,hard,2,,,,,
,,,,,63d53b38b9e515c80720bb76,001,,,,,2024-03-06_13h54.33.652,CRL1h,2023.2.3,Win32,55.55555556,65e67470ae2fbf2172c317b2,65e8755a928abe21664b702a,,,,,,,,,,,342.2718,0.6,342.8733,342.8734,343.8898,right,0,1.0122,,343.8898,344.892,7,5,117,8,1,total,1,images/Ex1.jpg,left,training,hard,2,,,,,
,,,,,63d53b38b9e515c80720bb76,001,,,,,2024-03-06_13h54.33.652,CRL1h,2023.2.3,Win32,55.55555556,65e67470ae2fbf2172c317b2,65e8755a928abe21664b702a,,,,,,,,,,,344.8924,1.3,346.1824,346.1824,346.5365,left,1,0.3451,,346.5366,347.5293,7,6,118,3,1,total,1,images/Ex4.jpg,left,training,hard,2,,,,,
,,,,,63d53b38b9e515c80720bb76,001,,,,,2024-03-06_13h54.33.652,CRL1h,2023.2.3,Win32,55.55555556,65e67470ae2fbf2172c317b2,65e8755a928abe21664b702a,,,,,,,,,,,347.5296,0.9,348.4286,348.4286,348.7641,right,1,0.3285,,348.7642,349.7619,7,7,119,4,1,total,1,images/Ex5.jpg,right,training,hard,2,,,,,
,,,,,63d53b38b9e515c80720bb76,001,,,,,2024-03-06_13h54.33.652,CRL1h,2023.2.3,Win32,55.55555556,65e67470ae2fbf2172c317b2,65e8755a928abe21664b702a,,,,,,,,,,,349.7622,0.8,350.5545,350.5547,350.9048,left,0,0.3402,,350.9049,351.9046,7,8,120,13,1,total,1,images/Ex6.jpg,right,training,hard,2,,,,,
,,,,,63d53b38b9e515c80720bb76,001,,,,,2024-03-06_13h54.33.652,CRL1h,2023.2.3,Win32,55.55555556,65e67470ae2fbf2172c317b2,65e8755a928abe21664b702a,,,,,,,,,,,351.905,0.6,352.5046,352.5047,352.9261,right,1,0.4201,,352.9261,353.9267,7,9,121,15,1,total,1,images/Ex8.jpg,right,training,hard,2,,,,,
,,,,,63d53b38b9e515c80720bb76,001,,,,,2024-03-06_13h54.33.652,CRL1h,2023.2.3,Win32,55.55555556,65e67470ae2fbf2172c317b2,65e8755a928abe21664b702a,,,,,,,,,,,353.9274,1.2,355.1215,355.1215,355.437,right,0,0.3097,,355.437,356.438,7,10,122,0,1,total,1,images/Ex1.jpg,left,training,hard,2,,,,,
,,,,,63d53b38b9e515c80720bb76,001,,,,,2024-03-06_13h54.33.652,CRL1h,2023.2.3,Win32,55.55555556,65e67470ae2fbf2172c317b2,65e8755a928abe21664b702a,,,,,,,,,,,356.4383,1.2,357.6374,357.6375,357.9181,left,1,0.2717,,357.9182,358.9199,7,11,123,2,1,total,1,images/Ex3.jpg,left,training,hard,2,,,,,
,,,,,63d53b38b9e515c80720bb76,001,,,,,2024-03-06_13h54.33.652,CRL1h,2023.2.3,Win32,55.55555556,65e67470ae2fbf2172c317b2,65e8755a928abe21664b702a,,,,,,,,,,,358.9206,0.6,359.5206,359.5206,361.2636,right,1,1.7401,,361.2637,362.2648,7,12,124,12,1,total,1,images/Ex5.jpg,right,training,hard,2,,,,,
,,,,,63d53b38b9e515c80720bb76,001,,,,,2024-03-06_13h54.33.652,CRL1h,2023.2.3,Win32,55.55555556,65e67470ae2fbf2172c317b2,65e8755a928abe21664b702a,,,,,,,,,,,362.2651,0.5,362.7636,362.7637,363.8366,right,0,1.0656,,363.8367,364.8241,7,13,125,10,1,total,1,images/Ex3.jpg,left,training,hard,2,,,,,
,,,,,63d53b38b9e515c80720bb76,001,,,,,2024-03-06_13h54.33.652,CRL1h,2023.2.3,Win32,55.55555556,65e67470ae2fbf2172c317b2,65e8755a928abe21664b702a,,,,,,,,,,,364.8249,1.2,366.0172,366.0172,391.3246,right,0,25.2945,,391.3247,392.3123,7,14,126,1,1,total,1,images/Ex2.jpg,left,training,hard,2,,,,,
,,,,,63d53b38b9e515c80720bb76,001,,,,,2024-03-06_13h54.33.652,CRL1h,2023.2.3,Win32,55.55555556,65e67470ae2fbf2172c317b2,65e8755a928abe21664b702a,,,,,,,,,,,392.3269,0.5,392.8239,392.824,393.0887,left,1,0.2543,,393.0887,394.0791,7,15,127,9,1,total,1,images/Ex2.jpg,left,training,hard,2,,,,,
,,,,,63d53b38b9e515c80720bb76,001,,,,,2024-03-06_13h54.33.652,CRL1h,2023.2.3,Win32,55.55555556,65e67470ae2fbf2172c317b2,65e8755a928abe21664b702a,,,,,,,,,,,394.0914,0.6,394.6811,394.6812,395.4913,right,1,0.7972,,395.4913,396.4869,0,0,0,11,1,total,2,images/Ex4.jpg,right,reversed,hard,2,,,,,
,,,,,63d53b38b9e515c80720bb76,001,,,,,2024-03-06_13h54.33.652,CRL1h,2023.2.3,Win32,55.55555556,65e67470ae2fbf2172c317b2,65e8755a928abe21664b702a,,,,,,,,,,,396.4874,1.1,397.5881,397.5881,397.9393,left,1,0.3413,,397.9393,398.9425,0,1,1,5,1,total,2,images/Ex6.jpg,left,reversed,hard,2,,,,,
,,,,,63d53b38b9e515c80720bb76,001,,,,,2024-03-06_13h54.33.652,CRL1h,2023.2.3,Win32,55.55555556,65e67470ae2fbf2172c317b2,65e8755a928abe21664b702a,,,,,,,,,,,398.9433,1.1,400.036,400.0361,400.4946,right,1,0.4444,,400.4947,401.4977,0,2,2,8,1,total,2,images/Ex1.jpg,right,reversed,hard,2,,,,,
,,,,,63d53b38b9e515c80720bb76,001,,,,,2024-03-06_13h54.33.652,CRL1h,2023.2.3,Win32,55.55555556,65e67470ae2fbf2172c317b2,65e8755a928abe21664b702a,,,,,,,,,,,401.4981,0.8,402.2889,402.289,402.8544,right,0,0.5642,,402.8545,403.8552,0,3,3,14,1,total,2,images/Ex7.jpg,left,reversed,hard,2,,,,,
,,,,,63d53b38b9e515c80720bb76,001,,,,,2024-03-06_13h54.33.652,CRL1h,2023.2.3,Win32,55.55555556,65e67470ae2fbf2172c317b2,65e8755a928abe21664b702a,,,,,,,,,,,403.8554,0.7,404.5557,404.5557,404.9599,left,1,0.3952,,404.96,405.9642,0,4,4,12,1,total,2,images/Ex5.jpg,left,reversed,hard,2,,,,,
,,,,,63d53b38b9e515c80720bb76,001,,,,,2024-03-06_13h54.33.652,CRL1h,2023.2.3,Win32,55.55555556,65e67470ae2fbf2172c317b2,65e8755a928abe21664b702a,,,,,,,,,,,405.9649,0.6,406.5628,406.5628,407.2311,left,1,0.6648,,407.2312,408.2337,0,5,5,13,1,total,2,images/Ex6.jpg,left,reversed,hard,2,,,,,
,,,,,63d53b38b9e515c80720bb76,001,,,,,2024-03-06_13h54.33.652,CRL1h,2023.2.3,Win32,55.55555556,65e67470ae2fbf2172c317b2,65e8755a928abe21664b702a,,,,,,,,,,,408.234,1.4,409.6258,409.6258,409.9239,right,0,0.2913,,409.924,410.9272,0,6,6,7,1,total,2,images/Ex8.jpg,left,reversed,hard,2,,,,,
,,,,,63d53b38b9e515c80720bb76,001,,,,,2024-03-06_13h54.33.652,CRL1h,2023.2.3,Win32,55.55555556,65e67470ae2fbf2172c317b2,65e8755a928abe21664b702a,,,,,,,,,,,410.9278,1.3,412.2279,412.228,412.7222,left,1,0.4884,,412.7222,413.7207,0,7,7,15,1,total,2,images/Ex8.jpg,left,reversed,hard,2,,,,,
,,,,,63d53b38b9e515c80720bb76,001,,,,,2024-03-06_13h54.33.652,CRL1h,2023.2.3,Win32,55.55555556,65e67470ae2fbf2172c317b2,65e8755a928abe21664b702a,,,,,,,,,,,413.7212,1.2,414.9161,414.9161,415.1961,right,0,0.2737,,415.1962,416.1865,0,8,8,4,1,total,2,images/Ex5.jpg,left,reversed,hard,2,,,,,
,,,,,63d53b38b9e515c80720bb76,001,,,,,2024-03-06_13h54.33.652,CRL1h,2023.2.3,Win32,55.55555556,65e67470ae2fbf2172c317b2,65e8755a928abe21664b702a,,,,,,,,,,,416.1872,0.6,416.783,416.783,417.4364,left,1,0.6452,,417.4366,418.4377,0,9,9,6,1,total,2,images/Ex7.jpg,left,reversed,hard,2,,,,,
,,,,,63d53b38b9e515c80720bb76,001,,,,,2024-03-06_13h54.33.652,CRL1h,2023.2.3,Win32,55.55555556,65e67470ae2fbf2172c317b2,65e8755a928abe21664b702a,,,,,,,,,,,418.4382,0.9,419.3371,419.3371,419.6001,left,0,0.2541,,419.6002,420.5991,0,10,10,0,1,total,2,images/Ex1.jpg,right,reversed,hard,2,,,,,
,,,,,63d53b38b9e515c80720bb76,001,,,,,2024-03-06_13h54.33.652,CRL1h,2023.2.3,Win32,55.55555556,65e67470ae2fbf2172c317b2,65e8755a928abe21664b702a,,,,,,,,,,,420.5996,0.5,421.09,421.09,421.5834,left,0,0.4859,,421.5834,422.5742,0,11,11,9,1,total,2,images/Ex2.jpg,right,reversed,hard,2,,,,,
,,,,,63d53b38b9e515c80720bb76,001,,,,,2024-03-06_13h54.33.652,CRL1h,2023.2.3,Win32,55.55555556,65e67470ae2fbf2172c317b2,65e8755a928abe21664b702a,,,,,,,,,,,422.5745,1,423.5674,423.5674,424.1491,left,0,0.5744,,424.1492,425.138,0,12,12,1,1,total,2,images/Ex2.jpg,right,reversed,hard,2,,,,,
,,,,,63d53b38b9e515c80720bb76,001,,,,,2024-03-06_13h54.33.652,CRL1h,2023.2.3,Win32,55.55555556,65e67470ae2fbf2172c317b2,65e8755a928abe21664b702a,,,,,,,,,,,425.1385,0.6,425.7357,425.7359,425.9987,right,1,0.2547,,425.9988,427.0007,0,13,13,2,1,total,2,images/Ex3.jpg,right,reversed,hard,2,,,,,
,,,,,63d53b38b9e515c80720bb76,001,,,,,2024-03-06_13h54.33.652,CRL1h,2023.2.3,Win32,55.55555556,65e67470ae2fbf2172c317b2,65e8755a928abe21664b702a,,,,,,,,,,,427.0015,1,428.0036,428.0036,428.3199,left,0,0.3072,,428.32,429.322,0,14,14,3,1,total,2,images/Ex4.jpg,right,reversed,hard,2,,,,,
,,,,,63d53b38b9e515c80720bb76,001,,,,,2024-03-06_13h54.33.652,CRL1h,2023.2.3,Win32,55.55555556,65e67470ae2fbf2172c317b2,65e8755a928abe21664b702a,,,,,,,,,,,429.3229,0.8,430.1123,430.1124,430.5661,right,1,0.4448,,430.5662,431.5713,0,15,15,10,1,total,2,images/Ex3.jpg,right,reversed,hard,2,,,,,
,,,,,63d53b38b9e515c80720bb76,001,,,,,2024-03-06_13h54.33.652,CRL1h,2023.2.3,Win32,55.55555556,65e67470ae2fbf2172c317b2,65e8755a928abe21664b702a,,,,,,,,,,,431.5722,0.6,432.1702,432.1702,433.5442,right,0,1.3701,,433.5442,434.5484,1,0,16,13,1,total,2,images/Ex6.jpg,left,reversed,hard,2,,,,,
,,,,,63d53b38b9e515c80720bb76,001,,,,,2024-03-06_13h54.33.652,CRL1h,2023.2.3,Win32,55.55555556,65e67470ae2fbf2172c317b2,65e8755a928abe21664b702a,,,,,,,,,,,434.5614,1.4,435.9591,435.9591,436.5045,left,1,0.5428,,436.5046,437.5044,1,1,17,6,1,total,2,images/Ex7.jpg,left,reversed,hard,2,,,,,
,,,,,63d53b38b9e515c80720bb76,001,,,,,2024-03-06_13h54.33.652,CRL1h,2023.2.3,Win32,55.55555556,65e67470ae2fbf2172c317b2,65e8755a928abe21664b702a,,,,,,,,,,,437.5049,1.4,438.8988,438.8988,440.7001,left,1,1.7914,,440.7002,441.6888,1,2,18,7,1,total,2,images/Ex8.jpg,left,reversed,hard,2,,,,,
,,,,,63d53b38b9e515c80720bb76,001,,,,,2024-03-06_13h54.33.652,CRL1h,2023.2.3,Win32,55.55555556,65e67470ae2fbf2172c317b2,65e8755a928abe21664b702a,,,,,,,,,,,441.6893,0.5,442.1858,442.1859,442.9984,right,1,0.8048,,442.9985,443.9861,1,3,19,8,1,total,2,images/Ex1.jpg,right,reversed,hard,2,,,,,
,,,,,63d53b38b9e515c80720bb76,001,,,,,2024-03-06_13h54.33.652,CRL1h,2023.2.3,Win32,55.55555556,65e67470ae2fbf2172c317b2,65e8755a928abe21664b702a,,,,,,,,,,,443.9868,1.1,445.0744,445.0744,445.4268,right,0,0.3394,,445.4268,446.43,1,4,20,12,1,total,2,images/Ex5.jpg,left,reversed,hard,2,,,,,
,,,,,63d53b38b9e515c80720bb76,001,,,,,2024-03-06_13h54.33.652,CRL1h,2023.2.3,Win32,55.55555556,65e67470ae2fbf2172c317b2,65e8755a928abe21664b702a,,,,,,,,,,,446.4303,1.3,447.7186,447.7186,448.2264,left,1,0.4976,,448.2265,449.2282,1,5,21,14,1,total,2,images/Ex7.jpg,left,reversed,hard,2,,,,,
,,,,,63d53b38b9e515c80720bb76,001,,,,,2024-03-06_13h54.33.652,CRL1h,2023.2.3,Win32,55.55555556,65e67470ae2fbf2172c317b2,65e8755a928abe21664b702a,,,,,,,,,,,449.2285,1.1,450.3201,450.3201,450.8939,left,1,0.5647,,450.8939,451.8932,1,6,22,15,1,total,2,images/Ex8.jpg,left,reversed,hard,2,,,,,
,,,,,63d53b38b9e515c80720bb76,001,,,,,2024-03-06_13h54.33.652,CRL1h,2023.2.3,Win32,55.55555556,65e67470ae2fbf2172c317b2,65e8755a928abe21664b702a,,,,,,,,,,,451.8939,0.7,452.598,452.5981,453.2138,left,0,0.6016,,453.2139,454.2167,1,7,23,1,1,total,2,images/Ex2.jpg,right,reversed,hard,2,,,,,
,,,,,63d53b38b9e515c80720bb76,001,,,,,2024-03-06_13h54.33.652,CRL1h,2023.2.3,Win32,55.55555556,65e67470ae2fbf2172c317b2,65e8755a928abe21664b702a,,,,,,,,,,,454.2173,0.7,454.9048,454.9048,455.5745,right,0,0.6675,,455.5745,456.5768,1,8,24,4,1,total,2,images/Ex5.jpg,left,reversed,hard,2,,,,,
,,,,,63d53b38b9e515c80720bb76,001,,,,,2024-03-06_13h54.33.652,CRL1h,2023.2.3,Win32,55.55555556,65e67470ae2fbf2172c317b2,65e8755a928abe21664b702a,,,,,,,,,,,456.5771,1.3,457.8652,457.8652,458.13,left,0,0.2588,,458.1301,459.1174,1,9,25,9,1,total,2,images/Ex2.jpg,right,reversed,hard,2,,,,,
,,,,,63d53b38b9e515c80720bb76,001,,,,,2024-03-06_13h54.33.652,CRL1h,2023.2.3,Win32,55.55555556,65e67470ae2fbf2172c317b2,65e8755a928abe21664b702a,,,,,,,,,,,459.118,0.9,460.0229,460.0229,463.6082,right,0,3.5827,,463.6082,464.6089,1,10,26,5,1,total,2,images/Ex6.jpg,left,reversed,hard,2,,,,,
,,,,,63d53b38b9e515c80720bb76,001,,,,,2024-03-06_13h54.33.652,CRL1h,2023.2.3,Win32,55.55555556,65e67470ae2fbf2172c317b2,65e8755a928abe21664b702a,,,,,,,,,,,464.6218,0.5,465.1235,465.1236,465.4236,left,0,0.2973,,465.4236,466.4143,1,11,27,0,1,total,2,images/Ex1.jpg,right,reversed,hard,2,,,,,
,,,,,63d53b38b9e515c80720bb76,001,,,,,2024-03-06_13h54.33.652,CRL1h,2023.2.3,Win32,55.55555556,65e67470ae2fbf2172c317b2,65e8755a928abe21664b702a,,,,,,,,,,,466.4146,0.6,467.0127,467.0128,467.2936,right,1,0.2796,,467.2937,468.2977,1,12,28,10,1,total,2,images/Ex3.jpg,right,reversed,hard,2,,,,,
,,,,,63d53b38b9e515c80720bb76,001,,,,,2024-03-06_13h54.33.652,CRL1h,2023.2.3,Win32,55.55555556,65e67470ae2fbf2172c317b2,65e8755a928abe21664b702a,,,,,,,,,,,468.2985,0.8,469.0904,469.0905,469.564,right,1,0.4606,,469.5642,470.5675,1,13,29,3,1,total,2,images/Ex4.jpg,right,reversed,hard,2,,,,,
,,,,,63d53b38b9e515c80720bb76,001,,,,,2024-03-06_13h54.33.652,CRL1h,2023.2.3,Win32,55.55555556,65e67470ae2fbf2172c317b2,65e8755a928abe21664b702a,,,,,,,,,,,470.5682,1.4,471.9611,471.9611,475.6234,right,1,3.653,,475.6235,476.6253,1,14,30,11,1,total,2,images/Ex4.jpg,right,reversed,hard,2,,,,,
,,,,,63d53b38b9e515c80720bb76,001,,,,,2024-03-06_13h54.33.652,CRL1h,2023.2.3,Win32,55.55555556,65e67470ae2fbf2172c317b2,65e8755a928abe21664b702a,,,,,,,,,,,476.6377,1.5,478.1258,478.1258,478.7583,right,1,0.6193,,478.7584,479.7567,1,15,31,2,1,total,2,images/Ex3.jpg,right,reversed,hard,2,,,,,
,,,,,63d53b38b9e515c80720bb76,001,,,,,2024-03-06_13h54.33.652,CRL1h,2023.2.3,Win32,55.55555556,65e67470ae2fbf2172c317b2,65e8755a928abe21664b702a,,,,,,,,,,,479.757,0.8,480.5457,480.5457,480.9496,left,1,0.3967,,480.9496,481.9517,2,0,32,6,1,total,2,images/Ex7.jpg,left,reversed,hard,2,,,,,
,,,,,63d53b38b9e515c80720bb76,001,,,,,2024-03-06_13h54.33.652,CRL1h,2023.2.3,Win32,55.55555556,65e67470ae2fbf2172c317b2,65e8755a928abe21664b702a,,,,,,,,,,,481.9525,0.9,482.8543,482.8543,483.5731,right,0,0.7126,,483.5732,484.5713,2,1,33,12,1,total,2,images/Ex5.jpg,left,reversed,hard,2,,,,,
,,,,,63d53b38b9e515c80720bb76,001,,,,,2024-03-06_13h54.33.652,CRL1h,2023.2.3,Win32,55.55555556,65e67470ae2fbf2172c317b2,65e8755a928abe21664b702a,,,,,,,,,,,484.5718,1.2,485.7716,485.7717,486.8466,left,1,1.073,,486.8467,487.8386,2,2,34,7,1,total,2,images/Ex8.jpg,left,reversed,hard,2,,,,,
,,,,,63d53b38b9e515c80720bb76,001,,,,,2024-03-06_13h54.33.652,CRL1h,2023.2.3,Win32,55.55555556,65e67470ae2fbf2172c317b2,65e8755a928abe21664b702a,,,,,,,,,,,487.8391,0.7,488.5284,488.5284,488.8979,left,0,0.3572,,488.8979,489.9006,2,3,35,1,1,total,2,images/Ex2.jpg,right,reversed,hard,2,,,,,
,,,,,63d53b38b9e515c80720bb76,001,,,,,2024-03-06_13h54.33.652,CRL1h,2023.2.3,Win32,55.55555556,65e67470ae2fbf2172c317b2,65e8755a928abe21664b702a,,,,,,,,,,,489.9013,0.7,490.5891,490.5892,490.9416,right,1,0.3457,,490.9417,491.9438,2,4,36,0,1,total,2,images/Ex1.jpg,right,reversed,hard,2,,,,,
,,,,,63d53b38b9e515c80720bb76,001,,,,,2024-03-06_13h54.33.652,CRL1h,2023.2.3,Win32,55.55555556,65e67470ae2fbf2172c317b2,65e8755a928abe21664b702a,,,,,,,,,,,491.9443,0.7,492.6322,492.6322,493.1088,right,1,0.4688,,493.1089,494.1122,2,5,37,10,1,total,2,images/Ex3.jpg,right,reversed,hard,2,,,,,
,,,,,63d53b38b9e515c80720bb76,001,,,,,2024-03-06_13h54.33.652,CRL1h,2023.2.3,Win32,55.55555556,65e67470ae2fbf2172c317b2,65e8755a928abe21664b702a,,,,,,,,,,,494.1125,0.8,494.9051,494.9052,495.31,right,0,0.403,,495.3101,496.3126,2,6,38,15,1,total,2,images/Ex8.jpg,left,reversed,hard,2,,,,,
,,,,,63d53b38b9e515c80720bb76,001,,,,,2024-03-06_13h54.33.652,CRL1h,2023.2.3,Win32,55.55555556,65e67470ae2fbf2172c317b2,65e8755a928abe21664b702a,,,,,,,,,,,496.3129,0.8,497.1143,497.1143,497.9738,right,1,0.8459,,497.974,498.9743,2,7,39,3,1,total,2,images/Ex4.jpg,right,reversed,hard,2,,,,,
,,,,,63d53b38b9e515c80720bb76,001,,,,,2024-03-06_13h54.33.652,CRL1h,2023.2.3,Win32,55.55555556,65e67470ae2fbf2172c317b2,65e8755a928abe21664b702a,,,,,,,,,,,498.9747,1.5,500.4635,500.4637,500.9738,right,0,0.4977,,500.9739,501.9636,2,8,40,13,1,total,2,images/Ex6.jpg,left,reversed,hard,2,,,,,
,,,,,63d53b38b9e515c80720bb76,001,,,,,2024-03-06_13h54.33.652,CRL1h,2023.2.3,Win32,55.55555556,65e67470ae2fbf2172c317b2,65e8755a928abe21664b702a,,,,,,,,,,,501.9639,1.4,503.3568,503.3568,504.1831,right,0,0.8242,,504.1831,505.1847,2,9,41,4,1,total,2,images/Ex5.jpg,left,reversed,hard,2,,,,,
,,,,,63d53b38b9e515c80720bb76,001,,,,,2024-03-06_13h54.33.652,CRL1h,2023.2.3,Win32,55.55555556,65e67470ae2fbf2172c317b2,65e8755a928abe21664b702a,,,,,,,,,,,505.1854,0.9,506.0813,506.0813,506.7194,left,1,0.6282,,506.7194,507.7093,2,10,42,14,1,total,2,images/Ex7.jpg,left,reversed,hard,2,,,,,
,,,,,63d53b38b9e515c80720bb76,001,,,,,2024-03-06_13h54.33.652,CRL1h,2023.2.3,Win32,55.55555556,65e67470ae2fbf2172c317b2,65e8755a928abe21664b702a,,,,,,,,,,,507.7096,0.8,508.5066,508.5067,511.2644,right,1,2.7563,,511.2644,512.2562,2,11,43,2,1,total,2,images/Ex3.jpg,right,reversed,hard,2,,,,,
,,,,,63d53b38b9e515c80720bb76,001,,,,,2024-03-06_13h54.33.652,CRL1h,2023.2.3,Win32,55.55555556,65e67470ae2fbf2172c317b2,65e8755a928abe21664b702a,,,,,,,,,,,512.2746,1.4,513.6622,513.6622,514.1546,right,1,0.4819,,514.1546,515.1576,2,12,44,11,1,total,2,images/Ex4.jpg,right,reversed,hard,2,,,,,
,,,,,63d53b38b9e515c80720bb76,001,,,,,2024-03-06_13h54.33.652,CRL1h,2023.2.3,Win32,55.55555556,65e67470ae2fbf2172c317b2,65e8755a928abe21664b702a,,,,,,,,,,,515.158,1.4,516.5513,516.5514,518.4371,right,0,1.8782,,518.4372,519.4364,2,13,45,5,1,total,2,images/Ex6.jpg,left,reversed,hard,2,,,,,
,,,,,63d53b38b9e515c80720bb76,001,,,,,2024-03-06_13h54.33.652,CRL1h,2023.2.3,Win32,55.55555556,65e67470ae2fbf2172c317b2,65e8755a928abe21664b702a,,,,,,,,,,,519.4576,1.4,520.8591,520.8591,521.8449,right,1,0.9793,,521.845,522.8346,2,14,46,8,1,total,2,images/Ex1.jpg,right,reversed,hard,2,,,,,
,,,,,63d53b38b9e515c80720bb76,001,,,,,2024-03-06_13h54.33.652,CRL1h,2023.2.3,Win32,55.55555556,65e67470ae2fbf2172c317b2,65e8755a928abe21664b702a,,,,,,,,,,,522.8357,0.8,523.6264,523.6265,523.6789,left,0,0.0498,,523.679,524.6813,2,15,47,9,1,total,2,images/Ex2.jpg,right,reversed,hard,2,,,,,
,,,,,63d53b38b9e515c80720bb76,001,,,,,2024-03-06_13h54.33.652,CRL1h,2023.2.3,Win32,55.55555556,65e67470ae2fbf2172c317b2,65e8755a928abe21664b702a,,,,,,,,,,,524.6816,0.7,525.3819,525.3819,526.1144,left,1,0.7263,,526.1144,527.1164,3,0,48,4,1,total,2,images/Ex5.jpg,left,reversed,hard,2,,,,,
,,,,,63d53b38b9e515c80720bb76,001,,,,,2024-03-06_13h54.33.652,CRL1h,2023.2.3,Win32,55.55555556,65e67470ae2fbf2172c317b2,65e8755a928abe21664b702a,,,,,,,,,,,527.1169,1.5,528.616,528.616,529.1095,right,1,0.4847,,529.1095,530.0969,3,1,49,8,1,total,2,images/Ex1.jpg,right,reversed,hard,2,,,,,
,,,,,63d53b38b9e515c80720bb76,001,,,,,2024-03-06_13h54.33.652,CRL1h,2023.2.3,Win32,55.55555556,65e67470ae2fbf2172c317b2,65e8755a928abe21664b702a,,,,,,,,,,,530.0973,0.8,530.8905,530.8905,531.3334,left,1,0.432,,531.3335,532.3226,3,2,50,7,1,total,2,images/Ex8.jpg,left,reversed,hard,2,,,,,
,,,,,63d53b38b9e515c80720bb76,001,,,,,2024-03-06_13h54.33.652,CRL1h,2023.2.3,Win32,55.55555556,65e67470ae2fbf2172c317b2,65e8755a928abe21664b702a,,,,,,,,,,,532.3229,0.6,532.9219,532.9219,533.4533,right,0,0.5257,,533.4534,534.4412,3,3,51,12,1,total,2,images/Ex5.jpg,left,reversed,hard,2,,,,,
,,,,,63d53b38b9e515c80720bb76,001,,,,,2024-03-06_13h54.33.652,CRL1h,2023.2.3,Win32,55.55555556,65e67470ae2fbf2172c317b2,65e8755a928abe21664b702a,,,,,,,,,,,534.4416,0.6,535.0405,535.0405,535.7821,left,0,0.7342,,535.7822,536.7715,3,4,52,11,1,total,2,images/Ex4.jpg,right,reversed,hard,2,,,,,
,,,,,63d53b38b9e515c80720bb76,001,,,,,2024-03-06_13h54.33.652,CRL1h,2023.2.3,Win32,55.55555556,65e67470ae2fbf2172c317b2,65e8755a928abe21664b702a,,,,,,,,,,,536.772,1.1,537.8617,537.8618,538.1583,right,0,0.2876,,538.1583,539.1607,3,5,53,5,1,total,2,images/Ex6.jpg,left,reversed,hard,2,,,,,
,,,,,63d53b38b9e515c80720bb76,001,,,,,2024-03-06_13h54.33.652,CRL1h,2023.2.3,Win32,55.55555556,65e67470ae2fbf2172c317b2,65e8755a928abe21664b702a,,,,,,,,,,,539.1617,0.6,539.7599,539.76,540.5695,left,1,0.8001,,540.5697,541.574,3,6,54,6,1,total,2,images/Ex7.jpg,left,reversed,hard,2,,,,,
,,,,,63d53b38b9e515c80720bb76,001,,,,,2024-03-06_13h54.33.652,CRL1h,2023.2.3,Win32,55.55555556,65e67470ae2fbf2172c317b2,65e8755a928abe21664b702a,,,,,,,,,,,541.5747,0.7,542.278,542.2781,542.4547,right,1,0.1753,,542.4547,543.4564,3,7,55,9,1,total,2,images/Ex2.jpg,right,reversed,hard,2,,,,,
,,,,,63d53b38b9e515c80720bb76,001,,,,,2024-03-06_13h54.33.652,CRL1h,2023.2.3,Win32,55.55555556,65e67470ae2fbf2172c317b2,65e8755a928abe21664b702a,,,,,,,,,,,543.4568,0.9,544.351,544.3511,545.0552,right,0,0.695,,545.0552,546.0602,3,8,56,15,1,total,2,images/Ex8.jpg,left,reversed,hard,2,,,,,
,,,,,63d53b38b9e515c80720bb76,001,,,,,2024-03-06_13h54.33.652,CRL1h,2023.2.3,Win32,55.55555556,65e67470ae2fbf2172c317b2,65e8755a928abe21664b702a,,,,,,,,,,,546.0613,1.3,547.3488,547.3488,548.2095,left,0,0.8493,,548.2095,549.2005,3,9,57,3,1,total,2,images/Ex4.jpg,right,reversed,hard,2,,,,,
,,,,,63d53b38b9e515c80720bb76,001,,,,,2024-03-06_13h54.33.652,CRL1h,2023.2.3,Win32,55.55555556,65e67470ae2fbf2172c317b2,65e8755a928abe21664b702a,,,,,,,,,,,549.2009,0.9,550.0959,550.0959,550.7129,right,1,0.6126,,550.7129,551.7124,3,10,58,10,1,total,2,images/Ex3.jpg,right,reversed,hard,2,,,,,
,,,,,63d53b38b9e515c80720bb76,001,,,,,2024-03-06_13h54.33.652,CRL1h,2023.2.3,Win32,55.55555556,65e67470ae2fbf2172c317b2,65e8755a928abe21664b702a,,,,,,,,,,,551.7128,1.1,552.8052,552.8052,553.3335,left,1,0.5188,,553.3336,554.3341,3,11,59,14,1,total,2,images/Ex7.jpg,left,reversed,hard,2,,,,,
,,,,,63d53b38b9e515c80720bb76,001,,,,,2024-03-06_13h54.33.652,CRL1h,2023.2.3,Win32,55.55555556,65e67470ae2fbf2172c317b2,65e8755a928abe21664b702a,,,,,,,,,,,554.3347,0.6,554.9289,554.929,555.6654,right,1,0.7278,,555.6654,556.67,3,12,60,0,1,total,2,images/Ex1.jpg,right,reversed,hard,2,,,,,
,,,,,63d53b38b9e515c80720bb76,001,,,,,2024-03-06_13h54.33.652,CRL1h,2023.2.3,Win32,55.55555556,65e67470ae2fbf2172c317b2,65e8755a928abe21664b702a,,,,,,,,,,,556.6706,0.5,557.1616,557.1617,558.2342,left,0,1.0679,,558.2342,559.2337,3,13,61,2,1,total,2,images/Ex3.jpg,right,reversed,hard,2,,,,,
,,,,,63d53b38b9e515c80720bb76,001,,,,,2024-03-06_13h54.33.652,CRL1h,2023.2.3,Win32,55.55555556,65e67470ae2fbf2172c317b2,65e8755a928abe21664b702a,,,,,,,,,,,559.234,1.3,560.5215,560.5216,561.0297,right,1,0.5001,,561.0297,562.0333,3,14,62,1,1,total,2,images/Ex2.jpg,right,reversed,hard,2,,,,,
,,,,,63d53b38b9e515c80720bb76,001,,,,,2024-03-06_13h54.33.652,CRL1h,2023.2.3,Win32,55.55555556,65e67470ae2fbf2172c317b2,65e8755a928abe21664b702a,,,,,,,,,,,562.0337,1.4,563.4303,563.4304,563.7653,right,0,0.3218,,563.7653,564.7556,3,15,63,13,1,total,2,images/Ex6.jpg,left,reversed,hard,2,,,,,
,,,,,63d53b38b9e515c80720bb76,001,,,,,2024-03-06_13h54.33.652,CRL1h,2023.2.3,Win32,55.55555556,65e67470ae2fbf2172c317b2,65e8755a928abe21664b702a,,,,,,564.757,568.3445,space,3.5713,,568.3602,1.1,569.4558,569.4559,569.9804,right,1,0.5111,,569.9805,570.9677,0,0,0,15,1,partial,1,images/Ex16.jpg,right,training,hard,2,,,,,
,,,,,63d53b38b9e515c80720bb76,001,,,,,2024-03-06_13h54.33.652,CRL1h,2023.2.3,Win32,55.55555556,65e67470ae2fbf2172c317b2,65e8755a928abe21664b702a,,,,,,,,,,,570.9686,1,571.9588,571.9588,572.3617,left,1,0.3923,,572.3618,573.3494,0,1,1,8,1,partial,1,images/Ex9.jpg,left,training,hard,2,,,,,
,,,,,63d53b38b9e515c80720bb76,001,,,,,2024-03-06_13h54.33.652,CRL1h,2023.2.3,Win32,55.55555556,65e67470ae2fbf2172c317b2,65e8755a928abe21664b702a,,,,,,,,,,,573.35,1.5,574.844,574.8441,575.4934,left,1,0.6366,,575.4934,576.4959,0,2,2,0,1,partial,1,images/Ex9.jpg,left,training,hard,2,,,,,
,,,,,63d53b38b9e515c80720bb76,001,,,,,2024-03-06_13h54.33.652,CRL1h,2023.2.3,Win32,55.55555556,65e67470ae2fbf2172c317b2,65e8755a928abe21664b702a,,,,,,,,,,,576.4962,1.3,577.7907,577.7907,578.3337,left,1,0.5412,,578.3338,579.3333,0,3,3,11,1,partial,1,images/Ex12.jpg,left,training,hard,2,,,,,
,,,,,63d53b38b9e515c80720bb76,001,,,,,2024-03-06_13h54.33.652,CRL1h,2023.2.3,Win32,55.55555556,65e67470ae2fbf2172c317b2,65e8755a928abe21664b702a,,,,,,,,,,,579.3337,1.4,580.7251,580.7251,581.1867,right,1,0.4568,,581.1867,582.1879,0,4,4,6,1,partial,1,images/Ex15.jpg,right,training,hard,2,,,,,
,,,,,63d53b38b9e515c80720bb76,001,,,,,2024-03-06_13h54.33.652,CRL1h,2023.2.3,Win32,55.55555556,65e67470ae2fbf2172c317b2,65e8755a928abe21664b702a,,,,,,,,,,,582.1881,1.4,583.5834,583.5834,583.8492,left,0,0.2568,,583.8492,584.8378,0,5,5,14,1,partial,1,images/Ex15.jpg,right,training,hard,2,,,,,
,,,,,63d53b38b9e515c80720bb76,001,,,,,2024-03-06_13h54.33.652,CRL1h,2023.2.3,Win32,55.55555556,65e67470ae2fbf2172c317b2,65e8755a928abe21664b702a,,,,,,,,,,,584.8387,1,585.8407,585.8408,586.4568,left,0,0.6055,,586.4568,587.4449,0,6,6,12,1,partial,1,images/Ex13.jpg,right,training,hard,2,,,,,
,,,,,63d53b38b9e515c80720bb76,001,,,,,2024-03-06_13h54.33.652,CRL1h,2023.2.3,Win32,55.55555556,65e67470ae2fbf2172c317b2,65e8755a928abe21664b702a,,,,,,,,,,,587.4457,0.9,588.3461,588.3462,588.8014,right,1,0.4473,,588.8015,589.7885,0,7,7,13,1,partial,1,images/Ex14.jpg,right,training,hard,2,,,,,
,,,,,63d53b38b9e515c80720bb76,001,,,,,2024-03-06_13h54.33.652,CRL1h,2023.2.3,Win32,55.55555556,65e67470ae2fbf2172c317b2,65e8755a928abe21664b702a,,,,,,,,,,,589.7889,0.5,590.2813,590.2813,591.6338,right,0,1.3411,,591.6339,592.6243,0,8,8,2,1,partial,1,images/Ex11.jpg,left,training,hard,2,,,,,
,,,,,63d53b38b9e515c80720bb76,001,,,,,2024-03-06_13h54.33.652,CRL1h,2023.2.3,Win32,55.55555556,65e67470ae2fbf2172c317b2,65e8755a928abe21664b702a,,,,,,,,,,,592.6248,1.5,594.1239,594.124,594.598,left,0,0.4615,,594.598,595.5995,0,9,9,7,1,partial,1,images/Ex16.jpg,right,training,hard,2,,,,,
,,,,,63d53b38b9e515c80720bb76,001,,,,,2024-03-06_13h54.33.652,CRL1h,2023.2.3,Win32,55.55555556,65e67470ae2fbf2172c317b2,65e8755a928abe21664b702a,,,,,,,,,,,595.5999,0.9,596.4946,596.4946,598.0476,right,0,1.5446,,598.0476,599.0375,0,10,10,10,1,partial,1,images/Ex11.jpg,left,training,hard,2,,,,,
,,,,,63d53b38b9e515c80720bb76,001,,,,,2024-03-06_13h54.33.652,CRL1h,2023.2.3,Win32,55.55555556,65e67470ae2fbf2172c317b2,65e8755a928abe21664b702a,,,,,,,,,,,599.0511,1.1,600.1379,600.1379,601.1658,left,1,1.0262,,601.1659,602.1571,0,11,11,3,1,partial,1,images/Ex12.jpg,left,training,hard,2,,,,,
,,,,,63d53b38b9e515c80720bb76,001,,,,,2024-03-06_13h54.33.652,CRL1h,2023.2.3,Win32,55.55555556,65e67470ae2fbf2172c317b2,65e8755a928abe21664b702a,,,,,,,,,,,602.1576,0.8,602.9487,602.9488,603.1972,left,1,0.244,,603.1973,604.1842,0,12,12,1,1,partial,1,images/Ex10.jpg,left,training,hard,2,,,,,
,,,,,63d53b38b9e515c80720bb76,001,,,,,2024-03-06_13h54.33.652,CRL1h,2023.2.3,Win32,55.55555556,65e67470ae2fbf2172c317b2,65e8755a928abe21664b702a,,,,,,,,,,,604.1846,1.3,605.4864,605.4865,606.1921,left,0,0.6945,,606.1922,607.1803,0,13,13,5,1,partial,1,images/Ex14.jpg,right,training,hard,2,,,,,
,,,,,63d53b38b9e515c80720bb76,001,,,,,2024-03-06_13h54.33.652,CRL1h,2023.2.3,Win32,55.55555556,65e67470ae2fbf2172c317b2,65e8755a928abe21664b702a,,,,,,,,,,,607.1813,0.6,607.7789,607.779,608.2148,right,0,0.4249,,608.2148,609.2139,0,14,14,9,1,partial,1,images/Ex10.jpg,left,training,hard,2,,,,,
,,,,,63d53b38b9e515c80720bb76,001,,,,,2024-03-06_13h54.33.652,CRL1h,2023.2.3,Win32,55.55555556,65e67470ae2fbf2172c317b2,65e8755a928abe21664b702a,,,,,,,,,,,609.2144,1.1,610.3089,610.309,610.716,left,0,0.3985,,610.7161,611.7196,0,15,15,4,1,partial,1,images/Ex13.jpg,right,training,hard,2,,,,,
,,,,,63d53b38b9e515c80720bb76,001,,,,,2024-03-06_13h54.33.652,CRL1h,2023.2.3,Win32,55.55555556,65e67470ae2fbf2172c317b2,65e8755a928abe21664b702a,,,,,,,,,,,611.7206,1.1,612.8235,612.8235,612.9475,right,0,0.1168,,612.9475,613.9511,1,0,16,1,1,partial,1,images/Ex10.jpg,left,training,hard,2,,,,,
,,,,,63d53b38b9e515c80720bb76,001,,,,,2024-03-06_13h54.33.652,CRL1h,2023.2.3,Win32,55.55555556,65e67470ae2fbf2172c317b2,65e8755a928abe21664b702a,,,,,,,,,,,613.9518,1.3,615.2415,615.2415,616.2168,left,1,0.9713,,616.2168,617.2203,1,1,17,0,1,partial,1,images/Ex9.jpg,left,training,hard,2,,,,,
,,,,,63d53b38b9e515c80720bb76,001,,,,,2024-03-06_13h54.33.652,CRL1h,2023.2.3,Win32,55.55555556,65e67470ae2fbf2172c317b2,65e8755a928abe21664b702a,,,,,,,,,,,617.2208,1.3,618.5234,618.5236,619.7204,right,0,1.1929,,619.7204,620.7222,1,2,18,8,1,partial,1,images/Ex9.jpg,left,training,hard,2,,,,,
,,,,,63d53b38b9e515c80720bb76,001,,,,,2024-03-06_13h54.33.652,CRL1h,2023.2.3,Win32,55.55555556,65e67470ae2fbf2172c317b2,65e8755a928abe21664b702a,,,,,,,,,,,620.7228,0.5,621.2148,621.2148,621.6735,right,0,0.4468,,621.6736,622.6767,1,3,19,11,1,partial,1,images/Ex12.jpg,left,training,hard,2,,,,,
,,,,,63d53b38b9e515c80720bb76,001,,,,,2024-03-06_13h54.33.652,CRL1h,2023.2.3,Win32,55.55555556,65e67470ae2fbf2172c317b2,65e8755a928abe21664b702a,,,,,,,,,,,622.6773,0.9,623.5722,623.5722,624.1193,left,0,0.5436,,624.1194,625.1217,1,4,20,7,1,partial,1,images/Ex16.jpg,right,training,hard,2,,,,,
,,,,,63d53b38b9e515c80720bb76,001,,,,,2024-03-06_13h54.33.652,CRL1h,2023.2.3,Win32,55.55555556,65e67470ae2fbf2172c317b2,65e8755a928abe21664b702a,,,,,,,,,,,625.1222,0.7,625.8236,625.8236,627.9581,left,0,2.1222,,627.9582,628.949,1,5,21,4,1,partial,1,images/Ex13.jpg,right,training,hard,2,,,,,
,,,,,63d53b38b9e515c80720bb76,001,,,,,2024-03-06_13h54.33.652,CRL1h,2023.2.3,Win32,55.55555556,65e67470ae2fbf2172c317b2,65e8755a928abe21664b702a,,,,,,,,,,,628.9499,1.2,630.1473,630.1474,630.7287,left,1,0.5714,,630.7287,631.7205,1,6,22,2,1,partial,1,images/Ex11.jpg,left,training,hard,2,,,,,
,,,,,63d53b38b9e515c80720bb76,001,,,,,2024-03-06_13h54.33.652,CRL1h,2023.2.3,Win32,55.55555556,65e67470ae2fbf2172c317b2,65e8755a928abe21664b702a,,,,,,,,,,,631.7216,1.4,633.109,633.109,633.8265,left,0,0.7112,,633.8265,634.8304,1,7,23,6,1,partial,1,images/Ex15.jpg,right,training,hard,2,,,,,
,,,,,63d53b38b9e515c80720bb76,001,,,,,2024-03-06_13h54.33.652,CRL1h,2023.2.3,Win32,55.55555556,65e67470ae2fbf2172c317b2,65e8755a928abe21664b702a,,,,,,,,,,,634.8311,1.2,636.0255,636.0256,637.3115,right,1,1.2763,,637.3116,638.3033,1,8,24,15,1,partial,1,images/Ex16.jpg,right,training,hard,2,,,,,
,,,,,63d53b38b9e515c80720bb76,001,,,,,2024-03-06_13h54.33.652,CRL1h,2023.2.3,Win32,55.55555556,65e67470ae2fbf2172c317b2,65e8755a928abe21664b702a,,,,,,,,,,,638.3046,1.3,639.609,639.609,640.0127,right,1,0.3974,,640.0127,641.0131,1,9,25,12,1,partial,1,images/Ex13.jpg,right,training,hard,2,,,,,
,,,,,63d53b38b9e515c80720bb76,001,,,,,2024-03-06_13h54.33.652,CRL1h,2023.2.3,Win32,55.55555556,65e67470ae2fbf2172c317b2,65e8755a928abe21664b702a,,,,,,,,,,,641.0139,1.5,642.5173,642.5174,642.7461,right,0,0.2168,,642.7461,643.7468,1,10,26,10,1,partial,1,images/Ex11.jpg,left,training,hard,2,,,,,
,,,,,63d53b38b9e515c80720bb76,001,,,,,2024-03-06_13h54.33.652,CRL1h,2023.2.3,Win32,55.55555556,65e67470ae2fbf2172c317b2,65e8755a928abe21664b702a,,,,,,,,,,,643.7477,1.4,645.1374,645.1375,645.7702,left,1,0.6271,,645.7703,646.762,1,11,27,3,1,partial,1,images/Ex12.jpg,left,training,hard,2,,,,,
,,,,,63d53b38b9e515c80720bb76,001,,,,,2024-03-06_13h54.33.652,CRL1h,2023.2.3,Win32,55.55555556,65e67470ae2fbf2172c317b2,65e8755a928abe21664b702a,,,,,,,,,,,646.7629,1.3,648.0544,648.0544,649.2548,right,1,1.191,,649.2549,650.2418,1,12,28,13,1,partial,1,images/Ex14.jpg,right,training,hard,2,,,,,
,,,,,63d53b38b9e515c80720bb76,001,,,,,2024-03-06_13h54.33.652,CRL1h,2023.2.3,Win32,55.55555556,65e67470ae2fbf2172c317b2,65e8755a928abe21664b702a,,,,,,,,,,,650.2426,0.8,651.0366,651.0368,651.9912,right,0,0.9487,,651.9913,652.9916,1,13,29,9,1,partial,1,images/Ex10.jpg,left,training,hard,2,,,,,
,,,,,63d53b38b9e515c80720bb76,001,,,,,2024-03-06_13h54.33.652,CRL1h,2023.2.3,Win32,55.55555556,65e67470ae2fbf2172c317b2,65e8755a928abe21664b702a,,,,,,,,,,,652.9919,1.3,654.2913,654.2913,657.4718,right,1,3.1785,,657.4719,658.4603,1,14,30,14,1,partial,1,images/Ex15.jpg,right,training,hard,2,,,,,
,,,,,63d53b38b9e515c80720bb76,001,,,,,2024-03-06_13h54.33.652,CRL1h,2023.2.3,Win32,55.55555556,65e67470ae2fbf2172c317b2,65e8755a928abe21664b702a,,,,,,,,,,,658.4743,1.5,659.9676,659.9677,663.2703,left,0,3.2966,,663.2703,664.2674,1,15,31,5,1,partial,1,images/Ex14.jpg,right,training,hard,2,,,,,
,,,,,63d53b38b9e515c80720bb76,001,,,,,2024-03-06_13h54.33.652,CRL1h,2023.2.3,Win32,55.55555556,65e67470ae2fbf2172c317b2,65e8755a928abe21664b702a,,,,,,,,,,,664.2884,0.8,665.0779,665.0779,667.4818,right,1,2.3991,,667.4818,668.4705,2,0,32,6,1,partial,1,images/Ex15.jpg,right,training,hard,2,,,,,
,,,,,63d53b38b9e515c80720bb76,001,,,,,2024-03-06_13h54.33.652,CRL1h,2023.2.3,Win32,55.55555556,65e67470ae2fbf2172c317b2,65e8755a928abe21664b702a,,,,,,,,,,,668.4873,1.1,669.5844,669.5845,670.2741,right,1,0.6836,,670.2742,671.2678,2,1,33,15,1,partial,1,images/Ex16.jpg,right,training,hard,2,,,,,
,,,,,63d53b38b9e515c80720bb76,001,,,,,2024-03-06_13h54.33.652,CRL1h,2023.2.3,Win32,55.55555556,65e67470ae2fbf2172c317b2,65e8755a928abe21664b702a,,,,,,,,,,,671.269,1.2,672.4696,672.4698,672.7498,right,1,0.2685,,672.7498,673.7477,2,2,34,14,1,partial,1,images/Ex15.jpg,right,training,hard,2,,,,,
,,,,,63d53b38b9e515c80720bb76,001,,,,,2024-03-06_13h54.33.652,CRL1h,2023.2.3,Win32,55.55555556,65e67470ae2fbf2172c317b2,65e8755a928abe21664b702a,,,,,,,,,,,673.7482,0.7,674.4362,674.4364,675.1907,left,0,0.7521,,675.1907,676.1917,2,3,35,13,1,partial,1,images/Ex14.jpg,right,training,hard,2,,,,,
,,,,,63d53b38b9e515c80720bb76,001,,,,,2024-03-06_13h54.33.652,CRL1h,2023.2.3,Win32,55.55555556,65e67470ae2fbf2172c317b2,65e8755a928abe21664b702a,,,,,,,,,,,676.1922,0.7,676.8949,676.8949,677.0539,right,1,0.1504,,677.054,678.0575,2,4,36,7,1,partial,1,images/Ex16.jpg,right,training,hard,2,,,,,
,,,,,63d53b38b9e515c80720bb76,001,,,,,2024-03-06_13h54.33.652,CRL1h,2023.2.3,Win32,55.55555556,65e67470ae2fbf2172c317b2,65e8755a928abe21664b702a,,,,,,,,,,,678.0578,1.2,679.2504,679.2506,679.809,right,0,0.5478,,679.8092,680.7984,2,5,37,11,1,partial,1,images/Ex12.jpg,left,training,hard,2,,,,,
,,,,,63d53b38b9e515c80720bb76,001,,,,,2024-03-06_13h54.33.652,CRL1h,2023.2.3,Win32,55.55555556,65e67470ae2fbf2172c317b2,65e8755a928abe21664b702a,,,,,,,,,,,680.7993,0.8,681.6036,681.6036,684.5231,right,0,2.9084,,684.5231,685.5246,2,6,38,2,1,partial,1,images/Ex11.jpg,left,training,hard,2,,,,,
,,,,,63d53b38b9e515c80720bb76,001,,,,,2024-03-06_13h54.33.652,CRL1h,2023.2.3,Win32,55.55555556,65e67470ae2fbf2172c317b2,65e8755a928abe21664b702a,,,,,,,,,,,685.5382,0.8,686.3304,686.3305,686.6497,left,0,0.3165,,686.6499,687.653,2,7,39,12,1,partial,1,images/Ex13.jpg,right,training,hard,2,,,,,
,,,,,63d53b38b9e515c80720bb76,001,,,,,2024-03-06_13h54.33.652,CRL1h,2023.2.3,Win32,55.55555556,65e67470ae2fbf2172c317b2,65e8755a928abe21664b702a,,,,,,,,,,,687.654,0.6,688.2566,688.2566,688.5594,left,1,0.301,,688.5594,689.5626,2,8,40,8,1,partial,1,images/Ex9.jpg,left,training,hard,2,,,,,
,,,,,63d53b38b9e515c80720bb76,001,,,,,2024-03-06_13h54.33.652,CRL1h,2023.2.3,Win32,55.55555556,65e67470ae2fbf2172c317b2,65e8755a928abe21664b702a,,,,,,,,,,,689.563,1.3,690.8642,690.8642,691.3387,right,1,0.4683,,691.3387,692.334,2,9,41,4,1,partial,1,images/Ex13.jpg,right,training,hard,2,,,,,
,,,,,63d53b38b9e515c80720bb76,001,,,,,2024-03-06_13h54.33.652,CRL1h,2023.2.3,Win32,55.55555556,65e67470ae2fbf2172c317b2,65e8755a928abe21664b702a,,,,,,,,,,,692.3345,1.3,693.6257,693.6258,695.5401,right,0,1.9027,,695.5401,696.5405,2,10,42,1,1,partial,1,images/Ex10.jpg,left,training,hard,2,,,,,
,,,,,63d53b38b9e515c80720bb76,001,,,,,2024-03-06_13h54.33.652,CRL1h,2023.2.3,Win32,55.55555556,65e67470ae2fbf2172c317b2,65e8755a928abe21664b702a,,,,,,,,,,,696.5416,1.2,697.7404,697.7404,699.6903,right,0,1.9459,,699.6903,700.6918,2,11,43,3,1,partial,1,images/Ex12.jpg,left,training,hard,2,,,,,
,,,,,63d53b38b9e515c80720bb76,001,,,,,2024-03-06_13h54.33.652,CRL1h,2023.2.3,Win32,55.55555556,65e67470ae2fbf2172c317b2,65e8755a928abe21664b702a,,,,,,,,,,,700.6923,0.6,701.2902,701.2902,701.6588,right,0,0.3602,,701.6588,702.659,2,12,44,9,1,partial,1,images/Ex10.jpg,left,training,hard,2,,,,,
,,,,,63d53b38b9e515c80720bb76,001,,,,,2024-03-06_13h54.33.652,CRL1h,2023.2.3,Win32,55.55555556,65e67470ae2fbf2172c317b2,65e8755a928abe21664b702a,,,,,,,,,,,702.6593,1.1,703.7519,703.7521,705.1934,right,0,1.4301,,705.1935,706.1954,2,13,45,0,1,partial,1,images/Ex9.jpg,left,training,hard,2,,,,,
,,,,,63d53b38b9e515c80720bb76,001,,,,,2024-03-06_13h54.33.652,CRL1h,2023.2.3,Win32,55.55555556,65e67470ae2fbf2172c317b2,65e8755a928abe21664b702a,,,,,,,,,,,706.1961,1.3,707.4998,707.4999,707.7618,left,1,0.2568,,707.7618,708.7628,2,14,46,10,1,partial,1,images/Ex11.jpg,left,training,hard,2,,,,,
,,,,,63d53b38b9e515c80720bb76,001,,,,,2024-03-06_13h54.33.652,CRL1h,2023.2.3,Win32,55.55555556,65e67470ae2fbf2172c317b2,65e8755a928abe21664b702a,,,,,,,,,,,708.7633,0.9,709.6682,709.6683,710.6336,left,0,0.9599,,710.6337,711.6207,2,15,47,5,1,partial,1,images/Ex14.jpg,right,training,hard,2,,,,,
,,,,,63d53b38b9e515c80720bb76,001,,,,,2024-03-06_13h54.33.652,CRL1h,2023.2.3,Win32,55.55555556,65e67470ae2fbf2172c317b2,65e8755a928abe21664b702a,,,,,,,,,,,711.6212,0.5,712.1141,712.1142,713.644,right,1,1.5234,,713.6441,714.6444,3,0,48,15,1,partial,1,images/Ex16.jpg,right,training,hard,2,,,,,
,,,,,63d53b38b9e515c80720bb76,001,,,,,2024-03-06_13h54.33.652,CRL1h,2023.2.3,Win32,55.55555556,65e67470ae2fbf2172c317b2,65e8755a928abe21664b702a,,,,,,,,,,,714.6449,0.5,715.1321,715.1321,718.7325,right,0,3.5942,,718.7325,719.7218,3,1,49,1,1,partial,1,images/Ex10.jpg,left,training,hard,2,,,,,
,,,,,63d53b38b9e515c80720bb76,001,,,,,2024-03-06_13h54.33.652,CRL1h,2023.2.3,Win32,55.55555556,65e67470ae2fbf2172c317b2,65e8755a928abe21664b702a,,,,,,,,,,,719.7397,1.3,721.0433,721.0433,724.6903,left,1,3.6361,,724.6904,725.6933,3,2,50,2,1,partial,1,images/Ex11.jpg,left,training,hard,2,,,,,
,,,,,63d53b38b9e515c80720bb76,001,,,,,2024-03-06_13h54.33.652,CRL1h,2023.2.3,Win32,55.55555556,65e67470ae2fbf2172c317b2,65e8755a928abe21664b702a,,,,,,,,,,,725.7225,1.2,726.9268,726.9269,727.0868,right,1,0.1583,,727.0869,728.0871,3,3,51,5,1,partial,1,images/Ex14.jpg,right,training,hard,2,,,,,
,,,,,63d53b38b9e515c80720bb76,001,,,,,2024-03-06_13h54.33.652,CRL1h,2023.2.3,Win32,55.55555556,65e67470ae2fbf2172c317b2,65e8755a928abe21664b702a,,,,,,,,,,,728.0876,1.4,729.4866,729.4866,729.5043,right,0,0.015,,729.5044,730.5079,3,4,52,8,1,partial,1,images/Ex9.jpg,left,training,hard,2,,,,,
,,,,,63d53b38b9e515c80720bb76,001,,,,,2024-03-06_13h54.33.652,CRL1h,2023.2.3,Win32,55.55555556,65e67470ae2fbf2172c317b2,65e8755a928abe21664b702a,,,,,,,,,,,730.5087,0.6,731.1071,731.1071,731.4605,left,0,0.3383,,731.4605,732.4646,3,5,53,4,1,partial,1,images/Ex13.jpg,right,training,hard,2,,,,,
,,,,,63d53b38b9e515c80720bb76,001,,,,,2024-03-06_13h54.33.652,CRL1h,2023.2.3,Win32,55.55555556,65e67470ae2fbf2172c317b2,65e8755a928abe21664b702a,,,,,,,,,,,732.4652,0.9,733.3641,733.3641,733.4374,right,1,0.0663,,733.4374,734.4281,3,6,54,7,1,partial,1,images/Ex16.jpg,right,training,hard,2,,,,,
,,,,,63d53b38b9e515c80720bb76,001,,,,,2024-03-06_13h54.33.652,CRL1h,2023.2.3,Win32,55.55555556,65e67470ae2fbf2172c317b2,65e8755a928abe21664b702a,,,,,,,,,,,734.4285,1.1,735.5234,735.5234,736.9174,left,1,1.3817,,736.9174,737.9078,3,7,55,9,1,partial,1,images/Ex10.jpg,left,training,hard,2,,,,,
,,,,,63d53b38b9e515c80720bb76,001,,,,,2024-03-06_13h54.33.652,CRL1h,2023.2.3,Win32,55.55555556,65e67470ae2fbf2172c317b2,65e8755a928abe21664b702a,,,,,,,,,,,737.9082,0.6,738.5096,738.5096,738.5978,left,1,0.075,,738.5979,739.5903,3,8,56,10,1,partial,1,images/Ex11.jpg,left,training,hard,2,,,,,
,,,,,63d53b38b9e515c80720bb76,001,,,,,2024-03-06_13h54.33.652,CRL1h,2023.2.3,Win32,55.55555556,65e67470ae2fbf2172c317b2,65e8755a928abe21664b702a,,,,,,,,,,,739.5908,0.5,740.0845,740.0845,740.5824,right,0,0.4842,,740.5825,741.5727,3,9,57,3,1,partial,1,images/Ex12.jpg,left,training,hard,2,,,,,
,,,,,63d53b38b9e515c80720bb76,001,,,,,2024-03-06_13h54.33.652,CRL1h,2023.2.3,Win32,55.55555556,65e67470ae2fbf2172c317b2,65e8755a928abe21664b702a,,,,,,,,,,,741.5731,0.7,742.2761,742.2761,742.8563,left,0,0.5708,,742.8563,743.8569,3,10,58,6,1,partial,1,images/Ex15.jpg,right,training,hard,2,,,,,
,,,,,63d53b38b9e515c80720bb76,001,,,,,2024-03-06_13h54.33.652,CRL1h,2023.2.3,Win32,55.55555556,65e67470ae2fbf2172c317b2,65e8755a928abe21664b702a,,,,,,,,,,,743.8576,1.3,745.1602,745.1602,745.479,right,1,0.3042,,745.4791,746.4795,3,11,59,13,1,partial,1,images/Ex14.jpg,right,training,hard,2,,,,,
,,,,,63d53b38b9e515c80720bb76,001,,,,,2024-03-06_13h54.33.652,CRL1h,2023.2.3,Win32,55.55555556,65e67470ae2fbf2172c317b2,65e8755a928abe21664b702a,,,,,,,,,,,746.4803,1.2,747.6791,747.6792,747.7852,right,1,0.0954,,747.7853,748.7837,3,12,60,12,1,partial,1,images/Ex13.jpg,right,training,hard,2,,,,,
,,,,,63d53b38b9e515c80720bb76,001,,,,,2024-03-06_13h54.33.652,CRL1h,2023.2.3,Win32,55.55555556,65e67470ae2fbf2172c317b2,65e8755a928abe21664b702a,,,,,,,,,,,748.7842,0.8,749.579,749.5791,751.3903,right,0,1.8018,,751.3903,752.3899,3,13,61,0,1,partial,1,images/Ex9.jpg,left,training,hard,2,,,,,
,,,,,63d53b38b9e515c80720bb76,001,,,,,2024-03-06_13h54.33.652,CRL1h,2023.2.3,Win32,55.55555556,65e67470ae2fbf2172c317b2,65e8755a928abe21664b702a,,,,,,,,,,,752.3903,1.4,753.794,753.794,754.0752,left,1,0.2754,,754.0752,755.0745,3,14,62,11,1,partial,1,images/Ex12.jpg,left,training,hard,2,,,,,
,,,,,63d53b38b9e515c80720bb76,001,,,,,2024-03-06_13h54.33.652,CRL1h,2023.2.3,Win32,55.55555556,65e67470ae2fbf2172c317b2,65e8755a928abe21664b702a,,,,,,,,,,,755.0747,0.7,755.7771,755.7771,757.8265,left,0,2.0369,,757.8266,758.8306,3,15,63,14,1,partial,1,images/Ex15.jpg,right,training,hard,2,,,,,
,,,,,63d53b38b9e515c80720bb76,001,,,,,2024-03-06_13h54.33.652,CRL1h,2023.2.3,Win32,55.55555556,65e67470ae2fbf2172c317b2,65e8755a928abe21664b702a,,,,,,,,,,,758.8309,1.3,760.1331,760.1331,760.3971,right,0,0.251,,760.3971,761.398,4,0,64,3,1,partial,1,images/Ex12.jpg,left,training,hard,2,,,,,
,,,,,63d53b38b9e515c80720bb76,001,,,,,2024-03-06_13h54.33.652,CRL1h,2023.2.3,Win32,55.55555556,65e67470ae2fbf2172c317b2,65e8755a928abe21664b702a,,,,,,,,,,,761.3983,0.7,762.1014,762.1014,762.4722,right,0,0.3688,,762.4723,763.4702,4,1,65,0,1,partial,1,images/Ex9.jpg,left,training,hard,2,,,,,
,,,,,63d53b38b9e515c80720bb76,001,,,,,2024-03-06_13h54.33.652,CRL1h,2023.2.3,Win32,55.55555556,65e67470ae2fbf2172c317b2,65e8755a928abe21664b702a,,,,,,,,,,,763.4706,1.2,764.6675,764.6675,765.5451,left,1,0.8731,,765.5451,766.5332,4,2,66,10,1,partial,1,images/Ex11.jpg,left,training,hard,2,,,,,
,,,,,63d53b38b9e515c80720bb76,001,,,,,2024-03-06_13h54.33.652,CRL1h,2023.2.3,Win32,55.55555556,65e67470ae2fbf2172c317b2,65e8755a928abe21664b702a,,,,,,,,,,,766.5338,1.2,767.7259,767.726,767.9029,right,1,0.165,,767.9032,768.905,4,3,67,15,1,partial,1,images/Ex16.jpg,right,training,hard,2,,,,,
,,,,,63d53b38b9e515c80720bb76,001,,,,,2024-03-06_13h54.33.652,CRL1h,2023.2.3,Win32,55.55555556,65e67470ae2fbf2172c317b2,65e8755a928abe21664b702a,,,,,,,,,,,768.9054,0.7,769.6064,769.6064,769.8719,left,0,0.257,,769.8719,770.8615,4,4,68,5,1,partial,1,images/Ex14.jpg,right,training,hard,2,,,,,
,,,,,63d53b38b9e515c80720bb76,001,,,,,2024-03-06_13h54.33.652,CRL1h,2023.2.3,Win32,55.55555556,65e67470ae2fbf2172c317b2,65e8755a928abe21664b702a,,,,,,,,,,,770.8617,1,771.8491,771.8491,772.1651,left,0,0.3089,,772.1652,773.1537,4,5,69,14,1,partial,1,images/Ex15.jpg,right,training,hard,2,,,,,
,,,,,63d53b38b9e515c80720bb76,001,,,,,2024-03-06_13h54.33.652,CRL1h,2023.2.3,Win32,55.55555556,65e67470ae2fbf2172c317b2,65e8755a928abe21664b702a,,,,,,,,,,,773.1544,0.9,774.0586,774.0586,775.9832,left,0,1.9234,,775.9833,776.9849,4,6,70,12,1,partial,1,images/Ex13.jpg,right,training,hard,2,,,,,
,,,,,63d53b38b9e515c80720bb76,001,,,,,2024-03-06_13h54.33.652,CRL1h,2023.2.3,Win32,55.55555556,65e67470ae2fbf2172c317b2,65e8755a928abe21664b702a,,,,,,,,,,,776.9853,1,777.9775,777.9775,778.5121,left,0,0.5315,,778.5121,779.5161,4,7,71,7,1,partial,1,images/Ex16.jpg,right,training,hard,2,,,,,
,,,,,63d53b38b9e515c80720bb76,001,,,,,2024-03-06_13h54.33.652,CRL1h,2023.2.3,Win32,55.55555556,65e67470ae2fbf2172c317b2,65e8755a928abe21664b702a,,,,,,,,,,,779.5169,1.2,780.7106,780.7106,781.1341,right,0,0.4136,,781.1342,782.1365,4,8,72,9,1,partial,1,images/Ex10.jpg,left,training,hard,2,,,,,
,,,,,63d53b38b9e515c80720bb76,001,,,,,2024-03-06_13h54.33.652,CRL1h,2023.2.3,Win32,55.55555556,65e67470ae2fbf2172c317b2,65e8755a928abe21664b702a,,,,,,,,,,,782.1369,0.9,783.0335,783.0335,783.5239,left,1,0.4805,,783.5239,784.5259,4,9,73,2,1,partial,1,images/Ex11.jpg,left,training,hard,2,,,,,
,,,,,63d53b38b9e515c80720bb76,001,,,,,2024-03-06_13h54.33.652,CRL1h,2023.2.3,Win32,55.55555556,65e67470ae2fbf2172c317b2,65e8755a928abe21664b702a,,,,,,,,,,,784.5263,1.1,785.6201,785.6202,786.6221,left,0,0.9933,,786.6221,787.6254,4,10,74,6,1,partial,1,images/Ex15.jpg,right,training,hard,2,,,,,
,,,,,63d53b38b9e515c80720bb76,001,,,,,2024-03-06_13h54.33.652,CRL1h,2023.2.3,Win32,55.55555556,65e67470ae2fbf2172c317b2,65e8755a928abe21664b702a,,,,,,,,,,,787.6258,1,788.6138,788.6139,789.195,left,0,0.568,,789.1951,790.1991,4,11,75,4,1,partial,1,images/Ex13.jpg,right,training,hard,2,,,,,
,,,,,63d53b38b9e515c80720bb76,001,,,,,2024-03-06_13h54.33.652,CRL1h,2023.2.3,Win32,55.55555556,65e67470ae2fbf2172c317b2,65e8755a928abe21664b702a,,,,,,,,,,,790.1994,1.3,791.4991,791.4991,791.9409,right,1,0.4333,,791.9409,792.9439,4,12,76,13,1,partial,1,images/Ex14.jpg,right,training,hard,2,,,,,
,,,,,63d53b38b9e515c80720bb76,001,,,,,2024-03-06_13h54.33.652,CRL1h,2023.2.3,Win32,55.55555556,65e67470ae2fbf2172c317b2,65e8755a928abe21664b702a,,,,,,,,,,,792.9442,1.3,794.2476,794.2476,794.4255,right,0,0.1669,,794.4255,795.4281,4,13,77,11,1,partial,1,images/Ex12.jpg,left,training,hard,2,,,,,
,,,,,63d53b38b9e515c80720bb76,001,,,,,2024-03-06_13h54.33.652,CRL1h,2023.2.3,Win32,55.55555556,65e67470ae2fbf2172c317b2,65e8755a928abe21664b702a,,,,,,,,,,,795.4287,0.8,796.2217,796.2218,796.6971,left,1,0.4654,,796.6971,797.6868,4,14,78,1,1,partial,1,images/Ex10.jpg,left,training,hard,2,,,,,
,,,,,63d53b38b9e515c80720bb76,001,,,,,2024-03-06_13h54.33.652,CRL1h,2023.2.3,Win32,55.55555556,65e67470ae2fbf2172c317b2,65e8755a928abe21664b702a,,,,,,,,,,,797.6871,0.6,798.2849,798.285,798.5459,left,1,0.2481,,798.546,799.5335,4,15,79,8,1,partial,1,images/Ex9.jpg,left,training,hard,2,,,,,
,,,,,63d53b38b9e515c80720bb76,001,,,,,2024-03-06_13h54.33.652,CRL1h,2023.2.3,Win32,55.55555556,65e67470ae2fbf2172c317b2,65e8755a928abe21664b702a,,,,,,,,,,,799.5339,0.5,800.0238,800.0239,802.6323,left,1,2.6046,,802.6324,803.6196,5,0,80,10,1,partial,1,images/Ex11.jpg,left,training,hard,2,,,,,
,,,,,63d53b38b9e515c80720bb76,001,,,,,2024-03-06_13h54.33.652,CRL1h,2023.2.3,Win32,55.55555556,65e67470ae2fbf2172c317b2,65e8755a928abe21664b702a,,,,,,,,,,,803.6324,1,804.6287,804.6287,804.9283,right,1,0.2962,,804.9284,805.9206,5,1,81,6,1,partial,1,images/Ex15.jpg,right,training,hard,2,,,,,
,,,,,63d53b38b9e515c80720bb76,001,,,,,2024-03-06_13h54.33.652,CRL1h,2023.2.3,Win32,55.55555556,65e67470ae2fbf2172c317b2,65e8755a928abe21664b702a,,,,,,,,,,,805.9211,0.8,806.7129,806.7129,807.3671,right,1,0.6459,,807.3672,808.3573,5,2,82,4,1,partial,1,images/Ex13.jpg,right,training,hard,2,,,,,
,,,,,63d53b38b9e515c80720bb76,001,,,,,2024-03-06_13h54.33.652,CRL1h,2023.2.3,Win32,55.55555556,65e67470ae2fbf2172c317b2,65e8755a928abe21664b702a,,,,,,,,,,,808.3581,1.3,809.6476,809.6476,811.0391,left,1,1.3829,,811.0391,812.0417,5,3,83,1,1,partial,1,images/Ex10.jpg,left,training,hard,2,,,,,
,,,,,63d53b38b9e515c80720bb76,001,,,,,2024-03-06_13h54.33.652,CRL1h,2023.2.3,Win32,55.55555556,65e67470ae2fbf2172c317b2,65e8755a928abe21664b702a,,,,,,,,,,,812.0423,0.8,812.8389,812.839,813.4951,left,1,0.6534,,813.4951,814.483,5,4,84,3,1,partial,1,images/Ex12.jpg,left,training,hard,2,,,,,
,,,,,63d53b38b9e515c80720bb76,001,,,,,2024-03-06_13h54.33.652,CRL1h,2023.2.3,Win32,55.55555556,65e67470ae2fbf2172c317b2,65e8755a928abe21664b702a,,,,,,,,,,,814.4839,0.9,815.3758,815.3758,815.6377,right,0,0.2556,,815.6378,816.6339,5,5,85,8,1,partial,1,images/Ex9.jpg,left,training,hard,2,,,,,
,,,,,63d53b38b9e515c80720bb76,001,,,,,2024-03-06_13h54.33.652,CRL1h,2023.2.3,Win32,55.55555556,65e67470ae2fbf2172c317b2,65e8755a928abe21664b702a,,,,,,,,,,,816.6346,1.4,818.0223,818.0223,818.5123,left,0,0.4763,,818.5125,819.5129,5,6,86,15,1,partial,1,images/Ex16.jpg,right,training,hard,2,,,,,
,,,,,63d53b38b9e515c80720bb76,001,,,,,2024-03-06_13h54.33.652,CRL1h,2023.2.3,Win32,55.55555556,65e67470ae2fbf2172c317b2,65e8755a928abe21664b702a,,,,,,,,,,,819.5133,1.4,820.9043,820.9044,821.6814,left,0,0.7677,,821.6815,822.6827,5,7,87,5,1,partial,1,images/Ex14.jpg,right,training,hard,2,,,,,
,,,,,63d53b38b9e515c80720bb76,001,,,,,2024-03-06_13h54.33.652,CRL1h,2023.2.3,Win32,55.55555556,65e67470ae2fbf2172c317b2,65e8755a928abe21664b702a,,,,,,,,,,,822.6832,0.7,823.385,823.3851,824.2482,left,0,0.8598,,824.2483,825.2366,5,8,88,14,1,partial,1,images/Ex15.jpg,right,training,hard,2,,,,,
,,,,,63d53b38b9e515c80720bb76,001,,,,,2024-03-06_13h54.33.652,CRL1h,2023.2.3,Win32,55.55555556,65e67470ae2fbf2172c317b2,65e8755a928abe21664b702a,,,,,,,,,,,825.2371,1.3,826.5397,826.5397,826.84,right,1,0.2907,,826.8401,827.8385,5,9,89,7,1,partial,1,images/Ex16.jpg,right,training,hard,2,,,,,
,,,,,63d53b38b9e515c80720bb76,001,,,,,2024-03-06_13h54.33.652,CRL1h,2023.2.3,Win32,55.55555556,65e67470ae2fbf2172c317b2,65e8755a928abe21664b702a,,,,,,,,,,,827.8393,1.3,829.1273,829.1274,829.5692,right,1,0.4301,,829.5694,830.5693,5,10,90,13,1,partial,1,images/Ex14.jpg,right,training,hard,2,,,,,
,,,,,63d53b38b9e515c80720bb76,001,,,,,2024-03-06_13h54.33.652,CRL1h,2023.2.3,Win32,55.55555556,65e67470ae2fbf2172c317b2,65e8755a928abe21664b702a,,,,,,,,,,,830.5703,0.9,831.4633,831.4633,832.6437,left,1,1.1679,,832.6438,833.6318,5,11,91,9,1,partial,1,images/Ex10.jpg,left,training,hard,2,,,,,
,,,,,63d53b38b9e515c80720bb76,001,,,,,2024-03-06_13h54.33.652,CRL1h,2023.2.3,Win32,55.55555556,65e67470ae2fbf2172c317b2,65e8755a928abe21664b702a,,,,,,,,,,,833.6444,1.2,834.8399,834.84,835.5076,left,0,0.6546,,835.5077,836.5091,5,12,92,12,1,partial,1,images/Ex13.jpg,right,training,hard,2,,,,,
,,,,,63d53b38b9e515c80720bb76,001,,,,,2024-03-06_13h54.33.652,CRL1h,2023.2.3,Win32,55.55555556,65e67470ae2fbf2172c317b2,65e8755a928abe21664b702a,,,,,,,,,,,836.5095,1,837.5123,837.5124,838.9003,right,0,1.383,,838.9004,839.9027,5,13,93,11,1,partial,1,images/Ex12.jpg,left,training,hard,2,,,,,
,,,,,63d53b38b9e515c80720bb76,001,,,,,2024-03-06_13h54.33.652,CRL1h,2023.2.3,Win32,55.55555556,65e67470ae2fbf2172c317b2,65e8755a928abe21664b702a,,,,,,,,,,,839.9037,0.9,840.7993,840.7994,842.2571,right,0,1.4535,,842.2572,843.2596,5,14,94,0,1,partial,1,images/Ex9.jpg,left,training,hard,2,,,,,
,,,,,63d53b38b9e515c80720bb76,001,,,,,2024-03-06_13h54.33.652,CRL1h,2023.2.3,Win32,55.55555556,65e67470ae2fbf2172c317b2,65e8755a928abe21664b702a,,,,,,,,,,,843.2602,0.7,843.9615,843.9616,846.0001,left,1,2.028,,846.0001,846.9948,5,15,95,2,1,partial,1,images/Ex11.jpg,left,training,hard,2,,,,,
,,,,,63d53b38b9e515c80720bb76,001,,,,,2024-03-06_13h54.33.652,CRL1h,2023.2.3,Win32,55.55555556,65e67470ae2fbf2172c317b2,65e8755a928abe21664b702a,,,,,,,,,,,846.9952,0.8,847.799,847.799,848.3786,right,0,0.5665,,848.3787,849.3824,6,0,96,11,1,partial,1,images/Ex12.jpg,left,training,hard,2,,,,,
,,,,,63d53b38b9e515c80720bb76,001,,,,,2024-03-06_13h54.33.652,CRL1h,2023.2.3,Win32,55.55555556,65e67470ae2fbf2172c317b2,65e8755a928abe21664b702a,,,,,,,,,,,849.3828,0.9,850.2702,850.2703,851.4799,left,1,1.2062,,851.4799,852.4717,6,1,97,8,1,partial,1,images/Ex9.jpg,left,training,hard,2,,,,,
,,,,,63d53b38b9e515c80720bb76,001,,,,,2024-03-06_13h54.33.652,CRL1h,2023.2.3,Win32,55.55555556,65e67470ae2fbf2172c317b2,65e8755a928abe21664b702a,,,,,,,,,,,852.4723,1.5,853.9649,853.9649,857.2622,left,1,3.2862,,857.2623,858.2503,6,2,98,1,1,partial,1,images/Ex10.jpg,left,training,hard,2,,,,,
,,,,,63d53b38b9e515c80720bb76,001,,,,,2024-03-06_13h54.33.652,CRL1h,2023.2.3,Win32,55.55555556,65e67470ae2fbf2172c317b2,65e8755a928abe21664b702a,,,,,,,,,,,858.2713,0.7,858.9715,858.9715,859.3215,right,1,0.3454,,859.3216,860.3174,6,3,99,5,1,partial,1,images/Ex14.jpg,right,training,hard,2,,,,,
,,,,,63d53b38b9e515c80720bb76,001,,,,,2024-03-06_13h54.33.652,CRL1h,2023.2.3,Win32,55.55555556,65e67470ae2fbf2172c317b2,65e8755a928abe21664b702a,,,,,,,,,,,860.3182,0.8,861.1117,861.1117,866.1265,right,0,5.0061,,866.1265,867.1287,6,4,100,0,1,partial,1,images/Ex9.jpg,left,training,hard,2,,,,,
,,,,,63d53b38b9e515c80720bb76,001,,,,,2024-03-06_13h54.33.652,CRL1h,2023.2.3,Win32,55.55555556,65e67470ae2fbf2172c317b2,65e8755a928abe21664b702a,,,,,,,,,,,867.1443,1.1,868.2376,868.2378,869.2399,left,0,0.9929,,869.2399,870.2304,6,5,101,7,1,partial,1,images/Ex16.jpg,right,training,hard,2,,,,,
,,,,,63d53b38b9e515c80720bb76,001,,,,,2024-03-06_13h54.33.652,CRL1h,2023.2.3,Win32,55.55555556,65e67470ae2fbf2172c317b2,65e8755a928abe21664b702a,,,,,,,,,,,870.2308,1.2,871.4283,871.4284,872.0477,left,1,0.6121,,872.0477,873.0412,6,6,102,3,1,partial,1,images/Ex12.jpg,left,training,hard,2,,,,,
,,,,,63d53b38b9e515c80720bb76,001,,,,,2024-03-06_13h54.33.652,CRL1h,2023.2.3,Win32,55.55555556,65e67470ae2fbf2172c317b2,65e8755a928abe21664b702a,,,,,,,,,,,873.0418,0.7,873.7326,873.7326,876.988,right,1,3.2495,,876.988,877.9772,6,7,103,12,1,partial,1,images/Ex13.jpg,right,training,hard,2,,,,,
,,,,,63d53b38b9e515c80720bb76,001,,,,,2024-03-06_13h54.33.652,CRL1h,2023.2.3,Win32,55.55555556,65e67470ae2fbf2172c317b2,65e8755a928abe21664b702a,,,,,,,,,,,877.9915,1.3,879.2939,879.294,882.3314,right,1,3.032,,882.3315,883.3205,6,8,104,14,1,partial,1,images/Ex15.jpg,right,training,hard,2,,,,,
,,,,,63d53b38b9e515c80720bb76,001,,,,,2024-03-06_13h54.33.652,CRL1h,2023.2.3,Win32,55.55555556,65e67470ae2fbf2172c317b2,65e8755a928abe21664b702a,,,,,,,,,,,883.3438,1.2,884.5356,884.5357,884.6574,right,1,0.1106,,884.6575,885.657,6,9,105,6,1,partial,1,images/Ex15.jpg,right,training,hard,2,,,,,
,,,,,63d53b38b9e515c80720bb76,001,,,,,2024-03-06_13h54.33.652,CRL1h,2023.2.3,Win32,55.55555556,65e67470ae2fbf2172c317b2,65e8755a928abe21664b702a,,,,,,,,,,,885.6576,1.2,886.8474,886.8474,886.9515,right,0,0.1014,,886.9516,887.9388,6,10,106,10,1,partial,1,images/Ex11.jpg,left,training,hard,2,,,,,
,,,,,63d53b38b9e515c80720bb76,001,,,,,2024-03-06_13h54.33.652,CRL1h,2023.2.3,Win32,55.55555556,65e67470ae2fbf2172c317b2,65e8755a928abe21664b702a,,,,,,,,,,,887.9393,0.6,888.538,888.5381,889.0471,right,1,0.4959,,889.0472,890.0349,6,11,107,4,1,partial,1,images/Ex13.jpg,right,training,hard,2,,,,,
,,,,,63d53b38b9e515c80720bb76,001,,,,,2024-03-06_13h54.33.652,CRL1h,2023.2.3,Win32,55.55555556,65e67470ae2fbf2172c317b2,65e8755a928abe21664b702a,,,,,,,,,,,890.0363,0.6,890.633,890.633,891.1941,right,1,0.5488,,891.1942,892.1935,6,12,108,15,1,partial,1,images/Ex16.jpg,right,training,hard,2,,,,,
,,,,,63d53b38b9e515c80720bb76,001,,,,,2024-03-06_13h54.33.652,CRL1h,2023.2.3,Win32,55.55555556,65e67470ae2fbf2172c317b2,65e8755a928abe21664b702a,,,,,,,,,,,892.1944,1.3,893.496,893.496,893.7067,left,1,0.1993,,893.7067,894.7117,6,13,109,2,1,partial,1,images/Ex11.jpg,left,training,hard,2,,,,,
,,,,,63d53b38b9e515c80720bb76,001,,,,,2024-03-06_13h54.33.652,CRL1h,2023.2.3,Win32,55.55555556,65e67470ae2fbf2172c317b2,65e8755a928abe21664b702a,,,,,,,,,,,894.7126,0.8,895.5054,895.5054,900.3718,left,1,4.8543,,900.3718,901.3606,6,14,110,9,1,partial,1,images/Ex10.jpg,left,training,hard,2,,,,,
,,,,,63d53b38b9e515c80720bb76,001,,,,,2024-03-06_13h54.33.652,CRL1h,2023.2.3,Win32,55.55555556,65e67470ae2fbf2172c317b2,65e8755a928abe21664b702a,,,,,,,,,,,901.3845,0.7,902.0846,902.0846,903.0327,right,1,0.9399,,903.0328,904.0221,6,15,111,13,1,partial,1,images/Ex14.jpg,right,training,hard,2,,,,,
,,,,,63d53b38b9e515c80720bb76,001,,,,,2024-03-06_13h54.33.652,CRL1h,2023.2.3,Win32,55.55555556,65e67470ae2fbf2172c317b2,65e8755a928abe21664b702a,,,,,,,,,,,904.0226,1.3,905.3268,905.3269,906.1051,right,1,0.7764,,906.1052,907.1038,7,0,112,7,1,partial,1,images/Ex16.jpg,right,training,hard,2,,,,,
,,,,,63d53b38b9e515c80720bb76,001,,,,,2024-03-06_13h54.33.652,CRL1h,2023.2.3,Win32,55.55555556,65e67470ae2fbf2172c317b2,65e8755a928abe21664b702a,,,,,,,,,,,907.1043,0.7,907.8075,907.8076,908.3869,right,1,0.574,,908.387,909.3909,7,1,113,15,1,partial,1,images/Ex16.jpg,right,training,hard,2,,,,,
,,,,,63d53b38b9e515c80720bb76,001,,,,,2024-03-06_13h54.33.652,CRL1h,2023.2.3,Win32,55.55555556,65e67470ae2fbf2172c317b2,65e8755a928abe21664b702a,,,,,,,,,,,909.3916,1.4,910.7871,910.7872,911.0738,left,1,0.2761,,911.0739,912.0625,7,2,114,9,1,partial,1,images/Ex10.jpg,left,training,hard,2,,,,,
,,,,,63d53b38b9e515c80720bb76,001,,,,,2024-03-06_13h54.33.652,CRL1h,2023.2.3,Win32,55.55555556,65e67470ae2fbf2172c317b2,65e8755a928abe21664b702a,,,,,,,,,,,912.0628,1.5,913.5569,913.557,914.7496,left,0,1.1913,,914.7496,915.7383,7,3,115,5,1,partial,1,images/Ex14.jpg,right,training,hard,2,,,,,
,,,,,63d53b38b9e515c80720bb76,001,,,,,2024-03-06_13h54.33.652,CRL1h,2023.2.3,Win32,55.55555556,65e67470ae2fbf2172c317b2,65e8755a928abe21664b702a,,,,,,,,,,,915.7513,1,916.7453,916.7453,917.4911,right,1,0.7345,,917.4912,918.4948,7,4,116,13,1,partial,1,images/Ex14.jpg,right,training,hard,2,,,,,
,,,,,63d53b38b9e515c80720bb76,001,,,,,2024-03-06_13h54.33.652,CRL1h,2023.2.3,Win32,55.55555556,65e67470ae2fbf2172c317b2,65e8755a928abe21664b702a,,,,,,,,,,,918.4952,0.9,919.3946,919.3946,920.442,right,0,1.0423,,920.4421,921.4358,7,5,117,1,1,partial,1,images/Ex10.jpg,left,training,hard,2,,,,,
,,,,,63d53b38b9e515c80720bb76,001,,,,,2024-03-06_13h54.33.652,CRL1h,2023.2.3,Win32,55.55555556,65e67470ae2fbf2172c317b2,65e8755a928abe21664b702a,,,,,,,,,,,921.4364,0.9,922.3369,922.337,923.7907,right,0,1.4419,,923.7908,924.7788,7,6,118,8,1,partial,1,images/Ex9.jpg,left,training,hard,2,,,,,
,,,,,63d53b38b9e515c80720bb76,001,,,,,2024-03-06_13h54.33.652,CRL1h,2023.2.3,Win32,55.55555556,65e67470ae2fbf2172c317b2,65e8755a928abe21664b702a,,,,,,,,,,,924.779,0.8,925.5704,925.5704,926.3818,left,0,0.8038,,926.3818,927.3694,7,7,119,12,1,partial,1,images/Ex13.jpg,right,training,hard,2,,,,,
,,,,,63d53b38b9e515c80720bb76,001,,,,,2024-03-06_13h54.33.652,CRL1h,2023.2.3,Win32,55.55555556,65e67470ae2fbf2172c317b2,65e8755a928abe21664b702a,,,,,,,,,,,927.37,0.8,928.1618,928.1618,929.0637,left,1,0.8879,,929.0638,930.0643,7,8,120,10,1,partial,1,images/Ex11.jpg,left,training,hard,2,,,,,
,,,,,63d53b38b9e515c80720bb76,001,,,,,2024-03-06_13h54.33.652,CRL1h,2023.2.3,Win32,55.55555556,65e67470ae2fbf2172c317b2,65e8755a928abe21664b702a,,,,,,,,,,,930.0649,0.9,930.9584,930.9584,931.0288,right,1,0.0629,,931.0288,932.0299,7,9,121,6,1,partial,1,images/Ex15.jpg,right,training,hard,2,,,,,
,,,,,63d53b38b9e515c80720bb76,001,,,,,2024-03-06_13h54.33.652,CRL1h,2023.2.3,Win32,55.55555556,65e67470ae2fbf2172c317b2,65e8755a928abe21664b702a,,,,,,,,,,,932.0302,0.9,932.9283,932.9283,933.0329,right,0,0.0994,,933.0329,934.0204,7,10,122,3,1,partial,1,images/Ex12.jpg,left,training,hard,2,,,,,
,,,,,63d53b38b9e515c80720bb76,001,,,,,2024-03-06_13h54.33.652,CRL1h,2023.2.3,Win32,55.55555556,65e67470ae2fbf2172c317b2,65e8755a928abe21664b702a,,,,,,,,,,,934.0212,0.6,934.6199,934.62,935.3624,right,0,0.7367,,935.3625,936.3529,7,11,123,11,1,partial,1,images/Ex12.jpg,left,training,hard,2,,,,,
,,,,,63d53b38b9e515c80720bb76,001,,,,,2024-03-06_13h54.33.652,CRL1h,2023.2.3,Win32,55.55555556,65e67470ae2fbf2172c317b2,65e8755a928abe21664b702a,,,,,,,,,,,936.3536,1.2,937.5544,937.5544,938.1219,left,0,0.5569,,938.1219,939.1133,7,12,124,4,1,partial,1,images/Ex13.jpg,right,training,hard,2,,,,,
,,,,,63d53b38b9e515c80720bb76,001,,,,,2024-03-06_13h54.33.652,CRL1h,2023.2.3,Win32,55.55555556,65e67470ae2fbf2172c317b2,65e8755a928abe21664b702a,,,,,,,,,,,939.1137,0.8,939.9106,939.9106,940.353,left,0,0.4411,,940.353,941.3428,7,13,125,14,1,partial,1,images/Ex15.jpg,right,training,hard,2,,,,,
,,,,,63d53b38b9e515c80720bb76,001,,,,,2024-03-06_13h54.33.652,CRL1h,2023.2.3,Win32,55.55555556,65e67470ae2fbf2172c317b2,65e8755a928abe21664b702a,,,,,,,,,,,941.3432,1.1,942.4369,942.4369,943.2168,left,1,0.7757,,943.2168,944.2058,7,14,126,2,1,partial,1,images/Ex11.jpg,left,training,hard,2,,,,,
,,,,,63d53b38b9e515c80720bb76,001,,,,,2024-03-06_13h54.33.652,CRL1h,2023.2.3,Win32,55.55555556,65e67470ae2fbf2172c317b2,65e8755a928abe21664b702a,,,,,,,,,,,944.2062,1.3,945.4947,945.4947,945.8315,left,1,0.3284,,945.8316,946.8247,7,15,127,0,1,partial,1,images/Ex9.jpg,left,training,hard,2,,,,,
,,,,,63d53b38b9e515c80720bb76,001,,,,,2024-03-06_13h54.33.652,CRL1h,2023.2.3,Win32,55.55555556,65e67470ae2fbf2172c317b2,65e8755a928abe21664b702a,,,,,,,,,,,946.8309,0.7,947.5321,947.5321,948.1883,left,1,0.6515,,948.1884,949.1894,0,0,0,6,1,partial,2,images/Ex15.jpg,left,reversed,hard,2,,,,,
,,,,,63d53b38b9e515c80720bb76,001,,,,,2024-03-06_13h54.33.652,CRL1h,2023.2.3,Win32,55.55555556,65e67470ae2fbf2172c317b2,65e8755a928abe21664b702a,,,,,,,,,,,949.1898,0.5,949.6877,949.6877,950.0946,left,0,0.3993,,950.0946,951.0979,0,1,1,9,1,partial,2,images/Ex10.jpg,right,reversed,hard,2,,,,,
,,,,,63d53b38b9e515c80720bb76,001,,,,,2024-03-06_13h54.33.652,CRL1h,2023.2.3,Win32,55.55555556,65e67470ae2fbf2172c317b2,65e8755a928abe21664b702a,,,,,,,,,,,951.0983,0.6,951.6959,951.6959,952.5362,left,1,0.8369,,952.5362,953.5405,0,2,2,3,1,partial,2,images/Ex12.jpg,left,nonreversed,hard,2,,,,,
,,,,,63d53b38b9e515c80720bb76,001,,,,,2024-03-06_13h54.33.652,CRL1h,2023.2.3,Win32,55.55555556,65e67470ae2fbf2172c317b2,65e8755a928abe21664b702a,,,,,,,,,,,953.5412,0.7,954.2301,954.2301,956.7152,left,1,2.4783,,956.7152,957.7162,0,3,3,14,1,partial,2,images/Ex15.jpg,left,reversed,hard,2,,,,,
,,,,,63d53b38b9e515c80720bb76,001,,,,,2024-03-06_13h54.33.652,CRL1h,2023.2.3,Win32,55.55555556,65e67470ae2fbf2172c317b2,65e8755a928abe21664b702a,,,,,,,,,,,957.7167,0.7,958.4049,958.405,959.1071,left,0,0.689,,959.1071,960.1089,0,4,4,12,1,partial,2,images/Ex13.jpg,right,nonreversed,hard,2,,,,,
,,,,,63d53b38b9e515c80720bb76,001,,,,,2024-03-06_13h54.33.652,CRL1h,2023.2.3,Win32,55.55555556,65e67470ae2fbf2172c317b2,65e8755a928abe21664b702a,,,,,,,,,,,960.1093,0.9,961.0046,961.0047,961.5788,left,1,0.5679,,961.5789,962.5784,0,5,5,11,1,partial,2,images/Ex12.jpg,left,nonreversed,hard,2,,,,,
,,,,,63d53b38b9e515c80720bb76,001,,,,,2024-03-06_13h54.33.652,CRL1h,2023.2.3,Win32,55.55555556,65e67470ae2fbf2172c317b2,65e8755a928abe21664b702a,,,,,,,,,,,962.5792,1.2,963.7807,963.7808,965.5573,right,1,1.7651,,965.5574,966.5503,0,6,6,8,1,partial,2,images/Ex9.jpg,right,reversed,hard,2,,,,,
,,,,,63d53b38b9e515c80720bb76,001,,,,,2024-03-06_13h54.33.652,CRL1h,2023.2.3,Win32,55.55555556,65e67470ae2fbf2172c317b2,65e8755a928abe21664b702a,,,,,,,,,,,966.5511,1.3,967.839,967.839,968.4935,left,1,0.6478,,968.4935,969.4853,0,7,7,10,1,partial,2,images/Ex11.jpg,left,nonreversed,hard,2,,,,,
,,,,,63d53b38b9e515c80720bb76,001,,,,,2024-03-06_13h54.33.652,CRL1h,2023.2.3,Win32,55.55555556,65e67470ae2fbf2172c317b2,65e8755a928abe21664b702a,,,,,,,,,,,969.4858,0.9,970.3746,970.3746,971.8725,right,0,1.4892,,971.8725,972.8636,0,8,8,7,1,partial,2,images/Ex16.jpg,left,reversed,hard,2,,,,,
,,,,,63d53b38b9e515c80720bb76,001,,,,,2024-03-06_13h54.33.652,CRL1h,2023.2.3,Win32,55.55555556,65e67470ae2fbf2172c317b2,65e8755a928abe21664b702a,,,,,,,,,,,972.8646,1,973.858,973.8581,975.6232,left,0,1.7594,,975.6233,976.62,0,9,9,1,1,partial,2,images/Ex10.jpg,right,reversed,hard,2,,,,,
,,,,,63d53b38b9e515c80720bb76,001,,,,,2024-03-06_13h54.33.652,CRL1h,2023.2.3,Win32,55.55555556,65e67470ae2fbf2172c317b2,65e8755a928abe21664b702a,,,,,,,,,,,976.6205,1.2,977.8078,977.8078,978.022,left,1,0.2128,,978.0221,979.0133,0,10,10,15,1,partial,2,images/Ex16.jpg,left,reversed,hard,2,,,,,
,,,,,63d53b38b9e515c80720bb76,001,,,,,2024-03-06_13h54.33.652,CRL1h,2023.2.3,Win32,55.55555556,65e67470ae2fbf2172c317b2,65e8755a928abe21664b702a,,,,,,,,,,,979.0137,1.1,980.1097,980.1099,980.5662,left,0,0.4545,,980.5664,981.5698,0,11,11,5,1,partial,2,images/Ex14.jpg,right,nonreversed,hard,2,,,,,
,,,,,63d53b38b9e515c80720bb76,001,,,,,2024-03-06_13h54.33.652,CRL1h,2023.2.3,Win32,55.55555556,65e67470ae2fbf2172c317b2,65e8755a928abe21664b702a,,,,,,,,,,,981.5704,1,982.5628,982.5628,984.276,right,1,1.7004,,984.276,985.2748,0,12,12,13,1,partial,2,images/Ex14.jpg,right,nonreversed,hard,2,,,,,
,,,,,63d53b38b9e515c80720bb76,001,,,,,2024-03-06_13h54.33.652,CRL1h,2023.2.3,Win32,55.55555556,65e67470ae2fbf2172c317b2,65e8755a928abe21664b702a,,,,,,,,,,,985.2752,1.2,986.4778,986.4778,987.0582,left,1,0.5765,,987.0582,988.0469,0,13,13,2,1,partial,2,images/Ex11.jpg,left,nonreversed,hard,2,,,,,
,,,,,63d53b38b9e515c80720bb76,001,,,,,2024-03-06_13h54.33.652,CRL1h,2023.2.3,Win32,55.55555556,65e67470ae2fbf2172c317b2,65e8755a928abe21664b702a,,,,,,,,,,,988.0473,0.7,988.7479,988.7479,989.0642,right,1,0.3077,,989.0642,990.0619,0,14,14,4,1,partial,2,images/Ex13.jpg,right,nonreversed,hard,2,,,,,
,,,,,63d53b38b9e515c80720bb76,001,,,,,2024-03-06_13h54.33.652,CRL1h,2023.2.3,Win32,55.55555556,65e67470ae2fbf2172c317b2,65e8755a928abe21664b702a,,,,,,,,,,,990.0626,1.5,991.5632,991.5632,991.9886,left,0,0.4141,,991.9887,992.9765,0,15,15,0,1,partial,2,images/Ex9.jpg,right,reversed,hard,2,,,,,
,,,,,63d53b38b9e515c80720bb76,001,,,,,2024-03-06_13h54.33.652,CRL1h,2023.2.3,Win32,55.55555556,65e67470ae2fbf2172c317b2,65e8755a928abe21664b702a,,,,,,,,,,,992.9769,0.8,993.7659,993.766,994.2442,left,1,0.4705,,994.2443,995.236,1,0,16,10,1,partial,2,images/Ex11.jpg,left,nonreversed,hard,2,,,,,
,,,,,63d53b38b9e515c80720bb76,001,,,,,2024-03-06_13h54.33.652,CRL1h,2023.2.3,Win32,55.55555556,65e67470ae2fbf2172c317b2,65e8755a928abe21664b702a,,,,,,,,,,,995.2365,1.2,996.4303,996.4304,996.9876,right,0,0.5517,,996.9876,997.9873,1,1,17,2,1,partial,2,images/Ex11.jpg,left,nonreversed,hard,2,,,,,
,,,,,63d53b38b9e515c80720bb76,001,,,,,2024-03-06_13h54.33.652,CRL1h,2023.2.3,Win32,55.55555556,65e67470ae2fbf2172c317b2,65e8755a928abe21664b702a,,,,,,,,,,,997.9882,1.4,999.3919,999.392,999.6564,left,0,0.2614,,999.6564,1000.6458,1,2,18,5,1,partial,2,images/Ex14.jpg,right,nonreversed,hard,2,,,,,
,,,,,63d53b38b9e515c80720bb76,001,,,,,2024-03-06_13h54.33.652,CRL1h,2023.2.3,Win32,55.55555556,65e67470ae2fbf2172c317b2,65e8755a928abe21664b702a,,,,,,,,,,,1000.6461,0.5,1001.1416,1001.1417,1001.7372,right,0,0.5857,,1001.7373,1002.7259,1,3,19,3,1,partial,2,images/Ex12.jpg,left,nonreversed,hard,2,,,,,
