infCons.started,infCons.stopped,resp_consent.keys,resp_consent.rt,resp_consent.duration,participant,session,Age?,Gender?,Nationality?,Highest Educational Degree?,date,expName,psychopyVersion,OS,frameRate,STUDY_ID,SESSION_ID,instructions.started,instructions.stopped,resp_instructions.keys,resp_instructions.rt,resp_instructions.duration,nextTask.started,nextTask.stopped,ready_task.keys,ready_task.rt,ready_task.duration,fixation.started,ITI,fixation.stopped,stim.started,stim.stopped,response.keys,response.corr,response.rt,response.duration,feedback.started,feedback.stopped,trials.thisRepN,trials.thisTrialN,trials.thisN,trials.thisIndex,trials.ran,task,phase,Exemplars,r_correct,condition,difficulty,set,end.started,end.stopped,resp_end.keys,resp_end.rt,resp_end.duration
0,9.137,space,9.086,,64136457f1327294ffb3fef9,001,32,Male,British,BA Hons,2024-03-05_22h21.02.436,CRL1h,2023.2.3,Win32,59.95203837,65e67470ae2fbf2172c317b2,65e79a9c317a389bcc19727d,,,,,,,,,,,,,,,,,,,,,,,,,,,,,,,,,,,,,,
,,,,,64136457f1327294ffb3fef9,001,32,Male,British,BA Hons,2024-03-05_22h21.02.436,CRL1h,2023.2.3,Win32,59.95203837,65e67470ae2fbf2172c317b2,65e79a9c317a389bcc19727d,9.138,107.787,space,98.612,,,,,,,,,,,,,,,,,,,,,,,,,,,,,,,,,,
,,,,,64136457f1327294ffb3fef9,001,32,Male,British,BA Hons,2024-03-05_22h21.02.436,CRL1h,2023.2.3,Win32,59.95203837,65e67470ae2fbf2172c317b2,65e79a9c317a389bcc19727d,,,,,,107.795,112.524,space,4.704,,112.54,0.9,113.442,113.442,116.545,left,1,3.089,,116.546,117.545,0,0,0,3,1,total,1,images/Ex4.jpg,left,training,hard,1,,,,,
,,,,,64136457f1327294ffb3fef9,001,32,Male,British,BA Hons,2024-03-05_22h21.02.436,CRL1h,2023.2.3,Win32,59.95203837,65e67470ae2fbf2172c317b2,65e79a9c317a389bcc19727d,,,,,,,,,,,117.548,0.9,118.446,118.446,119.147,left,1,0.692,,119.147,120.148,0,1,1,11,1,total,1,images/Ex4.jpg,left,training,hard,1,,,,,
,,,,,64136457f1327294ffb3fef9,001,32,Male,British,BA Hons,2024-03-05_22h21.02.436,CRL1h,2023.2.3,Win32,59.95203837,65e67470ae2fbf2172c317b2,65e79a9c317a389bcc19727d,,,,,,,,,,,120.149,1.1,121.248,121.249,122.649,right,0,1.392,,122.649,123.65,0,2,2,2,1,total,1,images/Ex3.jpg,left,training,hard,1,,,,,
,,,,,64136457f1327294ffb3fef9,001,32,Male,British,BA Hons,2024-03-05_22h21.02.436,CRL1h,2023.2.3,Win32,59.95203837,65e67470ae2fbf2172c317b2,65e79a9c317a389bcc19727d,,,,,,,,,,,123.651,0.5,124.15,124.15,126.486,right,0,2.324,,126.486,127.486,0,3,3,9,1,total,1,images/Ex2.jpg,left,training,hard,1,,,,,
,,,,,64136457f1327294ffb3fef9,001,32,Male,British,BA Hons,2024-03-05_22h21.02.436,CRL1h,2023.2.3,Win32,59.95203837,65e67470ae2fbf2172c317b2,65e79a9c317a389bcc19727d,,,,,,,,,,,127.488,0.7,128.187,128.187,130.623,right,1,2.425,,130.623,131.623,0,4,4,13,1,total,1,images/Ex6.jpg,right,training,hard,1,,,,,
,,,,,64136457f1327294ffb3fef9,001,32,Male,British,BA Hons,2024-03-05_22h21.02.436,CRL1h,2023.2.3,Win32,59.95203837,65e67470ae2fbf2172c317b2,65e79a9c317a389bcc19727d,,,,,,,,,,,131.625,0.6,132.224,132.224,133.125,right,1,0.9,,133.125,134.126,0,5,5,5,1,total,1,images/Ex6.jpg,right,training,hard,1,,,,,
,,,,,64136457f1327294ffb3fef9,001,32,Male,British,BA Hons,2024-03-05_22h21.02.436,CRL1h,2023.2.3,Win32,59.95203837,65e67470ae2fbf2172c317b2,65e79a9c317a389bcc19727d,,,,,,,,,,,134.126,0.5,134.626,134.626,135.944,right,1,1.305,,135.944,136.944,0,6,6,12,1,total,1,images/Ex5.jpg,right,training,hard,1,,,,,
,,,,,64136457f1327294ffb3fef9,001,32,Male,British,BA Hons,2024-03-05_22h21.02.436,CRL1h,2023.2.3,Win32,59.95203837,65e67470ae2fbf2172c317b2,65e79a9c317a389bcc19727d,,,,,,,,,,,136.945,0.6,137.545,137.545,138.847,left,1,1.29,,138.847,139.847,0,7,7,1,1,total,1,images/Ex2.jpg,left,training,hard,1,,,,,
,,,,,64136457f1327294ffb3fef9,001,32,Male,British,BA Hons,2024-03-05_22h21.02.436,CRL1h,2023.2.3,Win32,59.95203837,65e67470ae2fbf2172c317b2,65e79a9c317a389bcc19727d,,,,,,,,,,,139.847,0.7,140.547,140.548,142.332,left,1,1.775,,142.332,143.333,0,8,8,10,1,total,1,images/Ex3.jpg,left,training,hard,1,,,,,
,,,,,64136457f1327294ffb3fef9,001,32,Male,British,BA Hons,2024-03-05_22h21.02.436,CRL1h,2023.2.3,Win32,59.95203837,65e67470ae2fbf2172c317b2,65e79a9c317a389bcc19727d,,,,,,,,,,,143.334,1.4,144.734,144.734,146.102,left,1,1.357,,146.102,147.102,0,9,9,8,1,total,1,images/Ex1.jpg,left,training,hard,1,,,,,
,,,,,64136457f1327294ffb3fef9,001,32,Male,British,BA Hons,2024-03-05_22h21.02.436,CRL1h,2023.2.3,Win32,59.95203837,65e67470ae2fbf2172c317b2,65e79a9c317a389bcc19727d,,,,,,,,,,,147.103,0.6,147.705,147.705,148.771,right,1,1.052,,148.772,149.772,0,10,10,7,1,total,1,images/Ex8.jpg,right,training,hard,1,,,,,
,,,,,64136457f1327294ffb3fef9,001,32,Male,British,BA Hons,2024-03-05_22h21.02.436,CRL1h,2023.2.3,Win32,59.95203837,65e67470ae2fbf2172c317b2,65e79a9c317a389bcc19727d,,,,,,,,,,,149.774,1,150.772,150.772,152.074,left,1,1.289,,152.074,153.075,0,11,11,0,1,total,1,images/Ex1.jpg,left,training,hard,1,,,,,
,,,,,64136457f1327294ffb3fef9,001,32,Male,British,BA Hons,2024-03-05_22h21.02.436,CRL1h,2023.2.3,Win32,59.95203837,65e67470ae2fbf2172c317b2,65e79a9c317a389bcc19727d,,,,,,,,,,,153.076,1.1,154.175,154.175,157.145,left,0,2.96,,157.145,158.146,0,12,12,15,1,total,1,images/Ex8.jpg,right,training,hard,1,,,,,
,,,,,64136457f1327294ffb3fef9,001,32,Male,British,BA Hons,2024-03-05_22h21.02.436,CRL1h,2023.2.3,Win32,59.95203837,65e67470ae2fbf2172c317b2,65e79a9c317a389bcc19727d,,,,,,,,,,,158.147,0.8,158.946,158.946,160.865,right,1,1.911,,160.865,161.865,0,13,13,14,1,total,1,images/Ex7.jpg,right,training,hard,1,,,,,
,,,,,64136457f1327294ffb3fef9,001,32,Male,British,BA Hons,2024-03-05_22h21.02.436,CRL1h,2023.2.3,Win32,59.95203837,65e67470ae2fbf2172c317b2,65e79a9c317a389bcc19727d,,,,,,,,,,,161.866,0.9,162.766,162.767,164.551,left,0,1.78,,164.551,165.552,0,14,14,4,1,total,1,images/Ex5.jpg,right,training,hard,1,,,,,
,,,,,64136457f1327294ffb3fef9,001,32,Male,British,BA Hons,2024-03-05_22h21.02.436,CRL1h,2023.2.3,Win32,59.95203837,65e67470ae2fbf2172c317b2,65e79a9c317a389bcc19727d,,,,,,,,,,,165.552,0.7,166.252,166.252,168.687,right,1,2.429,,168.687,169.689,0,15,15,6,1,total,1,images/Ex7.jpg,right,training,hard,1,,,,,
,,,,,64136457f1327294ffb3fef9,001,32,Male,British,BA Hons,2024-03-05_22h21.02.436,CRL1h,2023.2.3,Win32,59.95203837,65e67470ae2fbf2172c317b2,65e79a9c317a389bcc19727d,,,,,,,,,,,169.69,0.5,170.189,170.189,171.423,left,1,1.223,,171.423,172.424,1,0,16,1,1,total,1,images/Ex2.jpg,left,training,hard,1,,,,,
,,,,,64136457f1327294ffb3fef9,001,32,Male,British,BA Hons,2024-03-05_22h21.02.436,CRL1h,2023.2.3,Win32,59.95203837,65e67470ae2fbf2172c317b2,65e79a9c317a389bcc19727d,,,,,,,,,,,172.425,0.7,173.125,173.125,174.776,left,0,1.64,,174.776,175.777,1,1,17,12,1,total,1,images/Ex5.jpg,right,training,hard,1,,,,,
,,,,,64136457f1327294ffb3fef9,001,32,Male,British,BA Hons,2024-03-05_22h21.02.436,CRL1h,2023.2.3,Win32,59.95203837,65e67470ae2fbf2172c317b2,65e79a9c317a389bcc19727d,,,,,,,,,,,175.778,1.2,176.977,176.977,178.93,right,1,1.941,,178.931,179.93,1,2,18,14,1,total,1,images/Ex7.jpg,right,training,hard,1,,,,,
,,,,,64136457f1327294ffb3fef9,001,32,Male,British,BA Hons,2024-03-05_22h21.02.436,CRL1h,2023.2.3,Win32,59.95203837,65e67470ae2fbf2172c317b2,65e79a9c317a389bcc19727d,,,,,,,,,,,179.933,1.2,181.131,181.131,182.116,left,1,0.975,,182.116,183.117,1,3,19,9,1,total,1,images/Ex2.jpg,left,training,hard,1,,,,,
,,,,,64136457f1327294ffb3fef9,001,32,Male,British,BA Hons,2024-03-05_22h21.02.436,CRL1h,2023.2.3,Win32,59.95203837,65e67470ae2fbf2172c317b2,65e79a9c317a389bcc19727d,,,,,,,,,,,183.118,0.7,183.817,183.817,185.752,left,0,1.928,,185.752,186.753,1,4,20,5,1,total,1,images/Ex6.jpg,right,training,hard,1,,,,,
,,,,,64136457f1327294ffb3fef9,001,32,Male,British,BA Hons,2024-03-05_22h21.02.436,CRL1h,2023.2.3,Win32,59.95203837,65e67470ae2fbf2172c317b2,65e79a9c317a389bcc19727d,,,,,,,,,,,186.754,0.7,187.454,187.454,191.14,right,0,3.677,,191.14,192.141,1,5,21,0,1,total,1,images/Ex1.jpg,left,training,hard,1,,,,,
,,,,,64136457f1327294ffb3fef9,001,32,Male,British,BA Hons,2024-03-05_22h21.02.436,CRL1h,2023.2.3,Win32,59.95203837,65e67470ae2fbf2172c317b2,65e79a9c317a389bcc19727d,,,,,,,,,,,192.142,0.7,192.841,192.841,193.692,right,1,0.848,,193.692,194.692,1,6,22,6,1,total,1,images/Ex7.jpg,right,training,hard,1,,,,,
,,,,,64136457f1327294ffb3fef9,001,32,Male,British,BA Hons,2024-03-05_22h21.02.436,CRL1h,2023.2.3,Win32,59.95203837,65e67470ae2fbf2172c317b2,65e79a9c317a389bcc19727d,,,,,,,,,,,194.693,1.2,195.894,195.894,196.911,left,0,1.012,,196.912,197.912,1,7,23,7,1,total,1,images/Ex8.jpg,right,training,hard,1,,,,,
,,,,,64136457f1327294ffb3fef9,001,32,Male,British,BA Hons,2024-03-05_22h21.02.436,CRL1h,2023.2.3,Win32,59.95203837,65e67470ae2fbf2172c317b2,65e79a9c317a389bcc19727d,,,,,,,,,,,197.913,0.9,198.813,198.813,200.181,left,1,1.366,,200.181,201.181,1,8,24,8,1,total,1,images/Ex1.jpg,left,training,hard,1,,,,,
,,,,,64136457f1327294ffb3fef9,001,32,Male,British,BA Hons,2024-03-05_22h21.02.436,CRL1h,2023.2.3,Win32,59.95203837,65e67470ae2fbf2172c317b2,65e79a9c317a389bcc19727d,,,,,,,,,,,201.182,1,202.182,202.182,204.401,right,1,2.213,,204.401,205.402,1,9,25,4,1,total,1,images/Ex5.jpg,right,training,hard,1,,,,,
,,,,,64136457f1327294ffb3fef9,001,32,Male,British,BA Hons,2024-03-05_22h21.02.436,CRL1h,2023.2.3,Win32,59.95203837,65e67470ae2fbf2172c317b2,65e79a9c317a389bcc19727d,,,,,,,,,,,205.403,1.1,206.503,206.503,208.004,right,1,1.5,,208.004,209.005,1,10,26,13,1,total,1,images/Ex6.jpg,right,training,hard,1,,,,,
,,,,,64136457f1327294ffb3fef9,001,32,Male,British,BA Hons,2024-03-05_22h21.02.436,CRL1h,2023.2.3,Win32,59.95203837,65e67470ae2fbf2172c317b2,65e79a9c317a389bcc19727d,,,,,,,,,,,209.005,1.4,210.406,210.406,212.041,left,0,1.629,,212.042,213.042,1,11,27,15,1,total,1,images/Ex8.jpg,right,training,hard,1,,,,,
,,,,,64136457f1327294ffb3fef9,001,32,Male,British,BA Hons,2024-03-05_22h21.02.436,CRL1h,2023.2.3,Win32,59.95203837,65e67470ae2fbf2172c317b2,65e79a9c317a389bcc19727d,,,,,,,,,,,213.044,1.5,214.543,214.543,215.71,left,1,1.154,,215.71,216.712,1,12,28,3,1,total,1,images/Ex4.jpg,left,training,hard,1,,,,,
,,,,,64136457f1327294ffb3fef9,001,32,Male,British,BA Hons,2024-03-05_22h21.02.436,CRL1h,2023.2.3,Win32,59.95203837,65e67470ae2fbf2172c317b2,65e79a9c317a389bcc19727d,,,,,,,,,,,216.713,1.2,217.912,217.912,219.364,left,1,1.438,,219.364,220.365,1,13,29,2,1,total,1,images/Ex3.jpg,left,training,hard,1,,,,,
,,,,,64136457f1327294ffb3fef9,001,32,Male,British,BA Hons,2024-03-05_22h21.02.436,CRL1h,2023.2.3,Win32,59.95203837,65e67470ae2fbf2172c317b2,65e79a9c317a389bcc19727d,,,,,,,,,,,220.366,1.5,221.865,221.865,222.549,left,1,0.674,,222.55,223.551,1,14,30,10,1,total,1,images/Ex3.jpg,left,training,hard,1,,,,,
,,,,,64136457f1327294ffb3fef9,001,32,Male,British,BA Hons,2024-03-05_22h21.02.436,CRL1h,2023.2.3,Win32,59.95203837,65e67470ae2fbf2172c317b2,65e79a9c317a389bcc19727d,,,,,,,,,,,223.551,1.4,224.951,224.951,225.652,left,1,0.699,,225.652,226.653,1,15,31,11,1,total,1,images/Ex4.jpg,left,training,hard,1,,,,,
,,,,,64136457f1327294ffb3fef9,001,32,Male,British,BA Hons,2024-03-05_22h21.02.436,CRL1h,2023.2.3,Win32,59.95203837,65e67470ae2fbf2172c317b2,65e79a9c317a389bcc19727d,,,,,,,,,,,226.654,0.9,227.554,227.554,228.421,right,0,0.857,,228.421,229.421,2,0,32,1,1,total,1,images/Ex2.jpg,left,training,hard,1,,,,,
,,,,,64136457f1327294ffb3fef9,001,32,Male,British,BA Hons,2024-03-05_22h21.02.436,CRL1h,2023.2.3,Win32,59.95203837,65e67470ae2fbf2172c317b2,65e79a9c317a389bcc19727d,,,,,,,,,,,229.423,1.1,230.523,230.523,231.624,right,1,1.096,,231.624,232.624,2,1,33,13,1,total,1,images/Ex6.jpg,right,training,hard,1,,,,,
,,,,,64136457f1327294ffb3fef9,001,32,Male,British,BA Hons,2024-03-05_22h21.02.436,CRL1h,2023.2.3,Win32,59.95203837,65e67470ae2fbf2172c317b2,65e79a9c317a389bcc19727d,,,,,,,,,,,232.625,0.7,233.325,233.325,234.026,left,1,0.693,,234.026,235.027,2,2,34,3,1,total,1,images/Ex4.jpg,left,training,hard,1,,,,,
,,,,,64136457f1327294ffb3fef9,001,32,Male,British,BA Hons,2024-03-05_22h21.02.436,CRL1h,2023.2.3,Win32,59.95203837,65e67470ae2fbf2172c317b2,65e79a9c317a389bcc19727d,,,,,,,,,,,235.027,1,236.028,236.028,237.228,right,1,1.191,,237.228,238.229,2,3,35,5,1,total,1,images/Ex6.jpg,right,training,hard,1,,,,,
,,,,,64136457f1327294ffb3fef9,001,32,Male,British,BA Hons,2024-03-05_22h21.02.436,CRL1h,2023.2.3,Win32,59.95203837,65e67470ae2fbf2172c317b2,65e79a9c317a389bcc19727d,,,,,,,,,,,238.23,1.2,239.43,239.43,240.748,left,1,1.316,,240.748,241.749,2,4,36,2,1,total,1,images/Ex3.jpg,left,training,hard,1,,,,,
,,,,,64136457f1327294ffb3fef9,001,32,Male,British,BA Hons,2024-03-05_22h21.02.436,CRL1h,2023.2.3,Win32,59.95203837,65e67470ae2fbf2172c317b2,65e79a9c317a389bcc19727d,,,,,,,,,,,241.749,0.7,242.451,242.451,243.267,right,1,0.804,,243.267,244.268,2,5,37,7,1,total,1,images/Ex8.jpg,right,training,hard,1,,,,,
,,,,,64136457f1327294ffb3fef9,001,32,Male,British,BA Hons,2024-03-05_22h21.02.436,CRL1h,2023.2.3,Win32,59.95203837,65e67470ae2fbf2172c317b2,65e79a9c317a389bcc19727d,,,,,,,,,,,244.269,0.7,244.968,244.968,245.97,right,1,0.987,,245.97,246.97,2,6,38,4,1,total,1,images/Ex5.jpg,right,training,hard,1,,,,,
,,,,,64136457f1327294ffb3fef9,001,32,Male,British,BA Hons,2024-03-05_22h21.02.436,CRL1h,2023.2.3,Win32,59.95203837,65e67470ae2fbf2172c317b2,65e79a9c317a389bcc19727d,,,,,,,,,,,246.971,0.6,247.57,247.57,249.672,left,1,2.091,,249.672,250.673,2,7,39,8,1,total,1,images/Ex1.jpg,left,training,hard,1,,,,,
,,,,,64136457f1327294ffb3fef9,001,32,Male,British,BA Hons,2024-03-05_22h21.02.436,CRL1h,2023.2.3,Win32,59.95203837,65e67470ae2fbf2172c317b2,65e79a9c317a389bcc19727d,,,,,,,,,,,250.674,1,251.674,251.674,253.175,left,1,1.497,,253.175,254.175,2,8,40,9,1,total,1,images/Ex2.jpg,left,training,hard,1,,,,,
,,,,,64136457f1327294ffb3fef9,001,32,Male,British,BA Hons,2024-03-05_22h21.02.436,CRL1h,2023.2.3,Win32,59.95203837,65e67470ae2fbf2172c317b2,65e79a9c317a389bcc19727d,,,,,,,,,,,254.176,1,255.177,255.177,256.311,right,1,1.122,,256.311,257.312,2,9,41,15,1,total,1,images/Ex8.jpg,right,training,hard,1,,,,,
,,,,,64136457f1327294ffb3fef9,001,32,Male,British,BA Hons,2024-03-05_22h21.02.436,CRL1h,2023.2.3,Win32,59.95203837,65e67470ae2fbf2172c317b2,65e79a9c317a389bcc19727d,,,,,,,,,,,257.313,1.3,258.613,258.613,259.363,right,1,0.738,,259.363,260.364,2,10,42,12,1,total,1,images/Ex5.jpg,right,training,hard,1,,,,,
,,,,,64136457f1327294ffb3fef9,001,32,Male,British,BA Hons,2024-03-05_22h21.02.436,CRL1h,2023.2.3,Win32,59.95203837,65e67470ae2fbf2172c317b2,65e79a9c317a389bcc19727d,,,,,,,,,,,260.365,1.5,261.866,261.866,262.616,right,1,0.744,,262.616,263.617,2,11,43,6,1,total,1,images/Ex7.jpg,right,training,hard,1,,,,,
,,,,,64136457f1327294ffb3fef9,001,32,Male,British,BA Hons,2024-03-05_22h21.02.436,CRL1h,2023.2.3,Win32,59.95203837,65e67470ae2fbf2172c317b2,65e79a9c317a389bcc19727d,,,,,,,,,,,263.617,0.8,264.417,264.417,265.218,left,1,0.789,,265.219,266.219,2,12,44,10,1,total,1,images/Ex3.jpg,left,training,hard,1,,,,,
,,,,,64136457f1327294ffb3fef9,001,32,Male,British,BA Hons,2024-03-05_22h21.02.436,CRL1h,2023.2.3,Win32,59.95203837,65e67470ae2fbf2172c317b2,65e79a9c317a389bcc19727d,,,,,,,,,,,266.219,1.5,267.721,267.721,268.638,right,1,0.913,,268.638,269.639,2,13,45,14,1,total,1,images/Ex7.jpg,right,training,hard,1,,,,,
,,,,,64136457f1327294ffb3fef9,001,32,Male,British,BA Hons,2024-03-05_22h21.02.436,CRL1h,2023.2.3,Win32,59.95203837,65e67470ae2fbf2172c317b2,65e79a9c317a389bcc19727d,,,,,,,,,,,269.64,1.5,271.14,271.14,272.109,left,1,0.957,,272.11,273.109,2,14,46,0,1,total,1,images/Ex1.jpg,left,training,hard,1,,,,,
,,,,,64136457f1327294ffb3fef9,001,32,Male,British,BA Hons,2024-03-05_22h21.02.436,CRL1h,2023.2.3,Win32,59.95203837,65e67470ae2fbf2172c317b2,65e79a9c317a389bcc19727d,,,,,,,,,,,273.112,0.8,273.909,273.909,274.593,left,1,0.677,,274.593,275.593,2,15,47,11,1,total,1,images/Ex4.jpg,left,training,hard,1,,,,,
,,,,,64136457f1327294ffb3fef9,001,32,Male,British,BA Hons,2024-03-05_22h21.02.436,CRL1h,2023.2.3,Win32,59.95203837,65e67470ae2fbf2172c317b2,65e79a9c317a389bcc19727d,,,,,,,,,,,275.594,1.4,276.995,276.995,278.43,left,1,1.431,,278.43,279.43,3,0,48,1,1,total,1,images/Ex2.jpg,left,training,hard,1,,,,,
,,,,,64136457f1327294ffb3fef9,001,32,Male,British,BA Hons,2024-03-05_22h21.02.436,CRL1h,2023.2.3,Win32,59.95203837,65e67470ae2fbf2172c317b2,65e79a9c317a389bcc19727d,,,,,,,,,,,279.431,1.2,280.631,280.631,281.198,left,1,0.563,,281.198,282.199,3,1,49,11,1,total,1,images/Ex4.jpg,left,training,hard,1,,,,,
,,,,,64136457f1327294ffb3fef9,001,32,Male,British,BA Hons,2024-03-05_22h21.02.436,CRL1h,2023.2.3,Win32,59.95203837,65e67470ae2fbf2172c317b2,65e79a9c317a389bcc19727d,,,,,,,,,,,282.2,1.1,283.3,283.3,283.867,left,0,0.559,,283.868,284.868,3,2,50,5,1,total,1,images/Ex6.jpg,right,training,hard,1,,,,,
,,,,,64136457f1327294ffb3fef9,001,32,Male,British,BA Hons,2024-03-05_22h21.02.436,CRL1h,2023.2.3,Win32,59.95203837,65e67470ae2fbf2172c317b2,65e79a9c317a389bcc19727d,,,,,,,,,,,284.869,1,285.869,285.869,286.603,right,1,0.722,,286.603,287.604,3,3,51,14,1,total,1,images/Ex7.jpg,right,training,hard,1,,,,,
,,,,,64136457f1327294ffb3fef9,001,32,Male,British,BA Hons,2024-03-05_22h21.02.436,CRL1h,2023.2.3,Win32,59.95203837,65e67470ae2fbf2172c317b2,65e79a9c317a389bcc19727d,,,,,,,,,,,287.605,1.3,288.905,288.905,289.572,right,1,0.666,,289.572,290.573,3,4,52,7,1,total,1,images/Ex8.jpg,right,training,hard,1,,,,,
,,,,,64136457f1327294ffb3fef9,001,32,Male,British,BA Hons,2024-03-05_22h21.02.436,CRL1h,2023.2.3,Win32,59.95203837,65e67470ae2fbf2172c317b2,65e79a9c317a389bcc19727d,,,,,,,,,,,290.573,1.4,291.974,291.974,292.709,left,1,0.725,,292.709,293.709,3,5,53,8,1,total,1,images/Ex1.jpg,left,training,hard,1,,,,,
,,,,,64136457f1327294ffb3fef9,001,32,Male,British,BA Hons,2024-03-05_22h21.02.436,CRL1h,2023.2.3,Win32,59.95203837,65e67470ae2fbf2172c317b2,65e79a9c317a389bcc19727d,,,,,,,,,,,293.71,1,294.709,294.71,295.76,left,1,1.04,,295.76,296.761,3,6,54,10,1,total,1,images/Ex3.jpg,left,training,hard,1,,,,,
,,,,,64136457f1327294ffb3fef9,001,32,Male,British,BA Hons,2024-03-05_22h21.02.436,CRL1h,2023.2.3,Win32,59.95203837,65e67470ae2fbf2172c317b2,65e79a9c317a389bcc19727d,,,,,,,,,,,296.762,0.8,297.562,297.562,298.463,left,1,0.889,,298.463,299.464,3,7,55,0,1,total,1,images/Ex1.jpg,left,training,hard,1,,,,,
,,,,,64136457f1327294ffb3fef9,001,32,Male,British,BA Hons,2024-03-05_22h21.02.436,CRL1h,2023.2.3,Win32,59.95203837,65e67470ae2fbf2172c317b2,65e79a9c317a389bcc19727d,,,,,,,,,,,299.465,0.7,300.164,300.164,300.931,right,1,0.759,,300.931,301.932,3,8,56,4,1,total,1,images/Ex5.jpg,right,training,hard,1,,,,,
,,,,,64136457f1327294ffb3fef9,001,32,Male,British,BA Hons,2024-03-05_22h21.02.436,CRL1h,2023.2.3,Win32,59.95203837,65e67470ae2fbf2172c317b2,65e79a9c317a389bcc19727d,,,,,,,,,,,301.933,1.1,303.035,303.035,303.768,right,1,0.724,,303.768,304.769,3,9,57,13,1,total,1,images/Ex6.jpg,right,training,hard,1,,,,,
,,,,,64136457f1327294ffb3fef9,001,32,Male,British,BA Hons,2024-03-05_22h21.02.436,CRL1h,2023.2.3,Win32,59.95203837,65e67470ae2fbf2172c317b2,65e79a9c317a389bcc19727d,,,,,,,,,,,304.77,1.4,306.17,306.17,306.804,right,1,0.626,,306.804,307.804,3,10,58,6,1,total,1,images/Ex7.jpg,right,training,hard,1,,,,,
,,,,,64136457f1327294ffb3fef9,001,32,Male,British,BA Hons,2024-03-05_22h21.02.436,CRL1h,2023.2.3,Win32,59.95203837,65e67470ae2fbf2172c317b2,65e79a9c317a389bcc19727d,,,,,,,,,,,307.805,0.7,308.504,308.504,309.222,right,1,0.706,,309.222,310.223,3,11,59,15,1,total,1,images/Ex8.jpg,right,training,hard,1,,,,,
,,,,,64136457f1327294ffb3fef9,001,32,Male,British,BA Hons,2024-03-05_22h21.02.436,CRL1h,2023.2.3,Win32,59.95203837,65e67470ae2fbf2172c317b2,65e79a9c317a389bcc19727d,,,,,,,,,,,310.224,1.4,311.624,311.624,312.725,left,1,1.091,,312.725,313.726,3,12,60,9,1,total,1,images/Ex2.jpg,left,training,hard,1,,,,,
,,,,,64136457f1327294ffb3fef9,001,32,Male,British,BA Hons,2024-03-05_22h21.02.436,CRL1h,2023.2.3,Win32,59.95203837,65e67470ae2fbf2172c317b2,65e79a9c317a389bcc19727d,,,,,,,,,,,313.727,1.3,315.027,315.027,315.66,left,1,0.63,,315.66,316.661,3,13,61,2,1,total,1,images/Ex3.jpg,left,training,hard,1,,,,,
,,,,,64136457f1327294ffb3fef9,001,32,Male,British,BA Hons,2024-03-05_22h21.02.436,CRL1h,2023.2.3,Win32,59.95203837,65e67470ae2fbf2172c317b2,65e79a9c317a389bcc19727d,,,,,,,,,,,316.662,1.3,317.962,317.962,318.68,right,1,0.713,,318.68,319.68,3,14,62,12,1,total,1,images/Ex5.jpg,right,training,hard,1,,,,,
,,,,,64136457f1327294ffb3fef9,001,32,Male,British,BA Hons,2024-03-05_22h21.02.436,CRL1h,2023.2.3,Win32,59.95203837,65e67470ae2fbf2172c317b2,65e79a9c317a389bcc19727d,,,,,,,,,,,319.681,1.4,321.082,321.082,322.182,left,1,1.097,,322.183,323.183,3,15,63,3,1,total,1,images/Ex4.jpg,left,training,hard,1,,,,,
,,,,,64136457f1327294ffb3fef9,001,32,Male,British,BA Hons,2024-03-05_22h21.02.436,CRL1h,2023.2.3,Win32,59.95203837,65e67470ae2fbf2172c317b2,65e79a9c317a389bcc19727d,,,,,,,,,,,323.184,1.3,324.485,324.485,325.318,left,1,0.822,,325.319,326.32,4,0,64,1,1,total,1,images/Ex2.jpg,left,training,hard,1,,,,,
,,,,,64136457f1327294ffb3fef9,001,32,Male,British,BA Hons,2024-03-05_22h21.02.436,CRL1h,2023.2.3,Win32,59.95203837,65e67470ae2fbf2172c317b2,65e79a9c317a389bcc19727d,,,,,,,,,,,326.32,1.5,327.821,327.821,328.588,right,1,0.755,,328.588,329.59,4,1,65,12,1,total,1,images/Ex5.jpg,right,training,hard,1,,,,,
,,,,,64136457f1327294ffb3fef9,001,32,Male,British,BA Hons,2024-03-05_22h21.02.436,CRL1h,2023.2.3,Win32,59.95203837,65e67470ae2fbf2172c317b2,65e79a9c317a389bcc19727d,,,,,,,,,,,329.59,0.8,330.39,330.39,331.207,right,1,0.808,,331.207,332.207,4,2,66,13,1,total,1,images/Ex6.jpg,right,training,hard,1,,,,,
,,,,,64136457f1327294ffb3fef9,001,32,Male,British,BA Hons,2024-03-05_22h21.02.436,CRL1h,2023.2.3,Win32,59.95203837,65e67470ae2fbf2172c317b2,65e79a9c317a389bcc19727d,,,,,,,,,,,332.208,1.5,333.709,333.71,334.327,right,1,0.602,,334.327,335.327,4,3,67,14,1,total,1,images/Ex7.jpg,right,training,hard,1,,,,,
,,,,,64136457f1327294ffb3fef9,001,32,Male,British,BA Hons,2024-03-05_22h21.02.436,CRL1h,2023.2.3,Win32,59.95203837,65e67470ae2fbf2172c317b2,65e79a9c317a389bcc19727d,,,,,,,,,,,335.329,0.6,335.927,335.927,336.578,left,1,0.639,,336.578,337.579,4,4,68,2,1,total,1,images/Ex3.jpg,left,training,hard,1,,,,,
,,,,,64136457f1327294ffb3fef9,001,32,Male,British,BA Hons,2024-03-05_22h21.02.436,CRL1h,2023.2.3,Win32,59.95203837,65e67470ae2fbf2172c317b2,65e79a9c317a389bcc19727d,,,,,,,,,,,337.581,0.8,338.379,338.379,339.047,left,1,0.654,,339.047,340.048,4,5,69,0,1,total,1,images/Ex1.jpg,left,training,hard,1,,,,,
,,,,,64136457f1327294ffb3fef9,001,32,Male,British,BA Hons,2024-03-05_22h21.02.436,CRL1h,2023.2.3,Win32,59.95203837,65e67470ae2fbf2172c317b2,65e79a9c317a389bcc19727d,,,,,,,,,,,340.049,1,341.049,341.049,341.649,right,1,0.593,,341.649,342.65,4,6,70,4,1,total,1,images/Ex5.jpg,right,training,hard,1,,,,,
,,,,,64136457f1327294ffb3fef9,001,32,Male,British,BA Hons,2024-03-05_22h21.02.436,CRL1h,2023.2.3,Win32,59.95203837,65e67470ae2fbf2172c317b2,65e79a9c317a389bcc19727d,,,,,,,,,,,342.651,0.9,343.55,343.55,344.151,right,1,0.596,,344.151,345.152,4,7,71,15,1,total,1,images/Ex8.jpg,right,training,hard,1,,,,,
,,,,,64136457f1327294ffb3fef9,001,32,Male,British,BA Hons,2024-03-05_22h21.02.436,CRL1h,2023.2.3,Win32,59.95203837,65e67470ae2fbf2172c317b2,65e79a9c317a389bcc19727d,,,,,,,,,,,345.152,0.9,346.053,346.053,346.67,left,1,0.605,,346.67,347.671,4,8,72,10,1,total,1,images/Ex3.jpg,left,training,hard,1,,,,,
,,,,,64136457f1327294ffb3fef9,001,32,Male,British,BA Hons,2024-03-05_22h21.02.436,CRL1h,2023.2.3,Win32,59.95203837,65e67470ae2fbf2172c317b2,65e79a9c317a389bcc19727d,,,,,,,,,,,347.672,1,348.672,348.672,349.255,right,1,0.579,,349.255,350.256,4,9,73,7,1,total,1,images/Ex8.jpg,right,training,hard,1,,,,,
,,,,,64136457f1327294ffb3fef9,001,32,Male,British,BA Hons,2024-03-05_22h21.02.436,CRL1h,2023.2.3,Win32,59.95203837,65e67470ae2fbf2172c317b2,65e79a9c317a389bcc19727d,,,,,,,,,,,350.257,0.8,351.057,351.057,351.624,left,1,0.555,,351.624,352.625,4,10,74,11,1,total,1,images/Ex4.jpg,left,training,hard,1,,,,,
,,,,,64136457f1327294ffb3fef9,001,32,Male,British,BA Hons,2024-03-05_22h21.02.436,CRL1h,2023.2.3,Win32,59.95203837,65e67470ae2fbf2172c317b2,65e79a9c317a389bcc19727d,,,,,,,,,,,352.626,0.9,353.526,353.526,354.127,left,1,0.589,,354.127,355.127,4,11,75,8,1,total,1,images/Ex1.jpg,left,training,hard,1,,,,,
,,,,,64136457f1327294ffb3fef9,001,32,Male,British,BA Hons,2024-03-05_22h21.02.436,CRL1h,2023.2.3,Win32,59.95203837,65e67470ae2fbf2172c317b2,65e79a9c317a389bcc19727d,,,,,,,,,,,355.128,1,356.128,356.128,356.845,right,1,0.707,,356.845,357.846,4,12,76,5,1,total,1,images/Ex6.jpg,right,training,hard,1,,,,,
,,,,,64136457f1327294ffb3fef9,001,32,Male,British,BA Hons,2024-03-05_22h21.02.436,CRL1h,2023.2.3,Win32,59.95203837,65e67470ae2fbf2172c317b2,65e79a9c317a389bcc19727d,,,,,,,,,,,357.846,0.6,358.446,358.446,359.08,left,1,0.622,,359.08,360.081,4,13,77,9,1,total,1,images/Ex2.jpg,left,training,hard,1,,,,,
,,,,,64136457f1327294ffb3fef9,001,32,Male,British,BA Hons,2024-03-05_22h21.02.436,CRL1h,2023.2.3,Win32,59.95203837,65e67470ae2fbf2172c317b2,65e79a9c317a389bcc19727d,,,,,,,,,,,360.081,0.9,360.981,360.981,361.532,right,1,0.541,,361.532,362.533,4,14,78,6,1,total,1,images/Ex7.jpg,right,training,hard,1,,,,,
,,,,,64136457f1327294ffb3fef9,001,32,Male,British,BA Hons,2024-03-05_22h21.02.436,CRL1h,2023.2.3,Win32,59.95203837,65e67470ae2fbf2172c317b2,65e79a9c317a389bcc19727d,,,,,,,,,,,362.534,1.1,363.635,363.635,364.218,left,1,0.571,,364.218,365.218,4,15,79,3,1,total,1,images/Ex4.jpg,left,training,hard,1,,,,,
,,,,,64136457f1327294ffb3fef9,001,32,Male,British,BA Hons,2024-03-05_22h21.02.436,CRL1h,2023.2.3,Win32,59.95203837,65e67470ae2fbf2172c317b2,65e79a9c317a389bcc19727d,,,,,,,,,,,365.22,1,366.219,366.22,366.803,left,1,0.572,,366.803,367.804,5,0,80,2,1,total,1,images/Ex3.jpg,left,training,hard,1,,,,,
,,,,,64136457f1327294ffb3fef9,001,32,Male,British,BA Hons,2024-03-05_22h21.02.436,CRL1h,2023.2.3,Win32,59.95203837,65e67470ae2fbf2172c317b2,65e79a9c317a389bcc19727d,,,,,,,,,,,367.805,1.4,369.205,369.205,369.773,left,1,0.556,,369.773,370.773,5,1,81,3,1,total,1,images/Ex4.jpg,left,training,hard,1,,,,,
,,,,,64136457f1327294ffb3fef9,001,32,Male,British,BA Hons,2024-03-05_22h21.02.436,CRL1h,2023.2.3,Win32,59.95203837,65e67470ae2fbf2172c317b2,65e79a9c317a389bcc19727d,,,,,,,,,,,370.774,0.8,371.574,371.575,372.157,left,1,0.572,,372.158,373.159,5,2,82,10,1,total,1,images/Ex3.jpg,left,training,hard,1,,,,,
,,,,,64136457f1327294ffb3fef9,001,32,Male,British,BA Hons,2024-03-05_22h21.02.436,CRL1h,2023.2.3,Win32,59.95203837,65e67470ae2fbf2172c317b2,65e79a9c317a389bcc19727d,,,,,,,,,,,373.16,1.3,374.46,374.46,375.044,left,1,0.574,,375.044,376.044,5,3,83,11,1,total,1,images/Ex4.jpg,left,training,hard,1,,,,,
,,,,,64136457f1327294ffb3fef9,001,32,Male,British,BA Hons,2024-03-05_22h21.02.436,CRL1h,2023.2.3,Win32,59.95203837,65e67470ae2fbf2172c317b2,65e79a9c317a389bcc19727d,,,,,,,,,,,376.046,1.4,377.445,377.445,377.912,right,1,0.455,,377.912,378.914,5,4,84,15,1,total,1,images/Ex8.jpg,right,training,hard,1,,,,,
,,,,,64136457f1327294ffb3fef9,001,32,Male,British,BA Hons,2024-03-05_22h21.02.436,CRL1h,2023.2.3,Win32,59.95203837,65e67470ae2fbf2172c317b2,65e79a9c317a389bcc19727d,,,,,,,,,,,378.914,0.8,379.714,379.714,380.315,left,1,0.589,,380.315,381.315,5,5,85,0,1,total,1,images/Ex1.jpg,left,training,hard,1,,,,,
,,,,,64136457f1327294ffb3fef9,001,32,Male,British,BA Hons,2024-03-05_22h21.02.436,CRL1h,2023.2.3,Win32,59.95203837,65e67470ae2fbf2172c317b2,65e79a9c317a389bcc19727d,,,,,,,,,,,381.317,0.6,381.916,381.916,382.5,right,1,0.574,,382.5,383.5,5,6,86,4,1,total,1,images/Ex5.jpg,right,training,hard,1,,,,,
,,,,,64136457f1327294ffb3fef9,001,32,Male,British,BA Hons,2024-03-05_22h21.02.436,CRL1h,2023.2.3,Win32,59.95203837,65e67470ae2fbf2172c317b2,65e79a9c317a389bcc19727d,,,,,,,,,,,383.501,1.3,384.802,384.802,385.403,left,1,0.592,,385.403,386.403,5,7,87,8,1,total,1,images/Ex1.jpg,left,training,hard,1,,,,,
,,,,,64136457f1327294ffb3fef9,001,32,Male,British,BA Hons,2024-03-05_22h21.02.436,CRL1h,2023.2.3,Win32,59.95203837,65e67470ae2fbf2172c317b2,65e79a9c317a389bcc19727d,,,,,,,,,,,386.404,1.4,387.804,387.804,388.355,right,1,0.544,,388.355,389.355,5,8,88,6,1,total,1,images/Ex7.jpg,right,training,hard,1,,,,,
,,,,,64136457f1327294ffb3fef9,001,32,Male,British,BA Hons,2024-03-05_22h21.02.436,CRL1h,2023.2.3,Win32,59.95203837,65e67470ae2fbf2172c317b2,65e79a9c317a389bcc19727d,,,,,,,,,,,389.357,1.5,390.857,390.857,391.474,right,1,0.606,,391.474,392.475,5,9,89,14,1,total,1,images/Ex7.jpg,right,training,hard,1,,,,,
,,,,,64136457f1327294ffb3fef9,001,32,Male,British,BA Hons,2024-03-05_22h21.02.436,CRL1h,2023.2.3,Win32,59.95203837,65e67470ae2fbf2172c317b2,65e79a9c317a389bcc19727d,,,,,,,,,,,392.476,0.7,393.175,393.175,393.976,right,1,0.787,,393.976,394.977,5,10,90,13,1,total,1,images/Ex6.jpg,right,training,hard,1,,,,,
,,,,,64136457f1327294ffb3fef9,001,32,Male,British,BA Hons,2024-03-05_22h21.02.436,CRL1h,2023.2.3,Win32,59.95203837,65e67470ae2fbf2172c317b2,65e79a9c317a389bcc19727d,,,,,,,,,,,394.978,1.4,396.379,396.379,396.945,right,1,0.561,,396.945,397.947,5,11,91,5,1,total,1,images/Ex6.jpg,right,training,hard,1,,,,,
,,,,,64136457f1327294ffb3fef9,001,32,Male,British,BA Hons,2024-03-05_22h21.02.436,CRL1h,2023.2.3,Win32,59.95203837,65e67470ae2fbf2172c317b2,65e79a9c317a389bcc19727d,,,,,,,,,,,397.951,0.8,398.747,398.747,399.398,left,1,0.647,,399.398,400.398,5,12,92,9,1,total,1,images/Ex2.jpg,left,training,hard,1,,,,,
,,,,,64136457f1327294ffb3fef9,001,32,Male,British,BA Hons,2024-03-05_22h21.02.436,CRL1h,2023.2.3,Win32,59.95203837,65e67470ae2fbf2172c317b2,65e79a9c317a389bcc19727d,,,,,,,,,,,400.399,0.9,401.299,401.299,401.85,right,1,0.538,,401.85,402.85,5,13,93,7,1,total,1,images/Ex8.jpg,right,training,hard,1,,,,,
,,,,,64136457f1327294ffb3fef9,001,32,Male,British,BA Hons,2024-03-05_22h21.02.436,CRL1h,2023.2.3,Win32,59.95203837,65e67470ae2fbf2172c317b2,65e79a9c317a389bcc19727d,,,,,,,,,,,402.851,1,403.851,403.851,404.551,right,1,0.69,,404.552,405.553,5,14,94,12,1,total,1,images/Ex5.jpg,right,training,hard,1,,,,,
,,,,,64136457f1327294ffb3fef9,001,32,Male,British,BA Hons,2024-03-05_22h21.02.436,CRL1h,2023.2.3,Win32,59.95203837,65e67470ae2fbf2172c317b2,65e79a9c317a389bcc19727d,,,,,,,,,,,405.554,1.5,407.054,407.054,407.805,left,1,0.741,,407.805,408.805,5,15,95,1,1,total,1,images/Ex2.jpg,left,training,hard,1,,,,,
,,,,,64136457f1327294ffb3fef9,001,32,Male,British,BA Hons,2024-03-05_22h21.02.436,CRL1h,2023.2.3,Win32,59.95203837,65e67470ae2fbf2172c317b2,65e79a9c317a389bcc19727d,,,,,,,,,,,408.806,1.5,410.306,410.306,410.907,right,1,0.592,,410.908,411.908,6,0,96,5,1,total,1,images/Ex6.jpg,right,training,hard,1,,,,,
,,,,,64136457f1327294ffb3fef9,001,32,Male,British,BA Hons,2024-03-05_22h21.02.436,CRL1h,2023.2.3,Win32,59.95203837,65e67470ae2fbf2172c317b2,65e79a9c317a389bcc19727d,,,,,,,,,,,411.91,1.3,413.209,413.209,413.726,left,1,0.504,,413.726,414.727,6,1,97,11,1,total,1,images/Ex4.jpg,left,training,hard,1,,,,,
,,,,,64136457f1327294ffb3fef9,001,32,Male,British,BA Hons,2024-03-05_22h21.02.436,CRL1h,2023.2.3,Win32,59.95203837,65e67470ae2fbf2172c317b2,65e79a9c317a389bcc19727d,,,,,,,,,,,414.728,0.8,415.527,415.527,416.028,left,1,0.491,,416.028,417.029,6,2,98,2,1,total,1,images/Ex3.jpg,left,training,hard,1,,,,,
,,,,,64136457f1327294ffb3fef9,001,32,Male,British,BA Hons,2024-03-05_22h21.02.436,CRL1h,2023.2.3,Win32,59.95203837,65e67470ae2fbf2172c317b2,65e79a9c317a389bcc19727d,,,,,,,,,,,417.03,0.6,417.63,417.63,418.313,right,1,0.678,,418.313,419.313,6,3,99,15,1,total,1,images/Ex8.jpg,right,training,hard,1,,,,,
,,,,,64136457f1327294ffb3fef9,001,32,Male,British,BA Hons,2024-03-05_22h21.02.436,CRL1h,2023.2.3,Win32,59.95203837,65e67470ae2fbf2172c317b2,65e79a9c317a389bcc19727d,,,,,,,,,,,419.314,0.9,420.215,420.215,420.915,left,1,0.69,,420.915,421.916,6,4,100,1,1,total,1,images/Ex2.jpg,left,training,hard,1,,,,,
,,,,,64136457f1327294ffb3fef9,001,32,Male,British,BA Hons,2024-03-05_22h21.02.436,CRL1h,2023.2.3,Win32,59.95203837,65e67470ae2fbf2172c317b2,65e79a9c317a389bcc19727d,,,,,,,,,,,421.917,1.5,423.417,423.417,423.951,left,1,0.529,,423.951,424.952,6,5,101,10,1,total,1,images/Ex3.jpg,left,training,hard,1,,,,,
,,,,,64136457f1327294ffb3fef9,001,32,Male,British,BA Hons,2024-03-05_22h21.02.436,CRL1h,2023.2.3,Win32,59.95203837,65e67470ae2fbf2172c317b2,65e79a9c317a389bcc19727d,,,,,,,,,,,424.953,1.2,426.153,426.153,426.704,left,1,0.539,,426.704,427.705,6,6,102,8,1,total,1,images/Ex1.jpg,left,training,hard,1,,,,,
,,,,,64136457f1327294ffb3fef9,001,32,Male,British,BA Hons,2024-03-05_22h21.02.436,CRL1h,2023.2.3,Win32,59.95203837,65e67470ae2fbf2172c317b2,65e79a9c317a389bcc19727d,,,,,,,,,,,427.709,1,428.705,428.705,429.206,right,1,0.488,,429.206,430.207,6,7,103,14,1,total,1,images/Ex7.jpg,right,training,hard,1,,,,,
,,,,,64136457f1327294ffb3fef9,001,32,Male,British,BA Hons,2024-03-05_22h21.02.436,CRL1h,2023.2.3,Win32,59.95203837,65e67470ae2fbf2172c317b2,65e79a9c317a389bcc19727d,,,,,,,,,,,430.207,1.1,431.307,431.307,432.008,right,1,0.695,,432.008,433.009,6,8,104,13,1,total,1,images/Ex6.jpg,right,training,hard,1,,,,,
,,,,,64136457f1327294ffb3fef9,001,32,Male,British,BA Hons,2024-03-05_22h21.02.436,CRL1h,2023.2.3,Win32,59.95203837,65e67470ae2fbf2172c317b2,65e79a9c317a389bcc19727d,,,,,,,,,,,433.009,0.6,433.61,433.61,434.21,right,1,0.593,,434.21,435.21,6,9,105,7,1,total,1,images/Ex8.jpg,right,training,hard,1,,,,,
,,,,,64136457f1327294ffb3fef9,001,32,Male,British,BA Hons,2024-03-05_22h21.02.436,CRL1h,2023.2.3,Win32,59.95203837,65e67470ae2fbf2172c317b2,65e79a9c317a389bcc19727d,,,,,,,,,,,435.211,1,436.211,436.211,436.761,right,1,0.539,,436.762,437.763,6,10,106,12,1,total,1,images/Ex5.jpg,right,training,hard,1,,,,,
,,,,,64136457f1327294ffb3fef9,001,32,Male,British,BA Hons,2024-03-05_22h21.02.436,CRL1h,2023.2.3,Win32,59.95203837,65e67470ae2fbf2172c317b2,65e79a9c317a389bcc19727d,,,,,,,,,,,437.763,1.1,438.863,438.863,439.381,left,0,0.516,,439.381,440.382,6,11,107,4,1,total,1,images/Ex5.jpg,right,training,hard,1,,,,,
,,,,,64136457f1327294ffb3fef9,001,32,Male,British,BA Hons,2024-03-05_22h21.02.436,CRL1h,2023.2.3,Win32,59.95203837,65e67470ae2fbf2172c317b2,65e79a9c317a389bcc19727d,,,,,,,,,,,440.383,0.7,441.082,441.082,441.699,left,1,0.605,,441.699,442.7,6,12,108,0,1,total,1,images/Ex1.jpg,left,training,hard,1,,,,,
,,,,,64136457f1327294ffb3fef9,001,32,Male,British,BA Hons,2024-03-05_22h21.02.436,CRL1h,2023.2.3,Win32,59.95203837,65e67470ae2fbf2172c317b2,65e79a9c317a389bcc19727d,,,,,,,,,,,442.701,1.1,443.801,443.801,444.435,left,1,0.622,,444.435,445.435,6,13,109,9,1,total,1,images/Ex2.jpg,left,training,hard,1,,,,,
,,,,,64136457f1327294ffb3fef9,001,32,Male,British,BA Hons,2024-03-05_22h21.02.436,CRL1h,2023.2.3,Win32,59.95203837,65e67470ae2fbf2172c317b2,65e79a9c317a389bcc19727d,,,,,,,,,,,445.438,0.5,445.936,445.936,446.537,left,1,0.589,,446.537,447.538,6,14,110,3,1,total,1,images/Ex4.jpg,left,training,hard,1,,,,,
,,,,,64136457f1327294ffb3fef9,001,32,Male,British,BA Hons,2024-03-05_22h21.02.436,CRL1h,2023.2.3,Win32,59.95203837,65e67470ae2fbf2172c317b2,65e79a9c317a389bcc19727d,,,,,,,,,,,447.538,1,448.539,448.539,449.122,right,1,0.575,,449.123,450.123,6,15,111,6,1,total,1,images/Ex7.jpg,right,training,hard,1,,,,,
,,,,,64136457f1327294ffb3fef9,001,32,Male,British,BA Hons,2024-03-05_22h21.02.436,CRL1h,2023.2.3,Win32,59.95203837,65e67470ae2fbf2172c317b2,65e79a9c317a389bcc19727d,,,,,,,,,,,450.124,1.2,451.324,451.324,451.957,left,1,0.622,,451.958,452.958,7,0,112,1,1,total,1,images/Ex2.jpg,left,training,hard,1,,,,,
,,,,,64136457f1327294ffb3fef9,001,32,Male,British,BA Hons,2024-03-05_22h21.02.436,CRL1h,2023.2.3,Win32,59.95203837,65e67470ae2fbf2172c317b2,65e79a9c317a389bcc19727d,,,,,,,,,,,452.959,0.8,453.759,453.759,454.527,right,1,0.756,,454.527,455.527,7,1,113,15,1,total,1,images/Ex8.jpg,right,training,hard,1,,,,,
,,,,,64136457f1327294ffb3fef9,001,32,Male,British,BA Hons,2024-03-05_22h21.02.436,CRL1h,2023.2.3,Win32,59.95203837,65e67470ae2fbf2172c317b2,65e79a9c317a389bcc19727d,,,,,,,,,,,455.528,0.9,456.428,456.428,457.046,left,1,0.606,,457.046,458.047,7,2,114,2,1,total,1,images/Ex3.jpg,left,training,hard,1,,,,,
,,,,,64136457f1327294ffb3fef9,001,32,Male,British,BA Hons,2024-03-05_22h21.02.436,CRL1h,2023.2.3,Win32,59.95203837,65e67470ae2fbf2172c317b2,65e79a9c317a389bcc19727d,,,,,,,,,,,458.051,0.7,458.747,458.747,459.298,left,1,0.543,,459.298,460.299,7,3,115,11,1,total,1,images/Ex4.jpg,left,training,hard,1,,,,,
,,,,,64136457f1327294ffb3fef9,001,32,Male,British,BA Hons,2024-03-05_22h21.02.436,CRL1h,2023.2.3,Win32,59.95203837,65e67470ae2fbf2172c317b2,65e79a9c317a389bcc19727d,,,,,,,,,,,460.299,1.3,461.6,461.6,462.117,left,0,0.507,,462.117,463.117,7,4,116,5,1,total,1,images/Ex6.jpg,right,training,hard,1,,,,,
,,,,,64136457f1327294ffb3fef9,001,32,Male,British,BA Hons,2024-03-05_22h21.02.436,CRL1h,2023.2.3,Win32,59.95203837,65e67470ae2fbf2172c317b2,65e79a9c317a389bcc19727d,,,,,,,,,,,463.118,0.6,463.718,463.718,464.302,left,1,0.573,,464.302,465.303,7,5,117,10,1,total,1,images/Ex3.jpg,left,training,hard,1,,,,,
,,,,,64136457f1327294ffb3fef9,001,32,Male,British,BA Hons,2024-03-05_22h21.02.436,CRL1h,2023.2.3,Win32,59.95203837,65e67470ae2fbf2172c317b2,65e79a9c317a389bcc19727d,,,,,,,,,,,465.303,1.4,466.704,466.704,467.305,left,1,0.59,,467.305,468.305,7,6,118,3,1,total,1,images/Ex4.jpg,left,training,hard,1,,,,,
,,,,,64136457f1327294ffb3fef9,001,32,Male,British,BA Hons,2024-03-05_22h21.02.436,CRL1h,2023.2.3,Win32,59.95203837,65e67470ae2fbf2172c317b2,65e79a9c317a389bcc19727d,,,,,,,,,,,468.306,1,469.305,469.306,469.989,right,1,0.681,,469.989,470.991,7,7,119,4,1,total,1,images/Ex5.jpg,right,training,hard,1,,,,,
,,,,,64136457f1327294ffb3fef9,001,32,Male,British,BA Hons,2024-03-05_22h21.02.436,CRL1h,2023.2.3,Win32,59.95203837,65e67470ae2fbf2172c317b2,65e79a9c317a389bcc19727d,,,,,,,,,,,470.992,0.6,471.591,471.591,472.291,left,1,0.691,,472.291,473.292,7,8,120,9,1,total,1,images/Ex2.jpg,left,training,hard,1,,,,,
,,,,,64136457f1327294ffb3fef9,001,32,Male,British,BA Hons,2024-03-05_22h21.02.436,CRL1h,2023.2.3,Win32,59.95203837,65e67470ae2fbf2172c317b2,65e79a9c317a389bcc19727d,,,,,,,,,,,473.293,0.7,473.993,473.994,474.527,left,1,0.53,,474.527,475.528,7,9,121,0,1,total,1,images/Ex1.jpg,left,training,hard,1,,,,,
,,,,,64136457f1327294ffb3fef9,001,32,Male,British,BA Hons,2024-03-05_22h21.02.436,CRL1h,2023.2.3,Win32,59.95203837,65e67470ae2fbf2172c317b2,65e79a9c317a389bcc19727d,,,,,,,,,,,475.529,1.1,476.629,476.629,477.229,right,1,0.598,,477.229,478.23,7,10,122,13,1,total,1,images/Ex6.jpg,right,training,hard,1,,,,,
,,,,,64136457f1327294ffb3fef9,001,32,Male,British,BA Hons,2024-03-05_22h21.02.436,CRL1h,2023.2.3,Win32,59.95203837,65e67470ae2fbf2172c317b2,65e79a9c317a389bcc19727d,,,,,,,,,,,478.231,0.9,479.131,479.131,479.731,right,1,0.592,,479.731,480.732,7,11,123,12,1,total,1,images/Ex5.jpg,right,training,hard,1,,,,,
,,,,,64136457f1327294ffb3fef9,001,32,Male,British,BA Hons,2024-03-05_22h21.02.436,CRL1h,2023.2.3,Win32,59.95203837,65e67470ae2fbf2172c317b2,65e79a9c317a389bcc19727d,,,,,,,,,,,480.732,1,481.733,481.733,482.366,left,1,0.631,,482.366,483.367,7,12,124,8,1,total,1,images/Ex1.jpg,left,training,hard,1,,,,,
,,,,,64136457f1327294ffb3fef9,001,32,Male,British,BA Hons,2024-03-05_22h21.02.436,CRL1h,2023.2.3,Win32,59.95203837,65e67470ae2fbf2172c317b2,65e79a9c317a389bcc19727d,,,,,,,,,,,483.368,1.2,484.568,484.568,485.153,right,1,0.573,,485.153,486.153,7,13,125,14,1,total,1,images/Ex7.jpg,right,training,hard,1,,,,,
,,,,,64136457f1327294ffb3fef9,001,32,Male,British,BA Hons,2024-03-05_22h21.02.436,CRL1h,2023.2.3,Win32,59.95203837,65e67470ae2fbf2172c317b2,65e79a9c317a389bcc19727d,,,,,,,,,,,486.154,1,487.154,487.154,487.806,right,1,0.649,,487.807,488.805,7,14,126,7,1,total,1,images/Ex8.jpg,right,training,hard,1,,,,,
,,,,,64136457f1327294ffb3fef9,001,32,Male,British,BA Hons,2024-03-05_22h21.02.436,CRL1h,2023.2.3,Win32,59.95203837,65e67470ae2fbf2172c317b2,65e79a9c317a389bcc19727d,,,,,,,,,,,488.808,1.3,490.107,490.107,490.724,right,1,0.607,,490.724,491.725,7,15,127,6,1,total,1,images/Ex7.jpg,right,training,hard,1,,,,,
,,,,,64136457f1327294ffb3fef9,001,32,Male,British,BA Hons,2024-03-05_22h21.02.436,CRL1h,2023.2.3,Win32,59.95203837,65e67470ae2fbf2172c317b2,65e79a9c317a389bcc19727d,,,,,,,,,,,491.736,1.5,493.225,493.225,494.01,right,0,0.776,,494.01,495.011,0,0,0,5,1,total,2,images/Ex6.jpg,left,reversed,hard,1,,,,,
,,,,,64136457f1327294ffb3fef9,001,32,Male,British,BA Hons,2024-03-05_22h21.02.436,CRL1h,2023.2.3,Win32,59.95203837,65e67470ae2fbf2172c317b2,65e79a9c317a389bcc19727d,,,,,,,,,,,495.011,1.1,496.112,496.112,496.912,left,0,0.789,,496.912,497.913,0,1,1,11,1,total,2,images/Ex4.jpg,right,reversed,hard,1,,,,,
,,,,,64136457f1327294ffb3fef9,001,32,Male,British,BA Hons,2024-03-05_22h21.02.436,CRL1h,2023.2.3,Win32,59.95203837,65e67470ae2fbf2172c317b2,65e79a9c317a389bcc19727d,,,,,,,,,,,497.914,0.7,498.614,498.614,501.099,left,1,2.473,,501.099,502.1,0,2,2,12,1,total,2,images/Ex5.jpg,left,reversed,hard,1,,,,,
,,,,,64136457f1327294ffb3fef9,001,32,Male,British,BA Hons,2024-03-05_22h21.02.436,CRL1h,2023.2.3,Win32,59.95203837,65e67470ae2fbf2172c317b2,65e79a9c317a389bcc19727d,,,,,,,,,,,502.101,0.6,502.7,502.7,503.618,right,1,0.906,,503.618,504.618,0,3,3,8,1,total,2,images/Ex1.jpg,right,reversed,hard,1,,,,,
,,,,,64136457f1327294ffb3fef9,001,32,Male,British,BA Hons,2024-03-05_22h21.02.436,CRL1h,2023.2.3,Win32,59.95203837,65e67470ae2fbf2172c317b2,65e79a9c317a389bcc19727d,,,,,,,,,,,504.62,1.3,505.919,505.919,507.138,left,1,1.21,,507.138,508.138,0,4,4,15,1,total,2,images/Ex8.jpg,left,reversed,hard,1,,,,,
,,,,,64136457f1327294ffb3fef9,001,32,Male,British,BA Hons,2024-03-05_22h21.02.436,CRL1h,2023.2.3,Win32,59.95203837,65e67470ae2fbf2172c317b2,65e79a9c317a389bcc19727d,,,,,,,,,,,508.139,1.5,509.64,509.64,510.657,right,1,1.011,,510.657,511.658,0,5,5,9,1,total,2,images/Ex2.jpg,right,reversed,hard,1,,,,,
,,,,,64136457f1327294ffb3fef9,001,32,Male,British,BA Hons,2024-03-05_22h21.02.436,CRL1h,2023.2.3,Win32,59.95203837,65e67470ae2fbf2172c317b2,65e79a9c317a389bcc19727d,,,,,,,,,,,511.659,1.1,512.759,512.759,513.526,right,1,0.764,,513.526,514.527,0,6,6,3,1,total,2,images/Ex4.jpg,right,reversed,hard,1,,,,,
,,,,,64136457f1327294ffb3fef9,001,32,Male,British,BA Hons,2024-03-05_22h21.02.436,CRL1h,2023.2.3,Win32,59.95203837,65e67470ae2fbf2172c317b2,65e79a9c317a389bcc19727d,,,,,,,,,,,514.529,1.4,515.928,515.928,516.745,left,1,0.81,,516.745,517.746,0,7,7,13,1,total,2,images/Ex6.jpg,left,reversed,hard,1,,,,,
,,,,,64136457f1327294ffb3fef9,001,32,Male,British,BA Hons,2024-03-05_22h21.02.436,CRL1h,2023.2.3,Win32,59.95203837,65e67470ae2fbf2172c317b2,65e79a9c317a389bcc19727d,,,,,,,,,,,517.749,1.2,518.947,518.947,519.682,right,1,0.726,,519.682,520.682,0,8,8,0,1,total,2,images/Ex1.jpg,right,reversed,hard,1,,,,,
,,,,,64136457f1327294ffb3fef9,001,32,Male,British,BA Hons,2024-03-05_22h21.02.436,CRL1h,2023.2.3,Win32,59.95203837,65e67470ae2fbf2172c317b2,65e79a9c317a389bcc19727d,,,,,,,,,,,520.683,0.7,521.382,521.383,522.216,left,1,0.828,,522.217,523.217,0,9,9,6,1,total,2,images/Ex7.jpg,left,reversed,hard,1,,,,,
,,,,,64136457f1327294ffb3fef9,001,32,Male,British,BA Hons,2024-03-05_22h21.02.436,CRL1h,2023.2.3,Win32,59.95203837,65e67470ae2fbf2172c317b2,65e79a9c317a389bcc19727d,,,,,,,,,,,523.219,0.7,523.918,523.918,525.736,left,1,1.812,,525.736,526.737,0,10,10,4,1,total,2,images/Ex5.jpg,left,reversed,hard,1,,,,,
,,,,,64136457f1327294ffb3fef9,001,32,Male,British,BA Hons,2024-03-05_22h21.02.436,CRL1h,2023.2.3,Win32,59.95203837,65e67470ae2fbf2172c317b2,65e79a9c317a389bcc19727d,,,,,,,,,,,526.738,1,527.738,527.738,528.522,left,1,0.776,,528.522,529.523,0,11,11,14,1,total,2,images/Ex7.jpg,left,reversed,hard,1,,,,,
,,,,,64136457f1327294ffb3fef9,001,32,Male,British,BA Hons,2024-03-05_22h21.02.436,CRL1h,2023.2.3,Win32,59.95203837,65e67470ae2fbf2172c317b2,65e79a9c317a389bcc19727d,,,,,,,,,,,529.523,1.2,530.724,530.724,531.524,right,1,0.79,,531.525,532.525,0,12,12,10,1,total,2,images/Ex3.jpg,right,reversed,hard,1,,,,,
,,,,,64136457f1327294ffb3fef9,001,32,Male,British,BA Hons,2024-03-05_22h21.02.436,CRL1h,2023.2.3,Win32,59.95203837,65e67470ae2fbf2172c317b2,65e79a9c317a389bcc19727d,,,,,,,,,,,532.527,0.5,533.026,533.026,534.077,left,0,1.049,,534.077,535.077,0,13,13,1,1,total,2,images/Ex2.jpg,right,reversed,hard,1,,,,,
,,,,,64136457f1327294ffb3fef9,001,32,Male,British,BA Hons,2024-03-05_22h21.02.436,CRL1h,2023.2.3,Win32,59.95203837,65e67470ae2fbf2172c317b2,65e79a9c317a389bcc19727d,,,,,,,,,,,535.078,1.4,536.479,536.479,537.163,right,1,0.673,,537.163,538.163,0,14,14,2,1,total,2,images/Ex3.jpg,right,reversed,hard,1,,,,,
,,,,,64136457f1327294ffb3fef9,001,32,Male,British,BA Hons,2024-03-05_22h21.02.436,CRL1h,2023.2.3,Win32,59.95203837,65e67470ae2fbf2172c317b2,65e79a9c317a389bcc19727d,,,,,,,,,,,538.164,0.9,539.064,539.064,542.634,left,1,3.557,,542.634,543.634,0,15,15,7,1,total,2,images/Ex8.jpg,left,reversed,hard,1,,,,,
,,,,,64136457f1327294ffb3fef9,001,32,Male,British,BA Hons,2024-03-05_22h21.02.436,CRL1h,2023.2.3,Win32,59.95203837,65e67470ae2fbf2172c317b2,65e79a9c317a389bcc19727d,,,,,,,,,,,543.635,0.9,544.535,544.535,545.653,left,1,1.117,,545.653,546.654,1,0,16,4,1,total,2,images/Ex5.jpg,left,reversed,hard,1,,,,,
,,,,,64136457f1327294ffb3fef9,001,32,Male,British,BA Hons,2024-03-05_22h21.02.436,CRL1h,2023.2.3,Win32,59.95203837,65e67470ae2fbf2172c317b2,65e79a9c317a389bcc19727d,,,,,,,,,,,546.655,0.6,547.254,547.254,547.855,left,1,0.597,,547.855,548.856,1,1,17,12,1,total,2,images/Ex5.jpg,left,reversed,hard,1,,,,,
,,,,,64136457f1327294ffb3fef9,001,32,Male,British,BA Hons,2024-03-05_22h21.02.436,CRL1h,2023.2.3,Win32,59.95203837,65e67470ae2fbf2172c317b2,65e79a9c317a389bcc19727d,,,,,,,,,,,548.857,0.5,549.356,549.356,549.973,right,1,0.608,,549.973,550.974,1,2,18,0,1,total,2,images/Ex1.jpg,right,reversed,hard,1,,,,,
,,,,,64136457f1327294ffb3fef9,001,32,Male,British,BA Hons,2024-03-05_22h21.02.436,CRL1h,2023.2.3,Win32,59.95203837,65e67470ae2fbf2172c317b2,65e79a9c317a389bcc19727d,,,,,,,,,,,550.974,1.3,552.276,552.277,552.877,right,1,0.584,,552.877,553.876,1,3,19,2,1,total,2,images/Ex3.jpg,right,reversed,hard,1,,,,,
,,,,,64136457f1327294ffb3fef9,001,32,Male,British,BA Hons,2024-03-05_22h21.02.436,CRL1h,2023.2.3,Win32,59.95203837,65e67470ae2fbf2172c317b2,65e79a9c317a389bcc19727d,,,,,,,,,,,553.878,0.9,554.777,554.777,555.478,right,1,0.698,,555.478,556.479,1,4,20,11,1,total,2,images/Ex4.jpg,right,reversed,hard,1,,,,,
,,,,,64136457f1327294ffb3fef9,001,32,Male,British,BA Hons,2024-03-05_22h21.02.436,CRL1h,2023.2.3,Win32,59.95203837,65e67470ae2fbf2172c317b2,65e79a9c317a389bcc19727d,,,,,,,,,,,556.48,1.4,557.88,557.88,558.597,left,1,0.716,,558.597,559.598,1,5,21,14,1,total,2,images/Ex7.jpg,left,reversed,hard,1,,,,,
,,,,,64136457f1327294ffb3fef9,001,32,Male,British,BA Hons,2024-03-05_22h21.02.436,CRL1h,2023.2.3,Win32,59.95203837,65e67470ae2fbf2172c317b2,65e79a9c317a389bcc19727d,,,,,,,,,,,559.598,1,560.598,560.598,561.917,left,1,1.307,,561.917,562.918,1,6,22,5,1,total,2,images/Ex6.jpg,left,reversed,hard,1,,,,,
,,,,,64136457f1327294ffb3fef9,001,32,Male,British,BA Hons,2024-03-05_22h21.02.436,CRL1h,2023.2.3,Win32,59.95203837,65e67470ae2fbf2172c317b2,65e79a9c317a389bcc19727d,,,,,,,,,,,562.918,0.6,563.518,563.518,564.235,right,1,0.705,,564.235,565.236,1,7,23,8,1,total,2,images/Ex1.jpg,right,reversed,hard,1,,,,,
,,,,,64136457f1327294ffb3fef9,001,32,Male,British,BA Hons,2024-03-05_22h21.02.436,CRL1h,2023.2.3,Win32,59.95203837,65e67470ae2fbf2172c317b2,65e79a9c317a389bcc19727d,,,,,,,,,,,565.237,0.6,565.836,565.836,566.622,left,1,0.774,,566.622,567.621,1,8,24,15,1,total,2,images/Ex8.jpg,left,reversed,hard,1,,,,,
,,,,,64136457f1327294ffb3fef9,001,32,Male,British,BA Hons,2024-03-05_22h21.02.436,CRL1h,2023.2.3,Win32,59.95203837,65e67470ae2fbf2172c317b2,65e79a9c317a389bcc19727d,,,,,,,,,,,567.622,1.4,569.022,569.022,569.924,right,0,0.893,,569.924,570.924,1,9,25,7,1,total,2,images/Ex8.jpg,left,reversed,hard,1,,,,,
,,,,,64136457f1327294ffb3fef9,001,32,Male,British,BA Hons,2024-03-05_22h21.02.436,CRL1h,2023.2.3,Win32,59.95203837,65e67470ae2fbf2172c317b2,65e79a9c317a389bcc19727d,,,,,,,,,,,570.924,1.3,572.225,572.225,573.176,right,1,0.939,,573.176,574.177,1,10,26,3,1,total,2,images/Ex4.jpg,right,reversed,hard,1,,,,,
,,,,,64136457f1327294ffb3fef9,001,32,Male,British,BA Hons,2024-03-05_22h21.02.436,CRL1h,2023.2.3,Win32,59.95203837,65e67470ae2fbf2172c317b2,65e79a9c317a389bcc19727d,,,,,,,,,,,574.178,1.3,575.477,575.477,576.162,right,1,0.672,,576.162,577.162,1,11,27,1,1,total,2,images/Ex2.jpg,right,reversed,hard,1,,,,,
,,,,,64136457f1327294ffb3fef9,001,32,Male,British,BA Hons,2024-03-05_22h21.02.436,CRL1h,2023.2.3,Win32,59.95203837,65e67470ae2fbf2172c317b2,65e79a9c317a389bcc19727d,,,,,,,,,,,577.163,0.8,577.963,577.963,578.481,right,1,0.511,,578.481,579.481,1,12,28,10,1,total,2,images/Ex3.jpg,right,reversed,hard,1,,,,,
,,,,,64136457f1327294ffb3fef9,001,32,Male,British,BA Hons,2024-03-05_22h21.02.436,CRL1h,2023.2.3,Win32,59.95203837,65e67470ae2fbf2172c317b2,65e79a9c317a389bcc19727d,,,,,,,,,,,579.482,1.1,580.582,580.582,581.316,right,1,0.726,,581.316,582.317,1,13,29,9,1,total,2,images/Ex2.jpg,right,reversed,hard,1,,,,,
,,,,,64136457f1327294ffb3fef9,001,32,Male,British,BA Hons,2024-03-05_22h21.02.436,CRL1h,2023.2.3,Win32,59.95203837,65e67470ae2fbf2172c317b2,65e79a9c317a389bcc19727d,,,,,,,,,,,582.32,1.4,583.719,583.719,584.452,right,0,0.724,,584.452,585.453,1,14,30,13,1,total,2,images/Ex6.jpg,left,reversed,hard,1,,,,,
,,,,,64136457f1327294ffb3fef9,001,32,Male,British,BA Hons,2024-03-05_22h21.02.436,CRL1h,2023.2.3,Win32,59.95203837,65e67470ae2fbf2172c317b2,65e79a9c317a389bcc19727d,,,,,,,,,,,585.454,0.7,586.153,586.153,586.871,left,1,0.713,,586.871,587.872,1,15,31,6,1,total,2,images/Ex7.jpg,left,reversed,hard,1,,,,,
,,,,,64136457f1327294ffb3fef9,001,32,Male,British,BA Hons,2024-03-05_22h21.02.436,CRL1h,2023.2.3,Win32,59.95203837,65e67470ae2fbf2172c317b2,65e79a9c317a389bcc19727d,,,,,,,,,,,587.873,0.8,588.672,588.673,589.239,left,1,0.562,,589.239,590.24,2,0,32,4,1,total,2,images/Ex5.jpg,left,reversed,hard,1,,,,,
,,,,,64136457f1327294ffb3fef9,001,32,Male,British,BA Hons,2024-03-05_22h21.02.436,CRL1h,2023.2.3,Win32,59.95203837,65e67470ae2fbf2172c317b2,65e79a9c317a389bcc19727d,,,,,,,,,,,590.241,1.1,591.341,591.341,591.942,right,1,0.589,,591.942,592.943,2,1,33,0,1,total,2,images/Ex1.jpg,right,reversed,hard,1,,,,,
,,,,,64136457f1327294ffb3fef9,001,32,Male,British,BA Hons,2024-03-05_22h21.02.436,CRL1h,2023.2.3,Win32,59.95203837,65e67470ae2fbf2172c317b2,65e79a9c317a389bcc19727d,,,,,,,,,,,592.944,1,593.943,593.943,594.627,right,0,0.675,,594.627,595.628,2,2,34,7,1,total,2,images/Ex8.jpg,left,reversed,hard,1,,,,,
,,,,,64136457f1327294ffb3fef9,001,32,Male,British,BA Hons,2024-03-05_22h21.02.436,CRL1h,2023.2.3,Win32,59.95203837,65e67470ae2fbf2172c317b2,65e79a9c317a389bcc19727d,,,,,,,,,,,595.629,0.5,596.128,596.128,596.912,right,1,0.777,,596.912,597.913,2,3,35,8,1,total,2,images/Ex1.jpg,right,reversed,hard,1,,,,,
,,,,,64136457f1327294ffb3fef9,001,32,Male,British,BA Hons,2024-03-05_22h21.02.436,CRL1h,2023.2.3,Win32,59.95203837,65e67470ae2fbf2172c317b2,65e79a9c317a389bcc19727d,,,,,,,,,,,597.914,1.3,599.214,599.214,599.748,right,1,0.525,,599.748,600.749,2,4,36,3,1,total,2,images/Ex4.jpg,right,reversed,hard,1,,,,,
,,,,,64136457f1327294ffb3fef9,001,32,Male,British,BA Hons,2024-03-05_22h21.02.436,CRL1h,2023.2.3,Win32,59.95203837,65e67470ae2fbf2172c317b2,65e79a9c317a389bcc19727d,,,,,,,,,,,600.75,1,601.75,601.75,602.3,right,1,0.542,,602.3,603.301,2,5,37,10,1,total,2,images/Ex3.jpg,right,reversed,hard,1,,,,,
,,,,,64136457f1327294ffb3fef9,001,32,Male,British,BA Hons,2024-03-05_22h21.02.436,CRL1h,2023.2.3,Win32,59.95203837,65e67470ae2fbf2172c317b2,65e79a9c317a389bcc19727d,,,,,,,,,,,603.302,1.5,604.802,604.802,605.586,left,1,0.776,,605.586,606.587,2,6,38,12,1,total,2,images/Ex5.jpg,left,reversed,hard,1,,,,,
,,,,,64136457f1327294ffb3fef9,001,32,Male,British,BA Hons,2024-03-05_22h21.02.436,CRL1h,2023.2.3,Win32,59.95203837,65e67470ae2fbf2172c317b2,65e79a9c317a389bcc19727d,,,,,,,,,,,606.588,1.5,608.089,608.089,608.773,left,1,0.675,,608.773,609.774,2,7,39,15,1,total,2,images/Ex8.jpg,left,reversed,hard,1,,,,,
,,,,,64136457f1327294ffb3fef9,001,32,Male,British,BA Hons,2024-03-05_22h21.02.436,CRL1h,2023.2.3,Win32,59.95203837,65e67470ae2fbf2172c317b2,65e79a9c317a389bcc19727d,,,,,,,,,,,609.774,1.4,611.174,611.174,611.858,right,1,0.673,,611.858,612.86,2,8,40,1,1,total,2,images/Ex2.jpg,right,reversed,hard,1,,,,,
,,,,,64136457f1327294ffb3fef9,001,32,Male,British,BA Hons,2024-03-05_22h21.02.436,CRL1h,2023.2.3,Win32,59.95203837,65e67470ae2fbf2172c317b2,65e79a9c317a389bcc19727d,,,,,,,,,,,612.864,0.9,613.76,613.76,614.411,left,1,0.637,,614.411,615.411,2,9,41,6,1,total,2,images/Ex7.jpg,left,reversed,hard,1,,,,,
,,,,,64136457f1327294ffb3fef9,001,32,Male,British,BA Hons,2024-03-05_22h21.02.436,CRL1h,2023.2.3,Win32,59.95203837,65e67470ae2fbf2172c317b2,65e79a9c317a389bcc19727d,,,,,,,,,,,615.412,1.2,616.613,616.613,617.113,right,1,0.489,,617.113,618.113,2,10,42,11,1,total,2,images/Ex4.jpg,right,reversed,hard,1,,,,,
,,,,,64136457f1327294ffb3fef9,001,32,Male,British,BA Hons,2024-03-05_22h21.02.436,CRL1h,2023.2.3,Win32,59.95203837,65e67470ae2fbf2172c317b2,65e79a9c317a389bcc19727d,,,,,,,,,,,618.114,0.7,618.814,618.814,619.548,left,1,0.725,,619.548,620.549,2,11,43,14,1,total,2,images/Ex7.jpg,left,reversed,hard,1,,,,,
,,,,,64136457f1327294ffb3fef9,001,32,Male,British,BA Hons,2024-03-05_22h21.02.436,CRL1h,2023.2.3,Win32,59.95203837,65e67470ae2fbf2172c317b2,65e79a9c317a389bcc19727d,,,,,,,,,,,620.549,0.9,621.45,621.45,622.117,left,1,0.655,,622.117,623.117,2,12,44,13,1,total,2,images/Ex6.jpg,left,reversed,hard,1,,,,,
,,,,,64136457f1327294ffb3fef9,001,32,Male,British,BA Hons,2024-03-05_22h21.02.436,CRL1h,2023.2.3,Win32,59.95203837,65e67470ae2fbf2172c317b2,65e79a9c317a389bcc19727d,,,,,,,,,,,623.118,1.2,624.318,624.318,625.07,right,1,0.74,,625.07,626.071,2,13,45,9,1,total,2,images/Ex2.jpg,right,reversed,hard,1,,,,,
,,,,,64136457f1327294ffb3fef9,001,32,Male,British,BA Hons,2024-03-05_22h21.02.436,CRL1h,2023.2.3,Win32,59.95203837,65e67470ae2fbf2172c317b2,65e79a9c317a389bcc19727d,,,,,,,,,,,626.072,0.6,626.671,626.671,627.387,right,1,0.707,,627.388,628.389,2,14,46,2,1,total,2,images/Ex3.jpg,right,reversed,hard,1,,,,,
,,,,,64136457f1327294ffb3fef9,001,32,Male,British,BA Hons,2024-03-05_22h21.02.436,CRL1h,2023.2.3,Win32,59.95203837,65e67470ae2fbf2172c317b2,65e79a9c317a389bcc19727d,,,,,,,,,,,628.389,1.4,629.791,629.791,630.407,right,0,0.604,,630.407,631.408,2,15,47,5,1,total,2,images/Ex6.jpg,left,reversed,hard,1,,,,,
,,,,,64136457f1327294ffb3fef9,001,32,Male,British,BA Hons,2024-03-05_22h21.02.436,CRL1h,2023.2.3,Win32,59.95203837,65e67470ae2fbf2172c317b2,65e79a9c317a389bcc19727d,,,,,,,,,,,631.409,1.4,632.809,632.809,633.493,right,1,0.681,,633.493,634.494,3,0,48,2,1,total,2,images/Ex3.jpg,right,reversed,hard,1,,,,,
,,,,,64136457f1327294ffb3fef9,001,32,Male,British,BA Hons,2024-03-05_22h21.02.436,CRL1h,2023.2.3,Win32,59.95203837,65e67470ae2fbf2172c317b2,65e79a9c317a389bcc19727d,,,,,,,,,,,634.495,1.1,635.595,635.595,636.696,left,1,1.09,,636.696,637.696,3,1,49,7,1,total,2,images/Ex8.jpg,left,reversed,hard,1,,,,,
,,,,,64136457f1327294ffb3fef9,001,32,Male,British,BA Hons,2024-03-05_22h21.02.436,CRL1h,2023.2.3,Win32,59.95203837,65e67470ae2fbf2172c317b2,65e79a9c317a389bcc19727d,,,,,,,,,,,637.697,0.9,638.597,638.597,639.431,left,1,0.83,,639.431,640.432,3,2,50,4,1,total,2,images/Ex5.jpg,left,reversed,hard,1,,,,,
,,,,,64136457f1327294ffb3fef9,001,32,Male,British,BA Hons,2024-03-05_22h21.02.436,CRL1h,2023.2.3,Win32,59.95203837,65e67470ae2fbf2172c317b2,65e79a9c317a389bcc19727d,,,,,,,,,,,640.433,0.7,641.133,641.133,641.883,right,0,0.742,,641.883,642.885,3,3,51,6,1,total,2,images/Ex7.jpg,left,reversed,hard,1,,,,,
,,,,,64136457f1327294ffb3fef9,001,32,Male,British,BA Hons,2024-03-05_22h21.02.436,CRL1h,2023.2.3,Win32,59.95203837,65e67470ae2fbf2172c317b2,65e79a9c317a389bcc19727d,,,,,,,,,,,642.89,0.9,643.785,643.785,644.919,left,1,1.129,,644.919,645.92,3,4,52,15,1,total,2,images/Ex8.jpg,left,reversed,hard,1,,,,,
,,,,,64136457f1327294ffb3fef9,001,32,Male,British,BA Hons,2024-03-05_22h21.02.436,CRL1h,2023.2.3,Win32,59.95203837,65e67470ae2fbf2172c317b2,65e79a9c317a389bcc19727d,,,,,,,,,,,645.92,1.3,647.221,647.221,648.138,right,1,0.906,,648.139,649.139,3,5,53,10,1,total,2,images/Ex3.jpg,right,reversed,hard,1,,,,,
,,,,,64136457f1327294ffb3fef9,001,32,Male,British,BA Hons,2024-03-05_22h21.02.436,CRL1h,2023.2.3,Win32,59.95203837,65e67470ae2fbf2172c317b2,65e79a9c317a389bcc19727d,,,,,,,,,,,649.14,1.2,650.341,650.341,651.225,right,1,0.872,,651.225,652.225,3,6,54,0,1,total,2,images/Ex1.jpg,right,reversed,hard,1,,,,,
,,,,,64136457f1327294ffb3fef9,001,32,Male,British,BA Hons,2024-03-05_22h21.02.436,CRL1h,2023.2.3,Win32,59.95203837,65e67470ae2fbf2172c317b2,65e79a9c317a389bcc19727d,,,,,,,,,,,652.226,1.3,653.527,653.527,654.394,left,1,0.855,,654.394,655.395,3,7,55,13,1,total,2,images/Ex6.jpg,left,reversed,hard,1,,,,,
,,,,,64136457f1327294ffb3fef9,001,32,Male,British,BA Hons,2024-03-05_22h21.02.436,CRL1h,2023.2.3,Win32,59.95203837,65e67470ae2fbf2172c317b2,65e79a9c317a389bcc19727d,,,,,,,,,,,655.396,1.3,656.696,656.696,657.396,right,1,0.691,,657.396,658.397,3,8,56,1,1,total,2,images/Ex2.jpg,right,reversed,hard,1,,,,,
,,,,,64136457f1327294ffb3fef9,001,32,Male,British,BA Hons,2024-03-05_22h21.02.436,CRL1h,2023.2.3,Win32,59.95203837,65e67470ae2fbf2172c317b2,65e79a9c317a389bcc19727d,,,,,,,,,,,658.398,0.8,659.198,659.198,660.049,left,1,0.838,,660.049,661.049,3,9,57,5,1,total,2,images/Ex6.jpg,left,reversed,hard,1,,,,,
,,,,,64136457f1327294ffb3fef9,001,32,Male,British,BA Hons,2024-03-05_22h21.02.436,CRL1h,2023.2.3,Win32,59.95203837,65e67470ae2fbf2172c317b2,65e79a9c317a389bcc19727d,,,,,,,,,,,661.05,0.7,661.75,661.75,662.618,right,1,0.861,,662.618,663.619,3,10,58,8,1,total,2,images/Ex1.jpg,right,reversed,hard,1,,,,,
,,,,,64136457f1327294ffb3fef9,001,32,Male,British,BA Hons,2024-03-05_22h21.02.436,CRL1h,2023.2.3,Win32,59.95203837,65e67470ae2fbf2172c317b2,65e79a9c317a389bcc19727d,,,,,,,,,,,663.619,1.4,665.02,665.02,665.686,left,1,0.656,,665.686,666.687,3,11,59,12,1,total,2,images/Ex5.jpg,left,reversed,hard,1,,,,,
,,,,,64136457f1327294ffb3fef9,001,32,Male,British,BA Hons,2024-03-05_22h21.02.436,CRL1h,2023.2.3,Win32,59.95203837,65e67470ae2fbf2172c317b2,65e79a9c317a389bcc19727d,,,,,,,,,,,666.688,0.9,667.588,667.588,668.072,left,1,0.473,,668.072,669.072,3,12,60,14,1,total,2,images/Ex7.jpg,left,reversed,hard,1,,,,,
,,,,,64136457f1327294ffb3fef9,001,32,Male,British,BA Hons,2024-03-05_22h21.02.436,CRL1h,2023.2.3,Win32,59.95203837,65e67470ae2fbf2172c317b2,65e79a9c317a389bcc19727d,,,,,,,,,,,669.074,1.1,670.173,670.173,670.757,right,1,0.581,,670.757,671.758,3,13,61,11,1,total,2,images/Ex4.jpg,right,reversed,hard,1,,,,,
,,,,,64136457f1327294ffb3fef9,001,32,Male,British,BA Hons,2024-03-05_22h21.02.436,CRL1h,2023.2.3,Win32,59.95203837,65e67470ae2fbf2172c317b2,65e79a9c317a389bcc19727d,,,,,,,,,,,671.759,1.1,672.86,672.86,673.394,right,1,0.525,,673.394,674.394,3,14,62,3,1,total,2,images/Ex4.jpg,right,reversed,hard,1,,,,,
,,,,,64136457f1327294ffb3fef9,001,32,Male,British,BA Hons,2024-03-05_22h21.02.436,CRL1h,2023.2.3,Win32,59.95203837,65e67470ae2fbf2172c317b2,65e79a9c317a389bcc19727d,,,,,,,,,,,674.396,1.1,675.495,675.495,676.296,right,1,0.795,,676.296,677.296,3,15,63,9,1,total,2,images/Ex2.jpg,right,reversed,hard,1,,,,,
,,,,,64136457f1327294ffb3fef9,001,32,Male,British,BA Hons,2024-03-05_22h21.02.436,CRL1h,2023.2.3,Win32,59.95203837,65e67470ae2fbf2172c317b2,65e79a9c317a389bcc19727d,,,,,,677.298,682.751,space,5.444,,682.765,1.3,684.069,684.069,685.103,left,1,1.022,,685.103,686.104,0,0,0,3,1,partial,1,images/Ex12.jpg,left,training,hard,1,,,,,
,,,,,64136457f1327294ffb3fef9,001,32,Male,British,BA Hons,2024-03-05_22h21.02.436,CRL1h,2023.2.3,Win32,59.95203837,65e67470ae2fbf2172c317b2,65e79a9c317a389bcc19727d,,,,,,,,,,,686.104,1,687.105,687.105,687.672,left,1,0.556,,687.672,688.672,0,1,1,11,1,partial,1,images/Ex12.jpg,left,training,hard,1,,,,,
,,,,,64136457f1327294ffb3fef9,001,32,Male,British,BA Hons,2024-03-05_22h21.02.436,CRL1h,2023.2.3,Win32,59.95203837,65e67470ae2fbf2172c317b2,65e79a9c317a389bcc19727d,,,,,,,,,,,688.673,0.7,689.373,689.373,690.208,right,0,0.821,,690.208,691.208,0,2,2,10,1,partial,1,images/Ex11.jpg,left,training,hard,1,,,,,
,,,,,64136457f1327294ffb3fef9,001,32,Male,British,BA Hons,2024-03-05_22h21.02.436,CRL1h,2023.2.3,Win32,59.95203837,65e67470ae2fbf2172c317b2,65e79a9c317a389bcc19727d,,,,,,,,,,,691.209,1.1,692.309,692.309,693.893,right,0,1.582,,693.893,694.894,0,3,3,9,1,partial,1,images/Ex10.jpg,left,training,hard,1,,,,,
,,,,,64136457f1327294ffb3fef9,001,32,Male,British,BA Hons,2024-03-05_22h21.02.436,CRL1h,2023.2.3,Win32,59.95203837,65e67470ae2fbf2172c317b2,65e79a9c317a389bcc19727d,,,,,,,,,,,694.895,0.7,695.595,695.595,696.129,left,1,0.529,,696.129,697.13,0,4,4,1,1,partial,1,images/Ex10.jpg,left,training,hard,1,,,,,
,,,,,64136457f1327294ffb3fef9,001,32,Male,British,BA Hons,2024-03-05_22h21.02.436,CRL1h,2023.2.3,Win32,59.95203837,65e67470ae2fbf2172c317b2,65e79a9c317a389bcc19727d,,,,,,,,,,,697.13,0.6,697.73,697.73,699.065,left,0,1.331,,699.065,700.065,0,5,5,12,1,partial,1,images/Ex13.jpg,right,training,hard,1,,,,,
,,,,,64136457f1327294ffb3fef9,001,32,Male,British,BA Hons,2024-03-05_22h21.02.436,CRL1h,2023.2.3,Win32,59.95203837,65e67470ae2fbf2172c317b2,65e79a9c317a389bcc19727d,,,,,,,,,,,700.066,0.5,700.565,700.565,701.8,left,1,1.23,,701.8,702.801,0,6,6,0,1,partial,1,images/Ex9.jpg,left,training,hard,1,,,,,
,,,,,64136457f1327294ffb3fef9,001,32,Male,British,BA Hons,2024-03-05_22h21.02.436,CRL1h,2023.2.3,Win32,59.95203837,65e67470ae2fbf2172c317b2,65e79a9c317a389bcc19727d,,,,,,,,,,,702.802,0.8,703.603,703.603,704.419,right,1,0.806,,704.419,705.42,0,7,7,4,1,partial,1,images/Ex13.jpg,right,training,hard,1,,,,,
,,,,,64136457f1327294ffb3fef9,001,32,Male,British,BA Hons,2024-03-05_22h21.02.436,CRL1h,2023.2.3,Win32,59.95203837,65e67470ae2fbf2172c317b2,65e79a9c317a389bcc19727d,,,,,,,,,,,705.421,1.3,706.721,706.721,707.639,right,1,0.914,,707.639,708.639,0,8,8,14,1,partial,1,images/Ex15.jpg,right,training,hard,1,,,,,
,,,,,64136457f1327294ffb3fef9,001,32,Male,British,BA Hons,2024-03-05_22h21.02.436,CRL1h,2023.2.3,Win32,59.95203837,65e67470ae2fbf2172c317b2,65e79a9c317a389bcc19727d,,,,,,,,,,,708.64,0.5,709.14,709.14,709.973,right,1,0.822,,709.973,710.974,0,9,9,7,1,partial,1,images/Ex16.jpg,right,training,hard,1,,,,,
,,,,,64136457f1327294ffb3fef9,001,32,Male,British,BA Hons,2024-03-05_22h21.02.436,CRL1h,2023.2.3,Win32,59.95203837,65e67470ae2fbf2172c317b2,65e79a9c317a389bcc19727d,,,,,,,,,,,710.975,1.4,712.376,712.376,713.243,right,1,0.859,,713.243,714.244,0,10,10,13,1,partial,1,images/Ex14.jpg,right,training,hard,1,,,,,
,,,,,64136457f1327294ffb3fef9,001,32,Male,British,BA Hons,2024-03-05_22h21.02.436,CRL1h,2023.2.3,Win32,59.95203837,65e67470ae2fbf2172c317b2,65e79a9c317a389bcc19727d,,,,,,,,,,,714.245,1.2,715.445,715.445,716.046,right,1,0.592,,716.046,717.046,0,11,11,5,1,partial,1,images/Ex14.jpg,right,training,hard,1,,,,,
,,,,,64136457f1327294ffb3fef9,001,32,Male,British,BA Hons,2024-03-05_22h21.02.436,CRL1h,2023.2.3,Win32,59.95203837,65e67470ae2fbf2172c317b2,65e79a9c317a389bcc19727d,,,,,,,,,,,717.047,0.6,717.647,717.647,718.697,left,1,1.039,,718.697,719.698,0,12,12,2,1,partial,1,images/Ex11.jpg,left,training,hard,1,,,,,
,,,,,64136457f1327294ffb3fef9,001,32,Male,British,BA Hons,2024-03-05_22h21.02.436,CRL1h,2023.2.3,Win32,59.95203837,65e67470ae2fbf2172c317b2,65e79a9c317a389bcc19727d,,,,,,,,,,,719.699,1.1,720.799,720.799,721.851,right,1,1.039,,721.851,722.851,0,13,13,6,1,partial,1,images/Ex15.jpg,right,training,hard,1,,,,,
,,,,,64136457f1327294ffb3fef9,001,32,Male,British,BA Hons,2024-03-05_22h21.02.436,CRL1h,2023.2.3,Win32,59.95203837,65e67470ae2fbf2172c317b2,65e79a9c317a389bcc19727d,,,,,,,,,,,722.852,0.7,723.552,723.552,724.236,right,1,0.676,,724.236,725.236,0,14,14,15,1,partial,1,images/Ex16.jpg,right,training,hard,1,,,,,
,,,,,64136457f1327294ffb3fef9,001,32,Male,British,BA Hons,2024-03-05_22h21.02.436,CRL1h,2023.2.3,Win32,59.95203837,65e67470ae2fbf2172c317b2,65e79a9c317a389bcc19727d,,,,,,,,,,,725.237,1.2,726.437,726.437,727.538,left,1,1.09,,727.538,728.539,0,15,15,8,1,partial,1,images/Ex9.jpg,left,training,hard,1,,,,,
,,,,,64136457f1327294ffb3fef9,001,32,Male,British,BA Hons,2024-03-05_22h21.02.436,CRL1h,2023.2.3,Win32,59.95203837,65e67470ae2fbf2172c317b2,65e79a9c317a389bcc19727d,,,,,,,,,,,728.54,0.6,729.139,729.139,729.874,right,1,0.728,,729.874,730.875,1,0,16,15,1,partial,1,images/Ex16.jpg,right,training,hard,1,,,,,
,,,,,64136457f1327294ffb3fef9,001,32,Male,British,BA Hons,2024-03-05_22h21.02.436,CRL1h,2023.2.3,Win32,59.95203837,65e67470ae2fbf2172c317b2,65e79a9c317a389bcc19727d,,,,,,,,,,,730.876,0.9,731.775,731.775,733.027,right,1,1.244,,733.027,734.028,1,1,17,4,1,partial,1,images/Ex13.jpg,right,training,hard,1,,,,,
,,,,,64136457f1327294ffb3fef9,001,32,Male,British,BA Hons,2024-03-05_22h21.02.436,CRL1h,2023.2.3,Win32,59.95203837,65e67470ae2fbf2172c317b2,65e79a9c317a389bcc19727d,,,,,,,,,,,734.033,0.9,734.928,734.928,735.729,right,1,0.793,,735.729,736.729,1,2,18,6,1,partial,1,images/Ex15.jpg,right,training,hard,1,,,,,
,,,,,64136457f1327294ffb3fef9,001,32,Male,British,BA Hons,2024-03-05_22h21.02.436,CRL1h,2023.2.3,Win32,59.95203837,65e67470ae2fbf2172c317b2,65e79a9c317a389bcc19727d,,,,,,,,,,,736.73,0.8,737.531,737.531,738.264,left,1,0.73,,738.265,739.264,1,3,19,11,1,partial,1,images/Ex12.jpg,left,training,hard,1,,,,,
,,,,,64136457f1327294ffb3fef9,001,32,Male,British,BA Hons,2024-03-05_22h21.02.436,CRL1h,2023.2.3,Win32,59.95203837,65e67470ae2fbf2172c317b2,65e79a9c317a389bcc19727d,,,,,,,,,,,739.266,1.2,740.465,740.465,741.017,left,1,0.54,,741.017,742.017,1,4,20,3,1,partial,1,images/Ex12.jpg,left,training,hard,1,,,,,
,,,,,64136457f1327294ffb3fef9,001,32,Male,British,BA Hons,2024-03-05_22h21.02.436,CRL1h,2023.2.3,Win32,59.95203837,65e67470ae2fbf2172c317b2,65e79a9c317a389bcc19727d,,,,,,,,,,,742.018,0.8,742.818,742.818,743.635,right,1,0.805,,743.635,744.636,1,5,21,12,1,partial,1,images/Ex13.jpg,right,training,hard,1,,,,,
,,,,,64136457f1327294ffb3fef9,001,32,Male,British,BA Hons,2024-03-05_22h21.02.436,CRL1h,2023.2.3,Win32,59.95203837,65e67470ae2fbf2172c317b2,65e79a9c317a389bcc19727d,,,,,,,,,,,744.637,1.1,745.736,745.737,746.487,left,0,0.748,,746.487,747.488,1,6,22,13,1,partial,1,images/Ex14.jpg,right,training,hard,1,,,,,
,,,,,64136457f1327294ffb3fef9,001,32,Male,British,BA Hons,2024-03-05_22h21.02.436,CRL1h,2023.2.3,Win32,59.95203837,65e67470ae2fbf2172c317b2,65e79a9c317a389bcc19727d,,,,,,,,,,,747.49,1.4,748.889,748.889,749.69,right,0,0.794,,749.691,750.691,1,7,23,1,1,partial,1,images/Ex10.jpg,left,training,hard,1,,,,,
,,,,,64136457f1327294ffb3fef9,001,32,Male,British,BA Hons,2024-03-05_22h21.02.436,CRL1h,2023.2.3,Win32,59.95203837,65e67470ae2fbf2172c317b2,65e79a9c317a389bcc19727d,,,,,,,,,,,750.692,1.3,751.992,751.992,752.643,right,1,0.637,,752.643,753.643,1,8,24,7,1,partial,1,images/Ex16.jpg,right,training,hard,1,,,,,
,,,,,64136457f1327294ffb3fef9,001,32,Male,British,BA Hons,2024-03-05_22h21.02.436,CRL1h,2023.2.3,Win32,59.95203837,65e67470ae2fbf2172c317b2,65e79a9c317a389bcc19727d,,,,,,,,,,,753.644,0.9,754.544,754.544,755.228,right,1,0.676,,755.228,756.229,1,9,25,14,1,partial,1,images/Ex15.jpg,right,training,hard,1,,,,,
,,,,,64136457f1327294ffb3fef9,001,32,Male,British,BA Hons,2024-03-05_22h21.02.436,CRL1h,2023.2.3,Win32,59.95203837,65e67470ae2fbf2172c317b2,65e79a9c317a389bcc19727d,,,,,,,,,,,756.23,1.1,757.329,757.329,758.598,left,1,1.265,,758.598,759.599,1,10,26,10,1,partial,1,images/Ex11.jpg,left,training,hard,1,,,,,
,,,,,64136457f1327294ffb3fef9,001,32,Male,British,BA Hons,2024-03-05_22h21.02.436,CRL1h,2023.2.3,Win32,59.95203837,65e67470ae2fbf2172c317b2,65e79a9c317a389bcc19727d,,,,,,,,,,,759.599,1.2,760.799,760.799,761.9,left,1,1.09,,761.9,762.901,1,11,27,8,1,partial,1,images/Ex9.jpg,left,training,hard,1,,,,,
,,,,,64136457f1327294ffb3fef9,001,32,Male,British,BA Hons,2024-03-05_22h21.02.436,CRL1h,2023.2.3,Win32,59.95203837,65e67470ae2fbf2172c317b2,65e79a9c317a389bcc19727d,,,,,,,,,,,762.902,1.1,764.003,764.004,764.636,left,1,0.618,,764.637,765.637,1,12,28,9,1,partial,1,images/Ex10.jpg,left,training,hard,1,,,,,
,,,,,64136457f1327294ffb3fef9,001,32,Male,British,BA Hons,2024-03-05_22h21.02.436,CRL1h,2023.2.3,Win32,59.95203837,65e67470ae2fbf2172c317b2,65e79a9c317a389bcc19727d,,,,,,,,,,,765.639,0.9,766.537,766.537,767.189,left,1,0.64,,767.189,768.189,1,13,29,0,1,partial,1,images/Ex9.jpg,left,training,hard,1,,,,,
,,,,,64136457f1327294ffb3fef9,001,32,Male,British,BA Hons,2024-03-05_22h21.02.436,CRL1h,2023.2.3,Win32,59.95203837,65e67470ae2fbf2172c317b2,65e79a9c317a389bcc19727d,,,,,,,,,,,768.19,0.5,768.689,768.689,769.757,left,1,1.055,,769.757,770.758,1,14,30,2,1,partial,1,images/Ex11.jpg,left,training,hard,1,,,,,
,,,,,64136457f1327294ffb3fef9,001,32,Male,British,BA Hons,2024-03-05_22h21.02.436,CRL1h,2023.2.3,Win32,59.95203837,65e67470ae2fbf2172c317b2,65e79a9c317a389bcc19727d,,,,,,,,,,,770.759,0.7,771.458,771.458,772.059,right,1,0.593,,772.059,773.06,1,15,31,5,1,partial,1,images/Ex14.jpg,right,training,hard,1,,,,,
,,,,,64136457f1327294ffb3fef9,001,32,Male,British,BA Hons,2024-03-05_22h21.02.436,CRL1h,2023.2.3,Win32,59.95203837,65e67470ae2fbf2172c317b2,65e79a9c317a389bcc19727d,,,,,,,,,,,773.061,1.4,774.461,774.461,775.095,left,1,0.622,,775.095,776.096,2,0,32,8,1,partial,1,images/Ex9.jpg,left,training,hard,1,,,,,
,,,,,64136457f1327294ffb3fef9,001,32,Male,British,BA Hons,2024-03-05_22h21.02.436,CRL1h,2023.2.3,Win32,59.95203837,65e67470ae2fbf2172c317b2,65e79a9c317a389bcc19727d,,,,,,,,,,,776.097,1.4,777.497,777.497,778.364,right,1,0.856,,778.364,779.365,2,1,33,14,1,partial,1,images/Ex15.jpg,right,training,hard,1,,,,,
,,,,,64136457f1327294ffb3fef9,001,32,Male,British,BA Hons,2024-03-05_22h21.02.436,CRL1h,2023.2.3,Win32,59.95203837,65e67470ae2fbf2172c317b2,65e79a9c317a389bcc19727d,,,,,,,,,,,779.366,0.5,779.865,779.865,780.583,right,1,0.705,,780.583,781.584,2,2,34,12,1,partial,1,images/Ex13.jpg,right,training,hard,1,,,,,
,,,,,64136457f1327294ffb3fef9,001,32,Male,British,BA Hons,2024-03-05_22h21.02.436,CRL1h,2023.2.3,Win32,59.95203837,65e67470ae2fbf2172c317b2,65e79a9c317a389bcc19727d,,,,,,,,,,,781.585,0.9,782.484,782.484,783.101,right,1,0.607,,783.101,784.102,2,3,35,13,1,partial,1,images/Ex14.jpg,right,training,hard,1,,,,,
,,,,,64136457f1327294ffb3fef9,001,32,Male,British,BA Hons,2024-03-05_22h21.02.436,CRL1h,2023.2.3,Win32,59.95203837,65e67470ae2fbf2172c317b2,65e79a9c317a389bcc19727d,,,,,,,,,,,784.103,1.3,785.403,785.403,786.021,right,1,0.607,,786.021,787.022,2,4,36,15,1,partial,1,images/Ex16.jpg,right,training,hard,1,,,,,
,,,,,64136457f1327294ffb3fef9,001,32,Male,British,BA Hons,2024-03-05_22h21.02.436,CRL1h,2023.2.3,Win32,59.95203837,65e67470ae2fbf2172c317b2,65e79a9c317a389bcc19727d,,,,,,,,,,,787.022,0.5,787.522,787.522,788.172,right,1,0.639,,788.172,789.173,2,5,37,6,1,partial,1,images/Ex15.jpg,right,training,hard,1,,,,,
,,,,,64136457f1327294ffb3fef9,001,32,Male,British,BA Hons,2024-03-05_22h21.02.436,CRL1h,2023.2.3,Win32,59.95203837,65e67470ae2fbf2172c317b2,65e79a9c317a389bcc19727d,,,,,,,,,,,789.174,0.8,789.974,789.974,790.558,right,0,0.573,,790.558,791.558,2,6,38,10,1,partial,1,images/Ex11.jpg,left,training,hard,1,,,,,
,,,,,64136457f1327294ffb3fef9,001,32,Male,British,BA Hons,2024-03-05_22h21.02.436,CRL1h,2023.2.3,Win32,59.95203837,65e67470ae2fbf2172c317b2,65e79a9c317a389bcc19727d,,,,,,,,,,,791.559,1.1,792.659,792.659,793.276,right,1,0.608,,793.276,794.278,2,7,39,5,1,partial,1,images/Ex14.jpg,right,training,hard,1,,,,,
,,,,,64136457f1327294ffb3fef9,001,32,Male,British,BA Hons,2024-03-05_22h21.02.436,CRL1h,2023.2.3,Win32,59.95203837,65e67470ae2fbf2172c317b2,65e79a9c317a389bcc19727d,,,,,,,,,,,794.278,1.3,795.579,795.581,796.196,right,1,0.604,,796.196,797.196,2,8,40,7,1,partial,1,images/Ex16.jpg,right,training,hard,1,,,,,
,,,,,64136457f1327294ffb3fef9,001,32,Male,British,BA Hons,2024-03-05_22h21.02.436,CRL1h,2023.2.3,Win32,59.95203837,65e67470ae2fbf2172c317b2,65e79a9c317a389bcc19727d,,,,,,,,,,,797.198,1.1,798.298,798.298,798.948,right,1,0.639,,798.948,799.949,2,9,41,4,1,partial,1,images/Ex13.jpg,right,training,hard,1,,,,,
,,,,,64136457f1327294ffb3fef9,001,32,Male,British,BA Hons,2024-03-05_22h21.02.436,CRL1h,2023.2.3,Win32,59.95203837,65e67470ae2fbf2172c317b2,65e79a9c317a389bcc19727d,,,,,,,,,,,799.95,0.8,800.749,800.749,801.383,left,1,0.621,,801.383,802.384,2,10,42,2,1,partial,1,images/Ex11.jpg,left,training,hard,1,,,,,
,,,,,64136457f1327294ffb3fef9,001,32,Male,British,BA Hons,2024-03-05_22h21.02.436,CRL1h,2023.2.3,Win32,59.95203837,65e67470ae2fbf2172c317b2,65e79a9c317a389bcc19727d,,,,,,,,,,,802.385,1,803.385,803.385,804.035,left,1,0.638,,804.035,805.036,2,11,43,0,1,partial,1,images/Ex9.jpg,left,training,hard,1,,,,,
,,,,,64136457f1327294ffb3fef9,001,32,Male,British,BA Hons,2024-03-05_22h21.02.436,CRL1h,2023.2.3,Win32,59.95203837,65e67470ae2fbf2172c317b2,65e79a9c317a389bcc19727d,,,,,,,,,,,805.037,0.6,805.637,805.637,806.238,left,1,0.59,,806.238,807.238,2,12,44,9,1,partial,1,images/Ex10.jpg,left,training,hard,1,,,,,
,,,,,64136457f1327294ffb3fef9,001,32,Male,British,BA Hons,2024-03-05_22h21.02.436,CRL1h,2023.2.3,Win32,59.95203837,65e67470ae2fbf2172c317b2,65e79a9c317a389bcc19727d,,,,,,,,,,,807.239,1.2,808.439,808.439,808.923,left,1,0.472,,808.923,809.924,2,13,45,1,1,partial,1,images/Ex10.jpg,left,training,hard,1,,,,,
,,,,,64136457f1327294ffb3fef9,001,32,Male,British,BA Hons,2024-03-05_22h21.02.436,CRL1h,2023.2.3,Win32,59.95203837,65e67470ae2fbf2172c317b2,65e79a9c317a389bcc19727d,,,,,,,,,,,809.924,1.1,811.025,811.025,811.609,left,1,0.572,,811.609,812.609,2,14,46,3,1,partial,1,images/Ex12.jpg,left,training,hard,1,,,,,
,,,,,64136457f1327294ffb3fef9,001,32,Male,British,BA Hons,2024-03-05_22h21.02.436,CRL1h,2023.2.3,Win32,59.95203837,65e67470ae2fbf2172c317b2,65e79a9c317a389bcc19727d,,,,,,,,,,,812.61,0.9,813.51,813.51,813.894,left,1,0.381,,813.894,814.895,2,15,47,11,1,partial,1,images/Ex12.jpg,left,training,hard,1,,,,,
,,,,,64136457f1327294ffb3fef9,001,32,Male,British,BA Hons,2024-03-05_22h21.02.436,CRL1h,2023.2.3,Win32,59.95203837,65e67470ae2fbf2172c317b2,65e79a9c317a389bcc19727d,,,,,,,,,,,814.895,0.7,815.595,815.595,816.045,left,1,0.44,,816.046,817.046,3,0,48,3,1,partial,1,images/Ex12.jpg,left,training,hard,1,,,,,
,,,,,64136457f1327294ffb3fef9,001,32,Male,British,BA Hons,2024-03-05_22h21.02.436,CRL1h,2023.2.3,Win32,59.95203837,65e67470ae2fbf2172c317b2,65e79a9c317a389bcc19727d,,,,,,,,,,,817.047,0.6,817.647,817.647,818.33,right,1,0.672,,818.33,819.332,3,1,49,6,1,partial,1,images/Ex15.jpg,right,training,hard,1,,,,,
,,,,,64136457f1327294ffb3fef9,001,32,Male,British,BA Hons,2024-03-05_22h21.02.436,CRL1h,2023.2.3,Win32,59.95203837,65e67470ae2fbf2172c317b2,65e79a9c317a389bcc19727d,,,,,,,,,,,819.332,1.5,820.833,820.833,821.417,left,1,0.579,,821.417,822.417,3,2,50,9,1,partial,1,images/Ex10.jpg,left,training,hard,1,,,,,
,,,,,64136457f1327294ffb3fef9,001,32,Male,British,BA Hons,2024-03-05_22h21.02.436,CRL1h,2023.2.3,Win32,59.95203837,65e67470ae2fbf2172c317b2,65e79a9c317a389bcc19727d,,,,,,,,,,,822.418,1,823.418,823.418,823.969,left,1,0.546,,823.969,824.97,3,3,51,0,1,partial,1,images/Ex9.jpg,left,training,hard,1,,,,,
,,,,,64136457f1327294ffb3fef9,001,32,Male,British,BA Hons,2024-03-05_22h21.02.436,CRL1h,2023.2.3,Win32,59.95203837,65e67470ae2fbf2172c317b2,65e79a9c317a389bcc19727d,,,,,,,,,,,824.971,0.9,825.871,825.872,826.588,right,1,0.701,,826.589,827.589,3,4,52,13,1,partial,1,images/Ex14.jpg,right,training,hard,1,,,,,
,,,,,64136457f1327294ffb3fef9,001,32,Male,British,BA Hons,2024-03-05_22h21.02.436,CRL1h,2023.2.3,Win32,59.95203837,65e67470ae2fbf2172c317b2,65e79a9c317a389bcc19727d,,,,,,,,,,,827.59,1.3,828.89,828.89,829.44,left,1,0.545,,829.44,830.441,3,5,53,11,1,partial,1,images/Ex12.jpg,left,training,hard,1,,,,,
,,,,,64136457f1327294ffb3fef9,001,32,Male,British,BA Hons,2024-03-05_22h21.02.436,CRL1h,2023.2.3,Win32,59.95203837,65e67470ae2fbf2172c317b2,65e79a9c317a389bcc19727d,,,,,,,,,,,830.442,0.6,831.041,831.041,831.676,right,1,0.626,,831.676,832.677,3,6,54,14,1,partial,1,images/Ex15.jpg,right,training,hard,1,,,,,
,,,,,64136457f1327294ffb3fef9,001,32,Male,British,BA Hons,2024-03-05_22h21.02.436,CRL1h,2023.2.3,Win32,59.95203837,65e67470ae2fbf2172c317b2,65e79a9c317a389bcc19727d,,,,,,,,,,,832.677,1.2,833.877,833.877,834.477,right,1,0.598,,834.477,835.479,3,7,55,4,1,partial,1,images/Ex13.jpg,right,training,hard,1,,,,,
,,,,,64136457f1327294ffb3fef9,001,32,Male,British,BA Hons,2024-03-05_22h21.02.436,CRL1h,2023.2.3,Win32,59.95203837,65e67470ae2fbf2172c317b2,65e79a9c317a389bcc19727d,,,,,,,,,,,835.479,0.9,836.379,836.379,836.947,right,1,0.559,,836.947,837.947,3,8,56,5,1,partial,1,images/Ex14.jpg,right,training,hard,1,,,,,
,,,,,64136457f1327294ffb3fef9,001,32,Male,British,BA Hons,2024-03-05_22h21.02.436,CRL1h,2023.2.3,Win32,59.95203837,65e67470ae2fbf2172c317b2,65e79a9c317a389bcc19727d,,,,,,,,,,,837.948,1,838.949,838.949,839.598,left,1,0.646,,839.598,840.599,3,9,57,8,1,partial,1,images/Ex9.jpg,left,training,hard,1,,,,,
,,,,,64136457f1327294ffb3fef9,001,32,Male,British,BA Hons,2024-03-05_22h21.02.436,CRL1h,2023.2.3,Win32,59.95203837,65e67470ae2fbf2172c317b2,65e79a9c317a389bcc19727d,,,,,,,,,,,840.6,1.1,841.7,841.7,842.467,left,1,0.759,,842.467,843.469,3,10,58,10,1,partial,1,images/Ex11.jpg,left,training,hard,1,,,,,
,,,,,64136457f1327294ffb3fef9,001,32,Male,British,BA Hons,2024-03-05_22h21.02.436,CRL1h,2023.2.3,Win32,59.95203837,65e67470ae2fbf2172c317b2,65e79a9c317a389bcc19727d,,,,,,,,,,,843.47,1.1,844.57,844.57,845.203,right,1,0.622,,845.203,846.204,3,11,59,12,1,partial,1,images/Ex13.jpg,right,training,hard,1,,,,,
,,,,,64136457f1327294ffb3fef9,001,32,Male,British,BA Hons,2024-03-05_22h21.02.436,CRL1h,2023.2.3,Win32,59.95203837,65e67470ae2fbf2172c317b2,65e79a9c317a389bcc19727d,,,,,,,,,,,846.205,0.6,846.804,846.804,847.456,left,1,0.64,,847.456,848.457,3,12,60,2,1,partial,1,images/Ex11.jpg,left,training,hard,1,,,,,
,,,,,64136457f1327294ffb3fef9,001,32,Male,British,BA Hons,2024-03-05_22h21.02.436,CRL1h,2023.2.3,Win32,59.95203837,65e67470ae2fbf2172c317b2,65e79a9c317a389bcc19727d,,,,,,,,,,,848.458,1.2,849.657,849.657,850.357,left,1,0.69,,850.357,851.358,3,13,61,1,1,partial,1,images/Ex10.jpg,left,training,hard,1,,,,,
,,,,,64136457f1327294ffb3fef9,001,32,Male,British,BA Hons,2024-03-05_22h21.02.436,CRL1h,2023.2.3,Win32,59.95203837,65e67470ae2fbf2172c317b2,65e79a9c317a389bcc19727d,,,,,,,,,,,851.359,1.3,852.66,852.66,853.327,right,1,0.655,,853.327,854.327,3,14,62,15,1,partial,1,images/Ex16.jpg,right,training,hard,1,,,,,
,,,,,64136457f1327294ffb3fef9,001,32,Male,British,BA Hons,2024-03-05_22h21.02.436,CRL1h,2023.2.3,Win32,59.95203837,65e67470ae2fbf2172c317b2,65e79a9c317a389bcc19727d,,,,,,,,,,,854.328,1.2,855.529,855.529,856.13,right,1,0.596,,856.131,857.13,3,15,63,7,1,partial,1,images/Ex16.jpg,right,training,hard,1,,,,,
,,,,,64136457f1327294ffb3fef9,001,32,Male,British,BA Hons,2024-03-05_22h21.02.436,CRL1h,2023.2.3,Win32,59.95203837,65e67470ae2fbf2172c317b2,65e79a9c317a389bcc19727d,,,,,,,,,,,857.134,1.5,858.631,858.631,859.365,right,1,0.724,,859.366,860.366,4,0,64,6,1,partial,1,images/Ex15.jpg,right,training,hard,1,,,,,
,,,,,64136457f1327294ffb3fef9,001,32,Male,British,BA Hons,2024-03-05_22h21.02.436,CRL1h,2023.2.3,Win32,59.95203837,65e67470ae2fbf2172c317b2,65e79a9c317a389bcc19727d,,,,,,,,,,,860.368,1,861.367,861.367,862.251,left,1,0.876,,862.251,863.252,4,1,65,1,1,partial,1,images/Ex10.jpg,left,training,hard,1,,,,,
,,,,,64136457f1327294ffb3fef9,001,32,Male,British,BA Hons,2024-03-05_22h21.02.436,CRL1h,2023.2.3,Win32,59.95203837,65e67470ae2fbf2172c317b2,65e79a9c317a389bcc19727d,,,,,,,,,,,863.253,0.6,863.852,863.852,864.52,right,1,0.663,,864.52,865.52,4,2,66,15,1,partial,1,images/Ex16.jpg,right,training,hard,1,,,,,
,,,,,64136457f1327294ffb3fef9,001,32,Male,British,BA Hons,2024-03-05_22h21.02.436,CRL1h,2023.2.3,Win32,59.95203837,65e67470ae2fbf2172c317b2,65e79a9c317a389bcc19727d,,,,,,,,,,,865.522,1.3,866.821,866.822,867.488,right,1,0.655,,867.489,868.489,4,3,67,4,1,partial,1,images/Ex13.jpg,right,training,hard,1,,,,,
,,,,,64136457f1327294ffb3fef9,001,32,Male,British,BA Hons,2024-03-05_22h21.02.436,CRL1h,2023.2.3,Win32,59.95203837,65e67470ae2fbf2172c317b2,65e79a9c317a389bcc19727d,,,,,,,,,,,868.49,0.9,869.391,869.391,870.659,left,0,1.261,,870.659,871.659,4,4,68,14,1,partial,1,images/Ex15.jpg,right,training,hard,1,,,,,
,,,,,64136457f1327294ffb3fef9,001,32,Male,British,BA Hons,2024-03-05_22h21.02.436,CRL1h,2023.2.3,Win32,59.95203837,65e67470ae2fbf2172c317b2,65e79a9c317a389bcc19727d,,,,,,,,,,,871.659,1.5,873.16,873.16,873.878,right,1,0.707,,873.878,874.878,4,5,69,13,1,partial,1,images/Ex14.jpg,right,training,hard,1,,,,,
,,,,,64136457f1327294ffb3fef9,001,32,Male,British,BA Hons,2024-03-05_22h21.02.436,CRL1h,2023.2.3,Win32,59.95203837,65e67470ae2fbf2172c317b2,65e79a9c317a389bcc19727d,,,,,,,,,,,874.879,1.4,876.279,876.279,876.913,left,1,0.622,,876.913,877.914,4,6,70,8,1,partial,1,images/Ex9.jpg,left,training,hard,1,,,,,
,,,,,64136457f1327294ffb3fef9,001,32,Male,British,BA Hons,2024-03-05_22h21.02.436,CRL1h,2023.2.3,Win32,59.95203837,65e67470ae2fbf2172c317b2,65e79a9c317a389bcc19727d,,,,,,,,,,,877.914,0.8,878.714,878.714,879.365,left,1,0.65,,879.365,880.366,4,7,71,0,1,partial,1,images/Ex9.jpg,left,training,hard,1,,,,,
,,,,,64136457f1327294ffb3fef9,001,32,Male,British,BA Hons,2024-03-05_22h21.02.436,CRL1h,2023.2.3,Win32,59.95203837,65e67470ae2fbf2172c317b2,65e79a9c317a389bcc19727d,,,,,,,,,,,880.367,1.4,881.768,881.768,882.401,left,1,0.622,,882.401,883.402,4,8,72,3,1,partial,1,images/Ex12.jpg,left,training,hard,1,,,,,
,,,,,64136457f1327294ffb3fef9,001,32,Male,British,BA Hons,2024-03-05_22h21.02.436,CRL1h,2023.2.3,Win32,59.95203837,65e67470ae2fbf2172c317b2,65e79a9c317a389bcc19727d,,,,,,,,,,,883.403,0.8,884.202,884.203,884.854,right,1,0.649,,884.854,885.854,4,9,73,12,1,partial,1,images/Ex13.jpg,right,training,hard,1,,,,,
,,,,,64136457f1327294ffb3fef9,001,32,Male,British,BA Hons,2024-03-05_22h21.02.436,CRL1h,2023.2.3,Win32,59.95203837,65e67470ae2fbf2172c317b2,65e79a9c317a389bcc19727d,,,,,,,,,,,885.855,1.4,887.256,887.256,887.856,left,1,0.585,,887.856,888.856,4,10,74,9,1,partial,1,images/Ex10.jpg,left,training,hard,1,,,,,
,,,,,64136457f1327294ffb3fef9,001,32,Male,British,BA Hons,2024-03-05_22h21.02.436,CRL1h,2023.2.3,Win32,59.95203837,65e67470ae2fbf2172c317b2,65e79a9c317a389bcc19727d,,,,,,,,,,,888.857,1.1,889.957,889.957,890.691,left,1,0.726,,890.691,891.692,4,11,75,2,1,partial,1,images/Ex11.jpg,left,training,hard,1,,,,,
,,,,,64136457f1327294ffb3fef9,001,32,Male,British,BA Hons,2024-03-05_22h21.02.436,CRL1h,2023.2.3,Win32,59.95203837,65e67470ae2fbf2172c317b2,65e79a9c317a389bcc19727d,,,,,,,,,,,891.693,0.6,892.293,892.293,892.776,left,1,0.478,,892.776,893.777,4,12,76,10,1,partial,1,images/Ex11.jpg,left,training,hard,1,,,,,
,,,,,64136457f1327294ffb3fef9,001,32,Male,British,BA Hons,2024-03-05_22h21.02.436,CRL1h,2023.2.3,Win32,59.95203837,65e67470ae2fbf2172c317b2,65e79a9c317a389bcc19727d,,,,,,,,,,,893.778,0.7,894.478,894.478,895.078,right,1,0.597,,895.078,896.079,4,13,77,5,1,partial,1,images/Ex14.jpg,right,training,hard,1,,,,,
,,,,,64136457f1327294ffb3fef9,001,32,Male,British,BA Hons,2024-03-05_22h21.02.436,CRL1h,2023.2.3,Win32,59.95203837,65e67470ae2fbf2172c317b2,65e79a9c317a389bcc19727d,,,,,,,,,,,896.079,1.3,897.38,897.38,898.015,left,1,0.623,,898.015,899.015,4,14,78,11,1,partial,1,images/Ex12.jpg,left,training,hard,1,,,,,
,,,,,64136457f1327294ffb3fef9,001,32,Male,British,BA Hons,2024-03-05_22h21.02.436,CRL1h,2023.2.3,Win32,59.95203837,65e67470ae2fbf2172c317b2,65e79a9c317a389bcc19727d,,,,,,,,,,,899.016,0.6,899.615,899.615,900.266,right,1,0.639,,900.266,901.267,4,15,79,7,1,partial,1,images/Ex16.jpg,right,training,hard,1,,,,,
,,,,,64136457f1327294ffb3fef9,001,32,Male,British,BA Hons,2024-03-05_22h21.02.436,CRL1h,2023.2.3,Win32,59.95203837,65e67470ae2fbf2172c317b2,65e79a9c317a389bcc19727d,,,,,,,,,,,901.267,1.2,902.468,902.468,903.085,left,1,0.615,,903.085,904.086,5,0,80,9,1,partial,1,images/Ex10.jpg,left,training,hard,1,,,,,
,,,,,64136457f1327294ffb3fef9,001,32,Male,British,BA Hons,2024-03-05_22h21.02.436,CRL1h,2023.2.3,Win32,59.95203837,65e67470ae2fbf2172c317b2,65e79a9c317a389bcc19727d,,,,,,,,,,,904.087,0.8,904.886,904.886,905.554,left,1,0.655,,905.554,906.555,5,1,81,10,1,partial,1,images/Ex11.jpg,left,training,hard,1,,,,,
,,,,,64136457f1327294ffb3fef9,001,32,Male,British,BA Hons,2024-03-05_22h21.02.436,CRL1h,2023.2.3,Win32,59.95203837,65e67470ae2fbf2172c317b2,65e79a9c317a389bcc19727d,,,,,,,,,,,906.556,0.7,907.255,907.255,907.856,left,1,0.59,,907.856,908.857,5,2,82,3,1,partial,1,images/Ex12.jpg,left,training,hard,1,,,,,
,,,,,64136457f1327294ffb3fef9,001,32,Male,British,BA Hons,2024-03-05_22h21.02.436,CRL1h,2023.2.3,Win32,59.95203837,65e67470ae2fbf2172c317b2,65e79a9c317a389bcc19727d,,,,,,,,,,,908.858,1.5,910.358,910.358,910.975,left,1,0.613,,910.975,911.976,5,3,83,8,1,partial,1,images/Ex9.jpg,left,training,hard,1,,,,,
,,,,,64136457f1327294ffb3fef9,001,32,Male,British,BA Hons,2024-03-05_22h21.02.436,CRL1h,2023.2.3,Win32,59.95203837,65e67470ae2fbf2172c317b2,65e79a9c317a389bcc19727d,,,,,,,,,,,911.976,0.8,912.776,912.776,913.293,left,1,0.515,,913.293,914.294,5,4,84,1,1,partial,1,images/Ex10.jpg,left,training,hard,1,,,,,
,,,,,64136457f1327294ffb3fef9,001,32,Male,British,BA Hons,2024-03-05_22h21.02.436,CRL1h,2023.2.3,Win32,59.95203837,65e67470ae2fbf2172c317b2,65e79a9c317a389bcc19727d,,,,,,,,,,,914.294,1.3,915.596,915.596,916.096,left,1,0.489,,916.096,917.097,5,5,85,11,1,partial,1,images/Ex12.jpg,left,training,hard,1,,,,,
,,,,,64136457f1327294ffb3fef9,001,32,Male,British,BA Hons,2024-03-05_22h21.02.436,CRL1h,2023.2.3,Win32,59.95203837,65e67470ae2fbf2172c317b2,65e79a9c317a389bcc19727d,,,,,,,,,,,917.099,1.5,918.598,918.598,919.399,left,0,0.788,,919.399,920.4,5,6,86,14,1,partial,1,images/Ex15.jpg,right,training,hard,1,,,,,
,,,,,64136457f1327294ffb3fef9,001,32,Male,British,BA Hons,2024-03-05_22h21.02.436,CRL1h,2023.2.3,Win32,59.95203837,65e67470ae2fbf2172c317b2,65e79a9c317a389bcc19727d,,,,,,,,,,,920.4,0.6,921,921,921.634,right,1,0.62,,921.634,922.634,5,7,87,13,1,partial,1,images/Ex14.jpg,right,training,hard,1,,,,,
,,,,,64136457f1327294ffb3fef9,001,32,Male,British,BA Hons,2024-03-05_22h21.02.436,CRL1h,2023.2.3,Win32,59.95203837,65e67470ae2fbf2172c317b2,65e79a9c317a389bcc19727d,,,,,,,,,,,922.636,0.9,923.536,923.536,924.187,right,1,0.644,,924.187,925.187,5,8,88,4,1,partial,1,images/Ex13.jpg,right,training,hard,1,,,,,
,,,,,64136457f1327294ffb3fef9,001,32,Male,British,BA Hons,2024-03-05_22h21.02.436,CRL1h,2023.2.3,Win32,59.95203837,65e67470ae2fbf2172c317b2,65e79a9c317a389bcc19727d,,,,,,,,,,,925.188,0.9,926.088,926.088,926.789,right,1,0.689,,926.789,927.789,5,9,89,6,1,partial,1,images/Ex15.jpg,right,training,hard,1,,,,,
,,,,,64136457f1327294ffb3fef9,001,32,Male,British,BA Hons,2024-03-05_22h21.02.436,CRL1h,2023.2.3,Win32,59.95203837,65e67470ae2fbf2172c317b2,65e79a9c317a389bcc19727d,,,,,,,,,,,927.79,1,928.79,928.79,929.34,right,1,0.54,,929.34,930.341,5,10,90,7,1,partial,1,images/Ex16.jpg,right,training,hard,1,,,,,
,,,,,64136457f1327294ffb3fef9,001,32,Male,British,BA Hons,2024-03-05_22h21.02.436,CRL1h,2023.2.3,Win32,59.95203837,65e67470ae2fbf2172c317b2,65e79a9c317a389bcc19727d,,,,,,,,,,,930.342,1.1,931.442,931.442,932.076,right,1,0.627,,932.076,933.077,5,11,91,15,1,partial,1,images/Ex16.jpg,right,training,hard,1,,,,,
,,,,,64136457f1327294ffb3fef9,001,32,Male,British,BA Hons,2024-03-05_22h21.02.436,CRL1h,2023.2.3,Win32,59.95203837,65e67470ae2fbf2172c317b2,65e79a9c317a389bcc19727d,,,,,,,,,,,933.077,0.8,933.877,933.877,934.861,left,1,0.981,,934.861,935.862,5,12,92,2,1,partial,1,images/Ex11.jpg,left,training,hard,1,,,,,
,,,,,64136457f1327294ffb3fef9,001,32,Male,British,BA Hons,2024-03-05_22h21.02.436,CRL1h,2023.2.3,Win32,59.95203837,65e67470ae2fbf2172c317b2,65e79a9c317a389bcc19727d,,,,,,,,,,,935.863,0.8,936.663,936.663,937.264,left,1,0.597,,937.264,938.264,5,13,93,0,1,partial,1,images/Ex9.jpg,left,training,hard,1,,,,,
,,,,,64136457f1327294ffb3fef9,001,32,Male,British,BA Hons,2024-03-05_22h21.02.436,CRL1h,2023.2.3,Win32,59.95203837,65e67470ae2fbf2172c317b2,65e79a9c317a389bcc19727d,,,,,,,,,,,938.265,0.5,938.765,938.765,939.399,right,1,0.629,,939.399,940.4,5,14,94,12,1,partial,1,images/Ex13.jpg,right,training,hard,1,,,,,
,,,,,64136457f1327294ffb3fef9,001,32,Male,British,BA Hons,2024-03-05_22h21.02.436,CRL1h,2023.2.3,Win32,59.95203837,65e67470ae2fbf2172c317b2,65e79a9c317a389bcc19727d,,,,,,,,,,,940.4,0.9,941.3,941.3,941.818,right,1,0.506,,941.818,942.818,5,15,95,5,1,partial,1,images/Ex14.jpg,right,training,hard,1,,,,,
,,,,,64136457f1327294ffb3fef9,001,32,Male,British,BA Hons,2024-03-05_22h21.02.436,CRL1h,2023.2.3,Win32,59.95203837,65e67470ae2fbf2172c317b2,65e79a9c317a389bcc19727d,,,,,,,,,,,942.819,0.7,943.519,943.519,944.103,left,1,0.58,,944.103,945.103,6,0,96,9,1,partial,1,images/Ex10.jpg,left,training,hard,1,,,,,
,,,,,64136457f1327294ffb3fef9,001,32,Male,British,BA Hons,2024-03-05_22h21.02.436,CRL1h,2023.2.3,Win32,59.95203837,65e67470ae2fbf2172c317b2,65e79a9c317a389bcc19727d,,,,,,,,,,,945.104,0.8,945.904,945.904,946.655,right,1,0.748,,946.655,947.656,6,1,97,5,1,partial,1,images/Ex14.jpg,right,training,hard,1,,,,,
,,,,,64136457f1327294ffb3fef9,001,32,Male,British,BA Hons,2024-03-05_22h21.02.436,CRL1h,2023.2.3,Win32,59.95203837,65e67470ae2fbf2172c317b2,65e79a9c317a389bcc19727d,,,,,,,,,,,947.659,0.9,948.556,948.556,949.34,right,1,0.772,,949.341,950.341,6,2,98,14,1,partial,1,images/Ex15.jpg,right,training,hard,1,,,,,
,,,,,64136457f1327294ffb3fef9,001,32,Male,British,BA Hons,2024-03-05_22h21.02.436,CRL1h,2023.2.3,Win32,59.95203837,65e67470ae2fbf2172c317b2,65e79a9c317a389bcc19727d,,,,,,,,,,,950.342,0.5,950.842,950.842,951.509,left,1,0.656,,951.509,952.509,6,3,99,10,1,partial,1,images/Ex11.jpg,left,training,hard,1,,,,,
,,,,,64136457f1327294ffb3fef9,001,32,Male,British,BA Hons,2024-03-05_22h21.02.436,CRL1h,2023.2.3,Win32,59.95203837,65e67470ae2fbf2172c317b2,65e79a9c317a389bcc19727d,,,,,,,,,,,952.51,0.8,953.311,953.311,953.928,right,1,0.613,,953.928,954.929,6,4,100,4,1,partial,1,images/Ex13.jpg,right,training,hard,1,,,,,
,,,,,64136457f1327294ffb3fef9,001,32,Male,British,BA Hons,2024-03-05_22h21.02.436,CRL1h,2023.2.3,Win32,59.95203837,65e67470ae2fbf2172c317b2,65e79a9c317a389bcc19727d,,,,,,,,,,,954.929,1.4,956.329,956.329,956.863,right,1,0.529,,956.863,957.864,6,5,101,13,1,partial,1,images/Ex14.jpg,right,training,hard,1,,,,,
,,,,,64136457f1327294ffb3fef9,001,32,Male,British,BA Hons,2024-03-05_22h21.02.436,CRL1h,2023.2.3,Win32,59.95203837,65e67470ae2fbf2172c317b2,65e79a9c317a389bcc19727d,,,,,,,,,,,957.865,1.5,959.366,959.366,959.916,left,1,0.539,,959.916,960.917,6,6,102,1,1,partial,1,images/Ex10.jpg,left,training,hard,1,,,,,
,,,,,64136457f1327294ffb3fef9,001,32,Male,British,BA Hons,2024-03-05_22h21.02.436,CRL1h,2023.2.3,Win32,59.95203837,65e67470ae2fbf2172c317b2,65e79a9c317a389bcc19727d,,,,,,,,,,,960.917,0.9,961.817,961.818,962.368,right,1,0.538,,962.368,963.369,6,7,103,12,1,partial,1,images/Ex13.jpg,right,training,hard,1,,,,,
,,,,,64136457f1327294ffb3fef9,001,32,Male,British,BA Hons,2024-03-05_22h21.02.436,CRL1h,2023.2.3,Win32,59.95203837,65e67470ae2fbf2172c317b2,65e79a9c317a389bcc19727d,,,,,,,,,,,963.369,1.5,964.87,964.87,965.437,right,1,0.554,,965.437,966.438,6,8,104,7,1,partial,1,images/Ex16.jpg,right,training,hard,1,,,,,
,,,,,64136457f1327294ffb3fef9,001,32,Male,British,BA Hons,2024-03-05_22h21.02.436,CRL1h,2023.2.3,Win32,59.95203837,65e67470ae2fbf2172c317b2,65e79a9c317a389bcc19727d,,,,,,,,,,,966.438,0.7,967.139,967.139,967.723,right,1,0.573,,967.723,968.723,6,9,105,6,1,partial,1,images/Ex15.jpg,right,training,hard,1,,,,,
,,,,,64136457f1327294ffb3fef9,001,32,Male,British,BA Hons,2024-03-05_22h21.02.436,CRL1h,2023.2.3,Win32,59.95203837,65e67470ae2fbf2172c317b2,65e79a9c317a389bcc19727d,,,,,,,,,,,968.724,1.3,970.024,970.024,970.625,left,1,0.595,,970.625,971.625,6,10,106,3,1,partial,1,images/Ex12.jpg,left,training,hard,1,,,,,
,,,,,64136457f1327294ffb3fef9,001,32,Male,British,BA Hons,2024-03-05_22h21.02.436,CRL1h,2023.2.3,Win32,59.95203837,65e67470ae2fbf2172c317b2,65e79a9c317a389bcc19727d,,,,,,,,,,,971.627,1.2,972.827,972.827,973.377,right,1,0.544,,973.377,974.378,6,11,107,15,1,partial,1,images/Ex16.jpg,right,training,hard,1,,,,,
,,,,,64136457f1327294ffb3fef9,001,32,Male,British,BA Hons,2024-03-05_22h21.02.436,CRL1h,2023.2.3,Win32,59.95203837,65e67470ae2fbf2172c317b2,65e79a9c317a389bcc19727d,,,,,,,,,,,974.379,1.3,975.679,975.679,976.279,left,1,0.597,,976.279,977.28,6,12,108,11,1,partial,1,images/Ex12.jpg,left,training,hard,1,,,,,
,,,,,64136457f1327294ffb3fef9,001,32,Male,British,BA Hons,2024-03-05_22h21.02.436,CRL1h,2023.2.3,Win32,59.95203837,65e67470ae2fbf2172c317b2,65e79a9c317a389bcc19727d,,,,,,,,,,,977.281,1.1,978.382,978.383,979.065,left,1,0.669,,979.065,980.066,6,13,109,2,1,partial,1,images/Ex11.jpg,left,training,hard,1,,,,,
,,,,,64136457f1327294ffb3fef9,001,32,Male,British,BA Hons,2024-03-05_22h21.02.436,CRL1h,2023.2.3,Win32,59.95203837,65e67470ae2fbf2172c317b2,65e79a9c317a389bcc19727d,,,,,,,,,,,980.067,0.9,980.967,980.967,981.568,left,1,0.588,,981.568,982.569,6,14,110,0,1,partial,1,images/Ex9.jpg,left,training,hard,1,,,,,
,,,,,64136457f1327294ffb3fef9,001,32,Male,British,BA Hons,2024-03-05_22h21.02.436,CRL1h,2023.2.3,Win32,59.95203837,65e67470ae2fbf2172c317b2,65e79a9c317a389bcc19727d,,,,,,,,,,,982.569,1.1,983.669,983.669,984.27,right,0,0.589,,984.27,985.271,6,15,111,8,1,partial,1,images/Ex9.jpg,left,training,hard,1,,,,,
,,,,,64136457f1327294ffb3fef9,001,32,Male,British,BA Hons,2024-03-05_22h21.02.436,CRL1h,2023.2.3,Win32,59.95203837,65e67470ae2fbf2172c317b2,65e79a9c317a389bcc19727d,,,,,,,,,,,985.271,1.1,986.371,986.371,987.022,left,1,0.64,,987.022,988.023,7,0,112,10,1,partial,1,images/Ex11.jpg,left,training,hard,1,,,,,
,,,,,64136457f1327294ffb3fef9,001,32,Male,British,BA Hons,2024-03-05_22h21.02.436,CRL1h,2023.2.3,Win32,59.95203837,65e67470ae2fbf2172c317b2,65e79a9c317a389bcc19727d,,,,,,,,,,,988.024,0.6,988.623,988.623,989.274,right,1,0.643,,989.274,990.275,7,1,113,7,1,partial,1,images/Ex16.jpg,right,training,hard,1,,,,,
,,,,,64136457f1327294ffb3fef9,001,32,Male,British,BA Hons,2024-03-05_22h21.02.436,CRL1h,2023.2.3,Win32,59.95203837,65e67470ae2fbf2172c317b2,65e79a9c317a389bcc19727d,,,,,,,,,,,990.276,0.6,990.875,990.875,991.476,left,1,0.589,,991.476,992.477,7,2,114,9,1,partial,1,images/Ex10.jpg,left,training,hard,1,,,,,
,,,,,64136457f1327294ffb3fef9,001,32,Male,British,BA Hons,2024-03-05_22h21.02.436,CRL1h,2023.2.3,Win32,59.95203837,65e67470ae2fbf2172c317b2,65e79a9c317a389bcc19727d,,,,,,,,,,,992.478,0.9,993.377,993.377,993.961,left,1,0.579,,993.961,994.962,7,3,115,2,1,partial,1,images/Ex11.jpg,left,training,hard,1,,,,,
,,,,,64136457f1327294ffb3fef9,001,32,Male,British,BA Hons,2024-03-05_22h21.02.436,CRL1h,2023.2.3,Win32,59.95203837,65e67470ae2fbf2172c317b2,65e79a9c317a389bcc19727d,,,,,,,,,,,994.963,0.6,995.563,995.563,996.162,right,1,0.594,,996.162,997.163,7,4,116,15,1,partial,1,images/Ex16.jpg,right,training,hard,1,,,,,
,,,,,64136457f1327294ffb3fef9,001,32,Male,British,BA Hons,2024-03-05_22h21.02.436,CRL1h,2023.2.3,Win32,59.95203837,65e67470ae2fbf2172c317b2,65e79a9c317a389bcc19727d,,,,,,,,,,,997.164,1.1,998.265,998.265,998.965,right,1,0.689,,998.965,999.966,7,5,117,12,1,partial,1,images/Ex13.jpg,right,training,hard,1,,,,,
,,,,,64136457f1327294ffb3fef9,001,32,Male,British,BA Hons,2024-03-05_22h21.02.436,CRL1h,2023.2.3,Win32,59.95203837,65e67470ae2fbf2172c317b2,65e79a9c317a389bcc19727d,,,,,,,,,,,999.967,1.3,1001.267,1001.267,1001.918,right,1,0.641,,1001.918,1002.919,7,6,118,13,1,partial,1,images/Ex14.jpg,right,training,hard,1,,,,,
,,,,,64136457f1327294ffb3fef9,001,32,Male,British,BA Hons,2024-03-05_22h21.02.436,CRL1h,2023.2.3,Win32,59.95203837,65e67470ae2fbf2172c317b2,65e79a9c317a389bcc19727d,,,,,,,,,,,1002.919,0.5,1003.419,1003.419,1004.086,right,1,0.665,,1004.086,1005.087,7,7,119,5,1,partial,1,images/Ex14.jpg,right,training,hard,1,,,,,
,,,,,64136457f1327294ffb3fef9,001,32,Male,British,BA Hons,2024-03-05_22h21.02.436,CRL1h,2023.2.3,Win32,59.95203837,65e67470ae2fbf2172c317b2,65e79a9c317a389bcc19727d,,,,,,,,,,,1005.087,1.4,1006.489,1006.489,1007.088,left,1,0.588,,1007.089,1008.091,7,8,120,3,1,partial,1,images/Ex12.jpg,left,training,hard,1,,,,,
,,,,,64136457f1327294ffb3fef9,001,32,Male,British,BA Hons,2024-03-05_22h21.02.436,CRL1h,2023.2.3,Win32,59.95203837,65e67470ae2fbf2172c317b2,65e79a9c317a389bcc19727d,,,,,,,,,,,1008.093,0.9,1008.99,1008.99,1009.608,left,1,0.605,,1009.608,1010.608,7,9,121,0,1,partial,1,images/Ex9.jpg,left,training,hard,1,,,,,
,,,,,64136457f1327294ffb3fef9,001,32,Male,British,BA Hons,2024-03-05_22h21.02.436,CRL1h,2023.2.3,Win32,59.95203837,65e67470ae2fbf2172c317b2,65e79a9c317a389bcc19727d,,,,,,,,,,,1010.608,1.1,1011.709,1011.709,1012.31,left,1,0.599,,1012.31,1013.311,7,10,122,8,1,partial,1,images/Ex9.jpg,left,training,hard,1,,,,,
,,,,,64136457f1327294ffb3fef9,001,32,Male,British,BA Hons,2024-03-05_22h21.02.436,CRL1h,2023.2.3,Win32,59.95203837,65e67470ae2fbf2172c317b2,65e79a9c317a389bcc19727d,,,,,,,,,,,1013.311,1,1014.311,1014.311,1014.929,left,0,0.611,,1014.929,1015.929,7,11,123,6,1,partial,1,images/Ex15.jpg,right,training,hard,1,,,,,
,,,,,64136457f1327294ffb3fef9,001,32,Male,British,BA Hons,2024-03-05_22h21.02.436,CRL1h,2023.2.3,Win32,59.95203837,65e67470ae2fbf2172c317b2,65e79a9c317a389bcc19727d,,,,,,,,,,,1015.93,0.6,1016.53,1016.53,1017.164,left,1,0.625,,1017.164,1018.165,7,12,124,11,1,partial,1,images/Ex12.jpg,left,training,hard,1,,,,,
,,,,,64136457f1327294ffb3fef9,001,32,Male,British,BA Hons,2024-03-05_22h21.02.436,CRL1h,2023.2.3,Win32,59.95203837,65e67470ae2fbf2172c317b2,65e79a9c317a389bcc19727d,,,,,,,,,,,1018.167,1.4,1019.565,1019.566,1020.15,left,1,0.571,,1020.15,1021.15,7,13,125,1,1,partial,1,images/Ex10.jpg,left,training,hard,1,,,,,
,,,,,64136457f1327294ffb3fef9,001,32,Male,British,BA Hons,2024-03-05_22h21.02.436,CRL1h,2023.2.3,Win32,59.95203837,65e67470ae2fbf2172c317b2,65e79a9c317a389bcc19727d,,,,,,,,,,,1021.151,1.5,1022.651,1022.651,1023.536,right,1,0.88,,1023.536,1024.537,7,14,126,14,1,partial,1,images/Ex15.jpg,right,training,hard,1,,,,,
,,,,,64136457f1327294ffb3fef9,001,32,Male,British,BA Hons,2024-03-05_22h21.02.436,CRL1h,2023.2.3,Win32,59.95203837,65e67470ae2fbf2172c317b2,65e79a9c317a389bcc19727d,,,,,,,,,,,1024.538,0.5,1025.037,1025.037,1025.721,right,1,0.672,,1025.721,1026.722,7,15,127,4,1,partial,1,images/Ex13.jpg,right,training,hard,1,,,,,
,,,,,64136457f1327294ffb3fef9,001,32,Male,British,BA Hons,2024-03-05_22h21.02.436,CRL1h,2023.2.3,Win32,59.95203837,65e67470ae2fbf2172c317b2,65e79a9c317a389bcc19727d,,,,,,,,,,,1026.732,1.3,1028.023,1028.023,1028.69,right,1,0.661,,1028.691,1029.691,0,0,0,6,1,partial,2,images/Ex15.jpg,right,nonreversed,hard,1,,,,,
,,,,,64136457f1327294ffb3fef9,001,32,Male,British,BA Hons,2024-03-05_22h21.02.436,CRL1h,2023.2.3,Win32,59.95203837,65e67470ae2fbf2172c317b2,65e79a9c317a389bcc19727d,,,,,,,,,,,1029.691,1.2,1030.891,1030.891,1031.459,right,0,0.557,,1031.459,1032.46,0,1,1,13,1,partial,2,images/Ex14.jpg,left,reversed,hard,1,,,,,
,,,,,64136457f1327294ffb3fef9,001,32,Male,British,BA Hons,2024-03-05_22h21.02.436,CRL1h,2023.2.3,Win32,59.95203837,65e67470ae2fbf2172c317b2,65e79a9c317a389bcc19727d,,,,,,,,,,,1032.46,1,1033.46,1033.46,1034.746,left,1,1.273,,1034.746,1035.746,0,2,2,12,1,partial,2,images/Ex13.jpg,left,reversed,hard,1,,,,,
,,,,,64136457f1327294ffb3fef9,001,32,Male,British,BA Hons,2024-03-05_22h21.02.436,CRL1h,2023.2.3,Win32,59.95203837,65e67470ae2fbf2172c317b2,65e79a9c317a389bcc19727d,,,,,,,,,,,1035.747,0.8,1036.547,1036.547,1037.347,right,1,0.789,,1037.348,1038.348,0,3,3,10,1,partial,2,images/Ex11.jpg,right,reversed,hard,1,,,,,
,,,,,64136457f1327294ffb3fef9,001,32,Male,British,BA Hons,2024-03-05_22h21.02.436,CRL1h,2023.2.3,Win32,59.95203837,65e67470ae2fbf2172c317b2,65e79a9c317a389bcc19727d,,,,,,,,,,,1038.349,0.7,1039.049,1039.049,1039.667,right,1,0.608,,1039.667,1040.667,0,4,4,3,1,partial,2,images/Ex12.jpg,right,reversed,hard,1,,,,,
