infCons.started,infCons.stopped,resp_consent.keys,resp_consent.rt,resp_consent.duration,participant,session,Age?,Gender?,Nationality?,Highest Educational Degree?,date,expName,psychopyVersion,OS,frameRate,STUDY_ID,SESSION_ID,instructions.started,instructions.stopped,resp_instructions.keys,resp_instructions.rt,resp_instructions.duration,nextTask.started,nextTask.stopped,ready_task.keys,ready_task.rt,ready_task.duration,fixation.started,ITI,fixation.stopped,stim.started,stim.stopped,response.keys,response.corr,response.rt,response.duration,feedback.started,feedback.stopped,trials.thisRepN,trials.thisTrialN,trials.thisN,trials.thisIndex,trials.ran,task,phase,Exemplars,r_correct,condition,difficulty,set,end.started,end.stopped,resp_end.keys,resp_end.rt,resp_end.duration
0.0003,31.6625,space,31.6202,,65d1d2f7bbb5b1ec274b3253,001,33,male,filipino,Bachelor,2024-03-06_15h04.33.242,CRL1h,2023.2.3,Linux x86_64,30.03003003,65e67470ae2fbf2172c317b2,65e885b4d2247d6a4fada9af,,,,,,,,,,,,,,,,,,,,,,,,,,,,,,,,,,,,,,
,,,,,65d1d2f7bbb5b1ec274b3253,001,33,male,filipino,Bachelor,2024-03-06_15h04.33.242,CRL1h,2023.2.3,Linux x86_64,30.03003003,65e67470ae2fbf2172c317b2,65e885b4d2247d6a4fada9af,31.6633,141.9266,space,110.2351,,,,,,,,,,,,,,,,,,,,,,,,,,,,,,,,,,
,,,,,65d1d2f7bbb5b1ec274b3253,001,33,male,filipino,Bachelor,2024-03-06_15h04.33.242,CRL1h,2023.2.3,Linux x86_64,30.03003003,65e67470ae2fbf2172c317b2,65e885b4d2247d6a4fada9af,,,,,,141.9459,149.3941,space,7.4305,,149.4146,0.9,150.2934,150.2938,152.4605,left,1,2.134,,152.461,153.4599,0,0,0,11,1,total,1,images/Ex12.jpg,left,training,hard,4,,,,,
,,,,,65d1d2f7bbb5b1ec274b3253,001,33,male,filipino,Bachelor,2024-03-06_15h04.33.242,CRL1h,2023.2.3,Linux x86_64,30.03003003,65e67470ae2fbf2172c317b2,65e885b4d2247d6a4fada9af,,,,,,,,,,,153.4619,0.8,154.2591,154.2591,156.2929,right,1,2.0079,,156.293,157.2928,0,1,1,12,1,total,1,images/Ex13.jpg,right,training,hard,4,,,,,
,,,,,65d1d2f7bbb5b1ec274b3253,001,33,male,filipino,Bachelor,2024-03-06_15h04.33.242,CRL1h,2023.2.3,Linux x86_64,30.03003003,65e67470ae2fbf2172c317b2,65e885b4d2247d6a4fada9af,,,,,,,,,,,157.2942,1.3,158.5926,158.5928,159.7926,right,1,1.179,,159.7928,160.7933,0,2,2,6,1,total,1,images/Ex15.jpg,right,training,hard,4,,,,,
,,,,,65d1d2f7bbb5b1ec274b3253,001,33,male,filipino,Bachelor,2024-03-06_15h04.33.242,CRL1h,2023.2.3,Linux x86_64,30.03003003,65e67470ae2fbf2172c317b2,65e885b4d2247d6a4fada9af,,,,,,,,,,,160.7942,1.5,162.2931,162.2932,164.7261,left,1,2.4175,,164.7261,165.7263,0,3,3,0,1,total,1,images/Ex9.jpg,left,training,hard,4,,,,,
,,,,,65d1d2f7bbb5b1ec274b3253,001,33,male,filipino,Bachelor,2024-03-06_15h04.33.242,CRL1h,2023.2.3,Linux x86_64,30.03003003,65e67470ae2fbf2172c317b2,65e885b4d2247d6a4fada9af,,,,,,,,,,,165.7273,1.2,166.9258,166.9259,168.7257,right,1,1.7886,,168.7258,169.7256,0,4,4,7,1,total,1,images/Ex16.jpg,right,training,hard,4,,,,,
,,,,,65d1d2f7bbb5b1ec274b3253,001,33,male,filipino,Bachelor,2024-03-06_15h04.33.242,CRL1h,2023.2.3,Linux x86_64,30.03003003,65e67470ae2fbf2172c317b2,65e885b4d2247d6a4fada9af,,,,,,,,,,,169.7265,0.6,170.3252,170.3252,171.1261,left,0,0.7893,,171.1262,172.1258,0,5,5,4,1,total,1,images/Ex13.jpg,right,training,hard,4,,,,,
,,,,,65d1d2f7bbb5b1ec274b3253,001,33,male,filipino,Bachelor,2024-03-06_15h04.33.242,CRL1h,2023.2.3,Linux x86_64,30.03003003,65e67470ae2fbf2172c317b2,65e885b4d2247d6a4fada9af,,,,,,,,,,,172.1269,1.5,173.6259,173.626,175.3587,left,0,1.7268,,175.3588,176.3591,0,6,6,15,1,total,1,images/Ex16.jpg,right,training,hard,4,,,,,
,,,,,65d1d2f7bbb5b1ec274b3253,001,33,male,filipino,Bachelor,2024-03-06_15h04.33.242,CRL1h,2023.2.3,Linux x86_64,30.03003003,65e67470ae2fbf2172c317b2,65e885b4d2247d6a4fada9af,,,,,,,,,,,176.3729,0.6,176.9593,176.9594,177.6257,left,1,0.647,,177.6258,178.6255,0,7,7,3,1,total,1,images/Ex12.jpg,left,training,hard,4,,,,,
,,,,,65d1d2f7bbb5b1ec274b3253,001,33,male,filipino,Bachelor,2024-03-06_15h04.33.242,CRL1h,2023.2.3,Linux x86_64,30.03003003,65e67470ae2fbf2172c317b2,65e885b4d2247d6a4fada9af,,,,,,,,,,,178.6267,0.9,179.5255,179.5256,182.2256,right,0,2.6858,,182.2257,183.2255,0,8,8,9,1,total,1,images/Ex10.jpg,left,training,hard,4,,,,,
,,,,,65d1d2f7bbb5b1ec274b3253,001,33,male,filipino,Bachelor,2024-03-06_15h04.33.242,CRL1h,2023.2.3,Linux x86_64,30.03003003,65e67470ae2fbf2172c317b2,65e885b4d2247d6a4fada9af,,,,,,,,,,,183.2421,1.1,184.3254,184.3255,185.6255,right,1,1.2844,,185.6256,186.6255,0,9,9,13,1,total,1,images/Ex14.jpg,right,training,hard,4,,,,,
,,,,,65d1d2f7bbb5b1ec274b3253,001,33,male,filipino,Bachelor,2024-03-06_15h04.33.242,CRL1h,2023.2.3,Linux x86_64,30.03003003,65e67470ae2fbf2172c317b2,65e885b4d2247d6a4fada9af,,,,,,,,,,,186.6268,0.7,187.3249,187.3249,187.9251,left,1,0.579,,187.9252,188.9254,0,10,10,1,1,total,1,images/Ex10.jpg,left,training,hard,4,,,,,
,,,,,65d1d2f7bbb5b1ec274b3253,001,33,male,filipino,Bachelor,2024-03-06_15h04.33.242,CRL1h,2023.2.3,Linux x86_64,30.03003003,65e67470ae2fbf2172c317b2,65e885b4d2247d6a4fada9af,,,,,,,,,,,188.9264,0.8,189.7252,189.7253,190.2922,right,0,0.551,,190.2923,191.2916,0,11,11,10,1,total,1,images/Ex11.jpg,left,training,hard,4,,,,,
,,,,,65d1d2f7bbb5b1ec274b3253,001,33,male,filipino,Bachelor,2024-03-06_15h04.33.242,CRL1h,2023.2.3,Linux x86_64,30.03003003,65e67470ae2fbf2172c317b2,65e885b4d2247d6a4fada9af,,,,,,,,,,,191.2922,1.5,192.7921,192.7921,194.2252,right,1,1.4277,,194.2253,195.2252,0,12,12,14,1,total,1,images/Ex15.jpg,right,training,hard,4,,,,,
,,,,,65d1d2f7bbb5b1ec274b3253,001,33,male,filipino,Bachelor,2024-03-06_15h04.33.242,CRL1h,2023.2.3,Linux x86_64,30.03003003,65e67470ae2fbf2172c317b2,65e885b4d2247d6a4fada9af,,,,,,,,,,,195.2261,0.7,195.9248,195.925,196.8587,right,0,0.9153,,196.8589,197.8586,0,13,13,2,1,total,1,images/Ex11.jpg,left,training,hard,4,,,,,
,,,,,65d1d2f7bbb5b1ec274b3253,001,33,male,filipino,Bachelor,2024-03-06_15h04.33.242,CRL1h,2023.2.3,Linux x86_64,30.03003003,65e67470ae2fbf2172c317b2,65e885b4d2247d6a4fada9af,,,,,,,,,,,197.8596,1,198.8586,198.8587,200.2585,right,1,1.3866,,200.2586,201.2585,0,14,14,5,1,total,1,images/Ex14.jpg,right,training,hard,4,,,,,
,,,,,65d1d2f7bbb5b1ec274b3253,001,33,male,filipino,Bachelor,2024-03-06_15h04.33.242,CRL1h,2023.2.3,Linux x86_64,30.03003003,65e67470ae2fbf2172c317b2,65e885b4d2247d6a4fada9af,,,,,,,,,,,201.2595,1.4,202.6586,202.6587,204.6587,left,1,1.9733,,204.6588,205.6586,0,15,15,8,1,total,1,images/Ex9.jpg,left,training,hard,4,,,,,
,,,,,65d1d2f7bbb5b1ec274b3253,001,33,male,filipino,Bachelor,2024-03-06_15h04.33.242,CRL1h,2023.2.3,Linux x86_64,30.03003003,65e67470ae2fbf2172c317b2,65e885b4d2247d6a4fada9af,,,,,,,,,,,205.6595,1.1,206.7587,206.7587,207.4252,right,1,0.6411,,207.4254,208.4253,1,0,16,6,1,total,1,images/Ex15.jpg,right,training,hard,4,,,,,
,,,,,65d1d2f7bbb5b1ec274b3253,001,33,male,filipino,Bachelor,2024-03-06_15h04.33.242,CRL1h,2023.2.3,Linux x86_64,30.03003003,65e67470ae2fbf2172c317b2,65e885b4d2247d6a4fada9af,,,,,,,,,,,208.4261,0.9,209.3251,209.3252,209.9585,left,1,0.6232,,209.9586,210.9585,1,1,17,9,1,total,1,images/Ex10.jpg,left,training,hard,4,,,,,
,,,,,65d1d2f7bbb5b1ec274b3253,001,33,male,filipino,Bachelor,2024-03-06_15h04.33.242,CRL1h,2023.2.3,Linux x86_64,30.03003003,65e67470ae2fbf2172c317b2,65e885b4d2247d6a4fada9af,,,,,,,,,,,210.9594,1.1,212.0583,212.0584,212.7919,right,1,0.7142,,212.7921,213.7916,1,2,18,15,1,total,1,images/Ex16.jpg,right,training,hard,4,,,,,
,,,,,65d1d2f7bbb5b1ec274b3253,001,33,male,filipino,Bachelor,2024-03-06_15h04.33.242,CRL1h,2023.2.3,Linux x86_64,30.03003003,65e67470ae2fbf2172c317b2,65e885b4d2247d6a4fada9af,,,,,,,,,,,213.7925,1.2,214.9914,214.9915,215.6584,left,1,0.6409,,215.6585,216.6583,1,3,19,11,1,total,1,images/Ex12.jpg,left,training,hard,4,,,,,
,,,,,65d1d2f7bbb5b1ec274b3253,001,33,male,filipino,Bachelor,2024-03-06_15h04.33.242,CRL1h,2023.2.3,Linux x86_64,30.03003003,65e67470ae2fbf2172c317b2,65e885b4d2247d6a4fada9af,,,,,,,,,,,216.6592,0.8,217.4582,217.4583,218.2251,right,1,0.7549,,218.2252,219.225,1,4,20,13,1,total,1,images/Ex14.jpg,right,training,hard,4,,,,,
,,,,,65d1d2f7bbb5b1ec274b3253,001,33,male,filipino,Bachelor,2024-03-06_15h04.33.242,CRL1h,2023.2.3,Linux x86_64,30.03003003,65e67470ae2fbf2172c317b2,65e885b4d2247d6a4fada9af,,,,,,,,,,,219.2258,1.1,220.325,220.3251,221.2251,right,1,0.8924,,221.2252,222.2249,1,5,21,7,1,total,1,images/Ex16.jpg,right,training,hard,4,,,,,
,,,,,65d1d2f7bbb5b1ec274b3253,001,33,male,filipino,Bachelor,2024-03-06_15h04.33.242,CRL1h,2023.2.3,Linux x86_64,30.03003003,65e67470ae2fbf2172c317b2,65e885b4d2247d6a4fada9af,,,,,,,,,,,222.2257,0.7,222.9251,222.9252,223.8909,left,0,0.96,,223.8909,224.8914,1,6,22,12,1,total,1,images/Ex13.jpg,right,training,hard,4,,,,,
,,,,,65d1d2f7bbb5b1ec274b3253,001,33,male,filipino,Bachelor,2024-03-06_15h04.33.242,CRL1h,2023.2.3,Linux x86_64,30.03003003,65e67470ae2fbf2172c317b2,65e885b4d2247d6a4fada9af,,,,,,,,,,,224.8923,0.6,225.4913,225.4914,226.225,left,0,0.7065,,226.2251,227.2246,1,7,23,14,1,total,1,images/Ex15.jpg,right,training,hard,4,,,,,
,,,,,65d1d2f7bbb5b1ec274b3253,001,33,male,filipino,Bachelor,2024-03-06_15h04.33.242,CRL1h,2023.2.3,Linux x86_64,30.03003003,65e67470ae2fbf2172c317b2,65e885b4d2247d6a4fada9af,,,,,,,,,,,227.2255,1,228.2247,228.2248,229.5905,left,1,1.3578,,229.5905,230.5913,1,8,24,1,1,total,1,images/Ex10.jpg,left,training,hard,4,,,,,
,,,,,65d1d2f7bbb5b1ec274b3253,001,33,male,filipino,Bachelor,2024-03-06_15h04.33.242,CRL1h,2023.2.3,Linux x86_64,30.03003003,65e67470ae2fbf2172c317b2,65e885b4d2247d6a4fada9af,,,,,,,,,,,230.5921,1.5,232.0914,232.0915,233.7248,left,1,1.6284,,233.7249,234.7249,1,9,25,3,1,total,1,images/Ex12.jpg,left,training,hard,4,,,,,
,,,,,65d1d2f7bbb5b1ec274b3253,001,33,male,filipino,Bachelor,2024-03-06_15h04.33.242,CRL1h,2023.2.3,Linux x86_64,30.03003003,65e67470ae2fbf2172c317b2,65e885b4d2247d6a4fada9af,,,,,,,,,,,234.7259,1.2,235.9249,235.925,237.2914,right,0,1.3571,,237.2915,238.2913,1,10,26,8,1,total,1,images/Ex9.jpg,left,training,hard,4,,,,,
,,,,,65d1d2f7bbb5b1ec274b3253,001,33,male,filipino,Bachelor,2024-03-06_15h04.33.242,CRL1h,2023.2.3,Linux x86_64,30.03003003,65e67470ae2fbf2172c317b2,65e885b4d2247d6a4fada9af,,,,,,,,,,,238.3077,0.7,238.9913,238.9914,239.7913,left,1,0.7747,,239.7913,240.7913,1,11,27,0,1,total,1,images/Ex9.jpg,left,training,hard,4,,,,,
,,,,,65d1d2f7bbb5b1ec274b3253,001,33,male,filipino,Bachelor,2024-03-06_15h04.33.242,CRL1h,2023.2.3,Linux x86_64,30.03003003,65e67470ae2fbf2172c317b2,65e885b4d2247d6a4fada9af,,,,,,,,,,,240.7922,1.3,242.0912,242.0913,243.1246,right,1,1.019,,243.1247,244.1246,1,12,28,5,1,total,1,images/Ex14.jpg,right,training,hard,4,,,,,
,,,,,65d1d2f7bbb5b1ec274b3253,001,33,male,filipino,Bachelor,2024-03-06_15h04.33.242,CRL1h,2023.2.3,Linux x86_64,30.03003003,65e67470ae2fbf2172c317b2,65e885b4d2247d6a4fada9af,,,,,,,,,,,244.1255,1.2,245.3247,245.3247,246.5579,right,1,1.2068,,246.558,247.5576,1,13,29,4,1,total,1,images/Ex13.jpg,right,training,hard,4,,,,,
,,,,,65d1d2f7bbb5b1ec274b3253,001,33,male,filipino,Bachelor,2024-03-06_15h04.33.242,CRL1h,2023.2.3,Linux x86_64,30.03003003,65e67470ae2fbf2172c317b2,65e885b4d2247d6a4fada9af,,,,,,,,,,,247.5585,1.1,248.6578,248.6578,249.7579,right,0,1.0789,,249.758,250.7576,1,14,30,2,1,total,1,images/Ex11.jpg,left,training,hard,4,,,,,
,,,,,65d1d2f7bbb5b1ec274b3253,001,33,male,filipino,Bachelor,2024-03-06_15h04.33.242,CRL1h,2023.2.3,Linux x86_64,30.03003003,65e67470ae2fbf2172c317b2,65e885b4d2247d6a4fada9af,,,,,,,,,,,250.7585,1,251.7576,251.7578,252.4916,left,1,0.7123,,252.4917,253.4908,1,15,31,10,1,total,1,images/Ex11.jpg,left,training,hard,4,,,,,
,,,,,65d1d2f7bbb5b1ec274b3253,001,33,male,filipino,Bachelor,2024-03-06_15h04.33.242,CRL1h,2023.2.3,Linux x86_64,30.03003003,65e67470ae2fbf2172c317b2,65e885b4d2247d6a4fada9af,,,,,,,,,,,253.4918,1,254.4912,254.4913,255.5912,right,1,1.0927,,255.5913,256.5907,2,0,32,14,1,total,1,images/Ex15.jpg,right,training,hard,4,,,,,
,,,,,65d1d2f7bbb5b1ec274b3253,001,33,male,filipino,Bachelor,2024-03-06_15h04.33.242,CRL1h,2023.2.3,Linux x86_64,30.03003003,65e67470ae2fbf2172c317b2,65e885b4d2247d6a4fada9af,,,,,,,,,,,256.5915,1.5,258.0909,258.091,258.8573,left,1,0.7628,,258.8574,259.8579,2,1,33,11,1,total,1,images/Ex12.jpg,left,training,hard,4,,,,,
,,,,,65d1d2f7bbb5b1ec274b3253,001,33,male,filipino,Bachelor,2024-03-06_15h04.33.242,CRL1h,2023.2.3,Linux x86_64,30.03003003,65e67470ae2fbf2172c317b2,65e885b4d2247d6a4fada9af,,,,,,,,,,,259.859,1,260.8575,260.8576,261.5233,right,1,0.6631,,261.5234,262.5242,2,2,34,6,1,total,1,images/Ex15.jpg,right,training,hard,4,,,,,
,,,,,65d1d2f7bbb5b1ec274b3253,001,33,male,filipino,Bachelor,2024-03-06_15h04.33.242,CRL1h,2023.2.3,Linux x86_64,30.03003003,65e67470ae2fbf2172c317b2,65e885b4d2247d6a4fada9af,,,,,,,,,,,262.5253,1.2,263.7234,263.7234,264.6575,right,1,0.9325,,264.6577,265.6572,2,3,35,5,1,total,1,images/Ex14.jpg,right,training,hard,4,,,,,
,,,,,65d1d2f7bbb5b1ec274b3253,001,33,male,filipino,Bachelor,2024-03-06_15h04.33.242,CRL1h,2023.2.3,Linux x86_64,30.03003003,65e67470ae2fbf2172c317b2,65e885b4d2247d6a4fada9af,,,,,,,,,,,265.658,0.9,266.5575,266.5575,267.2572,left,1,0.6822,,267.2574,268.2577,2,4,36,3,1,total,1,images/Ex12.jpg,left,training,hard,4,,,,,
,,,,,65d1d2f7bbb5b1ec274b3253,001,33,male,filipino,Bachelor,2024-03-06_15h04.33.242,CRL1h,2023.2.3,Linux x86_64,30.03003003,65e67470ae2fbf2172c317b2,65e885b4d2247d6a4fada9af,,,,,,,,,,,268.2587,1,269.2574,269.2575,270.0576,left,1,0.7923,,270.0576,271.0575,2,5,37,9,1,total,1,images/Ex10.jpg,left,training,hard,4,,,,,
,,,,,65d1d2f7bbb5b1ec274b3253,001,33,male,filipino,Bachelor,2024-03-06_15h04.33.242,CRL1h,2023.2.3,Linux x86_64,30.03003003,65e67470ae2fbf2172c317b2,65e885b4d2247d6a4fada9af,,,,,,,,,,,271.0584,1.3,272.3573,272.3574,273.0906,left,0,0.7222,,273.0908,274.0907,2,6,38,15,1,total,1,images/Ex16.jpg,right,training,hard,4,,,,,
,,,,,65d1d2f7bbb5b1ec274b3253,001,33,male,filipino,Bachelor,2024-03-06_15h04.33.242,CRL1h,2023.2.3,Linux x86_64,30.03003003,65e67470ae2fbf2172c317b2,65e885b4d2247d6a4fada9af,,,,,,,,,,,274.0916,1.5,275.5906,275.5907,276.5239,right,0,0.914,,276.5241,277.5242,2,7,39,2,1,total,1,images/Ex11.jpg,left,training,hard,4,,,,,
,,,,,65d1d2f7bbb5b1ec274b3253,001,33,male,filipino,Bachelor,2024-03-06_15h04.33.242,CRL1h,2023.2.3,Linux x86_64,30.03003003,65e67470ae2fbf2172c317b2,65e885b4d2247d6a4fada9af,,,,,,,,,,,277.525,0.6,278.124,278.124,278.8905,right,1,0.7596,,278.8906,279.8907,2,8,40,7,1,total,1,images/Ex16.jpg,right,training,hard,4,,,,,
,,,,,65d1d2f7bbb5b1ec274b3253,001,33,male,filipino,Bachelor,2024-03-06_15h04.33.242,CRL1h,2023.2.3,Linux x86_64,30.03003003,65e67470ae2fbf2172c317b2,65e885b4d2247d6a4fada9af,,,,,,,,,,,279.8917,0.8,280.6904,280.6905,281.6906,right,0,0.9852,,281.6908,282.6905,2,9,41,8,1,total,1,images/Ex9.jpg,left,training,hard,4,,,,,
,,,,,65d1d2f7bbb5b1ec274b3253,001,33,male,filipino,Bachelor,2024-03-06_15h04.33.242,CRL1h,2023.2.3,Linux x86_64,30.03003003,65e67470ae2fbf2172c317b2,65e885b4d2247d6a4fada9af,,,,,,,,,,,282.6916,1.1,283.7898,283.7899,285.1571,right,0,1.3455,,285.1572,286.1572,2,10,42,1,1,total,1,images/Ex10.jpg,left,training,hard,4,,,,,
,,,,,65d1d2f7bbb5b1ec274b3253,001,33,male,filipino,Bachelor,2024-03-06_15h04.33.242,CRL1h,2023.2.3,Linux x86_64,30.03003003,65e67470ae2fbf2172c317b2,65e885b4d2247d6a4fada9af,,,,,,,,,,,286.1668,0.9,287.0571,287.0571,288.6238,left,0,1.5427,,288.6239,289.6235,2,11,43,12,1,total,1,images/Ex13.jpg,right,training,hard,4,,,,,
,,,,,65d1d2f7bbb5b1ec274b3253,001,33,male,filipino,Bachelor,2024-03-06_15h04.33.242,CRL1h,2023.2.3,Linux x86_64,30.03003003,65e67470ae2fbf2172c317b2,65e885b4d2247d6a4fada9af,,,,,,,,,,,289.6246,0.9,290.5235,290.5236,291.2567,right,0,0.7284,,291.2567,292.257,2,12,44,0,1,total,1,images/Ex9.jpg,left,training,hard,4,,,,,
,,,,,65d1d2f7bbb5b1ec274b3253,001,33,male,filipino,Bachelor,2024-03-06_15h04.33.242,CRL1h,2023.2.3,Linux x86_64,30.03003003,65e67470ae2fbf2172c317b2,65e885b4d2247d6a4fada9af,,,,,,,,,,,292.2579,1.2,293.4571,293.4572,294.1238,right,0,0.6406,,294.1239,295.1236,2,13,45,10,1,total,1,images/Ex11.jpg,left,training,hard,4,,,,,
,,,,,65d1d2f7bbb5b1ec274b3253,001,33,male,filipino,Bachelor,2024-03-06_15h04.33.242,CRL1h,2023.2.3,Linux x86_64,30.03003003,65e67470ae2fbf2172c317b2,65e885b4d2247d6a4fada9af,,,,,,,,,,,295.1245,1,296.1236,296.1236,297.2906,right,1,1.1409,,297.2907,298.2905,2,14,46,4,1,total,1,images/Ex13.jpg,right,training,hard,4,,,,,
,,,,,65d1d2f7bbb5b1ec274b3253,001,33,male,filipino,Bachelor,2024-03-06_15h04.33.242,CRL1h,2023.2.3,Linux x86_64,30.03003003,65e67470ae2fbf2172c317b2,65e885b4d2247d6a4fada9af,,,,,,,,,,,298.2913,0.7,298.9903,298.9904,299.9234,right,1,0.9114,,299.9235,300.9235,2,15,47,13,1,total,1,images/Ex14.jpg,right,training,hard,4,,,,,
,,,,,65d1d2f7bbb5b1ec274b3253,001,33,male,filipino,Bachelor,2024-03-06_15h04.33.242,CRL1h,2023.2.3,Linux x86_64,30.03003003,65e67470ae2fbf2172c317b2,65e885b4d2247d6a4fada9af,,,,,,,,,,,300.9245,0.8,301.7234,301.7234,302.4901,right,1,0.758,,302.4902,303.4906,3,0,48,14,1,total,1,images/Ex15.jpg,right,training,hard,4,,,,,
,,,,,65d1d2f7bbb5b1ec274b3253,001,33,male,filipino,Bachelor,2024-03-06_15h04.33.242,CRL1h,2023.2.3,Linux x86_64,30.03003003,65e67470ae2fbf2172c317b2,65e885b4d2247d6a4fada9af,,,,,,,,,,,303.4915,0.7,304.1901,304.1903,305.1568,left,0,0.9444,,305.157,306.1572,3,1,49,13,1,total,1,images/Ex14.jpg,right,training,hard,4,,,,,
,,,,,65d1d2f7bbb5b1ec274b3253,001,33,male,filipino,Bachelor,2024-03-06_15h04.33.242,CRL1h,2023.2.3,Linux x86_64,30.03003003,65e67470ae2fbf2172c317b2,65e885b4d2247d6a4fada9af,,,,,,,,,,,306.158,0.8,306.9568,306.9569,307.7572,right,0,0.7732,,307.7573,308.7569,3,2,50,9,1,total,1,images/Ex10.jpg,left,training,hard,4,,,,,
,,,,,65d1d2f7bbb5b1ec274b3253,001,33,male,filipino,Bachelor,2024-03-06_15h04.33.242,CRL1h,2023.2.3,Linux x86_64,30.03003003,65e67470ae2fbf2172c317b2,65e885b4d2247d6a4fada9af,,,,,,,,,,,308.7578,1.2,309.9565,309.9566,312.1903,right,1,2.2076,,312.1903,313.1897,3,3,51,12,1,total,1,images/Ex13.jpg,right,training,hard,4,,,,,
,,,,,65d1d2f7bbb5b1ec274b3253,001,33,male,filipino,Bachelor,2024-03-06_15h04.33.242,CRL1h,2023.2.3,Linux x86_64,30.03003003,65e67470ae2fbf2172c317b2,65e885b4d2247d6a4fada9af,,,,,,,,,,,313.2071,1.4,314.5901,314.5902,315.49,right,1,0.8817,,315.4901,316.4902,3,4,52,5,1,total,1,images/Ex14.jpg,right,training,hard,4,,,,,
,,,,,65d1d2f7bbb5b1ec274b3253,001,33,male,filipino,Bachelor,2024-03-06_15h04.33.242,CRL1h,2023.2.3,Linux x86_64,30.03003003,65e67470ae2fbf2172c317b2,65e885b4d2247d6a4fada9af,,,,,,,,,,,316.491,0.9,317.3897,317.3899,318.7234,right,1,1.3149,,318.7235,319.7233,3,5,53,7,1,total,1,images/Ex16.jpg,right,training,hard,4,,,,,
,,,,,65d1d2f7bbb5b1ec274b3253,001,33,male,filipino,Bachelor,2024-03-06_15h04.33.242,CRL1h,2023.2.3,Linux x86_64,30.03003003,65e67470ae2fbf2172c317b2,65e885b4d2247d6a4fada9af,,,,,,,,,,,319.7242,1.3,321.0233,321.0234,321.4899,right,0,0.4488,,321.49,322.4897,3,6,54,10,1,total,1,images/Ex11.jpg,left,training,hard,4,,,,,
,,,,,65d1d2f7bbb5b1ec274b3253,001,33,male,filipino,Bachelor,2024-03-06_15h04.33.242,CRL1h,2023.2.3,Linux x86_64,30.03003003,65e67470ae2fbf2172c317b2,65e885b4d2247d6a4fada9af,,,,,,,,,,,322.4906,0.9,323.3902,323.3902,324.2226,right,1,0.8049,,324.2227,325.2232,3,7,55,15,1,total,1,images/Ex16.jpg,right,training,hard,4,,,,,
,,,,,65d1d2f7bbb5b1ec274b3253,001,33,male,filipino,Bachelor,2024-03-06_15h04.33.242,CRL1h,2023.2.3,Linux x86_64,30.03003003,65e67470ae2fbf2172c317b2,65e885b4d2247d6a4fada9af,,,,,,,,,,,325.224,1.1,326.3233,326.3233,327.2897,right,0,0.9585,,327.2898,328.2899,3,8,56,1,1,total,1,images/Ex10.jpg,left,training,hard,4,,,,,
,,,,,65d1d2f7bbb5b1ec274b3253,001,33,male,filipino,Bachelor,2024-03-06_15h04.33.242,CRL1h,2023.2.3,Linux x86_64,30.03003003,65e67470ae2fbf2172c317b2,65e885b4d2247d6a4fada9af,,,,,,,,,,,328.2909,1.3,329.5899,329.59,330.4564,left,1,0.8407,,330.4566,331.4566,3,9,57,11,1,total,1,images/Ex12.jpg,left,training,hard,4,,,,,
,,,,,65d1d2f7bbb5b1ec274b3253,001,33,male,filipino,Bachelor,2024-03-06_15h04.33.242,CRL1h,2023.2.3,Linux x86_64,30.03003003,65e67470ae2fbf2172c317b2,65e885b4d2247d6a4fada9af,,,,,,,,,,,331.4575,0.6,332.0562,332.0562,332.7564,left,1,0.6846,,332.7564,333.756,3,10,58,3,1,total,1,images/Ex12.jpg,left,training,hard,4,,,,,
,,,,,65d1d2f7bbb5b1ec274b3253,001,33,male,filipino,Bachelor,2024-03-06_15h04.33.242,CRL1h,2023.2.3,Linux x86_64,30.03003003,65e67470ae2fbf2172c317b2,65e885b4d2247d6a4fada9af,,,,,,,,,,,333.7569,0.7,334.4567,334.4567,335.757,right,0,1.298,,335.757,336.7564,3,11,59,0,1,total,1,images/Ex9.jpg,left,training,hard,4,,,,,
,,,,,65d1d2f7bbb5b1ec274b3253,001,33,male,filipino,Bachelor,2024-03-06_15h04.33.242,CRL1h,2023.2.3,Linux x86_64,30.03003003,65e67470ae2fbf2172c317b2,65e885b4d2247d6a4fada9af,,,,,,,,,,,336.7573,0.6,337.3563,337.3563,338.2562,left,1,0.8939,,338.2563,339.2561,3,12,60,2,1,total,1,images/Ex11.jpg,left,training,hard,4,,,,,
,,,,,65d1d2f7bbb5b1ec274b3253,001,33,male,filipino,Bachelor,2024-03-06_15h04.33.242,CRL1h,2023.2.3,Linux x86_64,30.03003003,65e67470ae2fbf2172c317b2,65e885b4d2247d6a4fada9af,,,,,,,,,,,339.2572,1,340.2565,340.2565,340.8895,left,0,0.6152,,340.8896,341.8896,3,13,61,4,1,total,1,images/Ex13.jpg,right,training,hard,4,,,,,
,,,,,65d1d2f7bbb5b1ec274b3253,001,33,male,filipino,Bachelor,2024-03-06_15h04.33.242,CRL1h,2023.2.3,Linux x86_64,30.03003003,65e67470ae2fbf2172c317b2,65e885b4d2247d6a4fada9af,,,,,,,,,,,341.8904,0.6,342.4894,342.4895,343.4564,right,1,0.9403,,343.4564,344.4563,3,14,62,6,1,total,1,images/Ex15.jpg,right,training,hard,4,,,,,
,,,,,65d1d2f7bbb5b1ec274b3253,001,33,male,filipino,Bachelor,2024-03-06_15h04.33.242,CRL1h,2023.2.3,Linux x86_64,30.03003003,65e67470ae2fbf2172c317b2,65e885b4d2247d6a4fada9af,,,,,,,,,,,344.4571,1.2,345.6561,345.6562,346.5898,right,0,0.907,,346.5898,347.5893,3,15,63,8,1,total,1,images/Ex9.jpg,left,training,hard,4,,,,,
,,,,,65d1d2f7bbb5b1ec274b3253,001,33,male,filipino,Bachelor,2024-03-06_15h04.33.242,CRL1h,2023.2.3,Linux x86_64,30.03003003,65e67470ae2fbf2172c317b2,65e885b4d2247d6a4fada9af,,,,,,,,,,,347.5904,1.5,349.0893,349.0896,349.923,left,1,0.8141,,349.9231,350.9226,4,0,64,11,1,total,1,images/Ex12.jpg,left,training,hard,4,,,,,
,,,,,65d1d2f7bbb5b1ec274b3253,001,33,male,filipino,Bachelor,2024-03-06_15h04.33.242,CRL1h,2023.2.3,Linux x86_64,30.03003003,65e67470ae2fbf2172c317b2,65e885b4d2247d6a4fada9af,,,,,,,,,,,350.9235,1.2,352.1224,352.1224,353.3893,left,1,1.2466,,353.3893,354.3895,4,1,65,8,1,total,1,images/Ex9.jpg,left,training,hard,4,,,,,
,,,,,65d1d2f7bbb5b1ec274b3253,001,33,male,filipino,Bachelor,2024-03-06_15h04.33.242,CRL1h,2023.2.3,Linux x86_64,30.03003003,65e67470ae2fbf2172c317b2,65e885b4d2247d6a4fada9af,,,,,,,,,,,354.3906,0.7,355.0895,355.0896,355.9892,left,1,0.8735,,355.9893,356.9892,4,2,66,9,1,total,1,images/Ex10.jpg,left,training,hard,4,,,,,
,,,,,65d1d2f7bbb5b1ec274b3253,001,33,male,filipino,Bachelor,2024-03-06_15h04.33.242,CRL1h,2023.2.3,Linux x86_64,30.03003003,65e67470ae2fbf2172c317b2,65e885b4d2247d6a4fada9af,,,,,,,,,,,356.9901,0.7,357.6893,357.6894,358.723,left,1,1.0078,,358.723,359.7226,4,3,67,10,1,total,1,images/Ex11.jpg,left,training,hard,4,,,,,
,,,,,65d1d2f7bbb5b1ec274b3253,001,33,male,filipino,Bachelor,2024-03-06_15h04.33.242,CRL1h,2023.2.3,Linux x86_64,30.03003003,65e67470ae2fbf2172c317b2,65e885b4d2247d6a4fada9af,,,,,,,,,,,359.7237,0.7,360.4226,360.4227,361.1894,right,1,0.7404,,361.1895,362.1893,4,4,68,6,1,total,1,images/Ex15.jpg,right,training,hard,4,,,,,
,,,,,65d1d2f7bbb5b1ec274b3253,001,33,male,filipino,Bachelor,2024-03-06_15h04.33.242,CRL1h,2023.2.3,Linux x86_64,30.03003003,65e67470ae2fbf2172c317b2,65e885b4d2247d6a4fada9af,,,,,,,,,,,362.1904,0.8,362.989,362.9891,363.7227,left,1,0.7071,,363.7228,364.7225,4,5,69,3,1,total,1,images/Ex12.jpg,left,training,hard,4,,,,,
,,,,,65d1d2f7bbb5b1ec274b3253,001,33,male,filipino,Bachelor,2024-03-06_15h04.33.242,CRL1h,2023.2.3,Linux x86_64,30.03003003,65e67470ae2fbf2172c317b2,65e885b4d2247d6a4fada9af,,,,,,,,,,,364.7235,1,365.7223,365.7224,367.1557,left,1,1.4107,,367.1558,368.1556,4,6,70,2,1,total,1,images/Ex11.jpg,left,training,hard,4,,,,,
,,,,,65d1d2f7bbb5b1ec274b3253,001,33,male,filipino,Bachelor,2024-03-06_15h04.33.242,CRL1h,2023.2.3,Linux x86_64,30.03003003,65e67470ae2fbf2172c317b2,65e885b4d2247d6a4fada9af,,,,,,,,,,,368.1649,0.7,368.8561,368.8562,369.8561,left,0,0.9815,,369.8561,370.8556,4,7,71,4,1,total,1,images/Ex13.jpg,right,training,hard,4,,,,,
,,,,,65d1d2f7bbb5b1ec274b3253,001,33,male,filipino,Bachelor,2024-03-06_15h04.33.242,CRL1h,2023.2.3,Linux x86_64,30.03003003,65e67470ae2fbf2172c317b2,65e885b4d2247d6a4fada9af,,,,,,,,,,,370.8566,1,371.8558,371.8559,372.9222,left,1,1.0595,,372.9222,373.9222,4,8,72,1,1,total,1,images/Ex10.jpg,left,training,hard,4,,,,,
,,,,,65d1d2f7bbb5b1ec274b3253,001,33,male,filipino,Bachelor,2024-03-06_15h04.33.242,CRL1h,2023.2.3,Linux x86_64,30.03003003,65e67470ae2fbf2172c317b2,65e885b4d2247d6a4fada9af,,,,,,,,,,,373.9231,0.8,374.7224,374.7225,376.0564,right,1,1.3318,,376.0566,377.0554,4,9,73,15,1,total,1,images/Ex16.jpg,right,training,hard,4,,,,,
,,,,,65d1d2f7bbb5b1ec274b3253,001,33,male,filipino,Bachelor,2024-03-06_15h04.33.242,CRL1h,2023.2.3,Linux x86_64,30.03003003,65e67470ae2fbf2172c317b2,65e885b4d2247d6a4fada9af,,,,,,,,,,,377.0564,1,378.0555,378.0555,378.8886,right,1,0.8287,,378.8887,379.8887,4,10,74,14,1,total,1,images/Ex15.jpg,right,training,hard,4,,,,,
,,,,,65d1d2f7bbb5b1ec274b3253,001,33,male,filipino,Bachelor,2024-03-06_15h04.33.242,CRL1h,2023.2.3,Linux x86_64,30.03003003,65e67470ae2fbf2172c317b2,65e885b4d2247d6a4fada9af,,,,,,,,,,,379.8895,1.1,380.9887,380.9888,382.2891,left,1,1.2889,,382.2892,383.2888,4,11,75,0,1,total,1,images/Ex9.jpg,left,training,hard,4,,,,,
,,,,,65d1d2f7bbb5b1ec274b3253,001,33,male,filipino,Bachelor,2024-03-06_15h04.33.242,CRL1h,2023.2.3,Linux x86_64,30.03003003,65e67470ae2fbf2172c317b2,65e885b4d2247d6a4fada9af,,,,,,,,,,,383.2897,1.3,384.5889,384.589,386.0558,right,1,1.4413,,386.0559,387.0553,4,12,76,7,1,total,1,images/Ex16.jpg,right,training,hard,4,,,,,
,,,,,65d1d2f7bbb5b1ec274b3253,001,33,male,filipino,Bachelor,2024-03-06_15h04.33.242,CRL1h,2023.2.3,Linux x86_64,30.03003003,65e67470ae2fbf2172c317b2,65e885b4d2247d6a4fada9af,,,,,,,,,,,387.0564,1,388.0553,388.0553,389.0221,right,1,0.9482,,389.0221,390.0217,4,13,77,13,1,total,1,images/Ex14.jpg,right,training,hard,4,,,,,
,,,,,65d1d2f7bbb5b1ec274b3253,001,33,male,filipino,Bachelor,2024-03-06_15h04.33.242,CRL1h,2023.2.3,Linux x86_64,30.03003003,65e67470ae2fbf2172c317b2,65e885b4d2247d6a4fada9af,,,,,,,,,,,390.0223,1.2,391.222,391.222,392.022,right,1,0.7774,,392.0221,393.0222,4,14,78,12,1,total,1,images/Ex13.jpg,right,training,hard,4,,,,,
,,,,,65d1d2f7bbb5b1ec274b3253,001,33,male,filipino,Bachelor,2024-03-06_15h04.33.242,CRL1h,2023.2.3,Linux x86_64,30.03003003,65e67470ae2fbf2172c317b2,65e885b4d2247d6a4fada9af,,,,,,,,,,,393.023,1,394.0219,394.022,395.1886,right,1,1.1453,,395.1886,396.1886,4,15,79,5,1,total,1,images/Ex14.jpg,right,training,hard,4,,,,,
,,,,,65d1d2f7bbb5b1ec274b3253,001,33,male,filipino,Bachelor,2024-03-06_15h04.33.242,CRL1h,2023.2.3,Linux x86_64,30.03003003,65e67470ae2fbf2172c317b2,65e885b4d2247d6a4fada9af,,,,,,,,,,,396.1895,0.8,396.9886,396.9886,397.6554,right,1,0.6552,,397.6555,398.6554,5,0,80,6,1,total,1,images/Ex15.jpg,right,training,hard,4,,,,,
,,,,,65d1d2f7bbb5b1ec274b3253,001,33,male,filipino,Bachelor,2024-03-06_15h04.33.242,CRL1h,2023.2.3,Linux x86_64,30.03003003,65e67470ae2fbf2172c317b2,65e885b4d2247d6a4fada9af,,,,,,,,,,,398.6563,0.7,399.3553,399.3554,400.4555,right,1,1.0736,,400.4556,401.4549,5,1,81,4,1,total,1,images/Ex13.jpg,right,training,hard,4,,,,,
,,,,,65d1d2f7bbb5b1ec274b3253,001,33,male,filipino,Bachelor,2024-03-06_15h04.33.242,CRL1h,2023.2.3,Linux x86_64,30.03003003,65e67470ae2fbf2172c317b2,65e885b4d2247d6a4fada9af,,,,,,,,,,,401.4558,1.2,402.6553,402.6553,403.4552,left,1,0.7734,,403.4554,404.4552,5,2,82,3,1,total,1,images/Ex12.jpg,left,training,hard,4,,,,,
,,,,,65d1d2f7bbb5b1ec274b3253,001,33,male,filipino,Bachelor,2024-03-06_15h04.33.242,CRL1h,2023.2.3,Linux x86_64,30.03003003,65e67470ae2fbf2172c317b2,65e885b4d2247d6a4fada9af,,,,,,,,,,,404.4561,0.5,404.9549,404.955,406.2884,left,1,1.3303,,406.2884,407.2885,5,3,83,1,1,total,1,images/Ex10.jpg,left,training,hard,4,,,,,
,,,,,65d1d2f7bbb5b1ec274b3253,001,33,male,filipino,Bachelor,2024-03-06_15h04.33.242,CRL1h,2023.2.3,Linux x86_64,30.03003003,65e67470ae2fbf2172c317b2,65e885b4d2247d6a4fada9af,,,,,,,,,,,407.2893,1.2,408.4883,408.4884,409.2886,right,0,0.7832,,409.2888,410.2884,5,4,84,8,1,total,1,images/Ex9.jpg,left,training,hard,4,,,,,
,,,,,65d1d2f7bbb5b1ec274b3253,001,33,male,filipino,Bachelor,2024-03-06_15h04.33.242,CRL1h,2023.2.3,Linux x86_64,30.03003003,65e67470ae2fbf2172c317b2,65e885b4d2247d6a4fada9af,,,,,,,,,,,410.2893,0.5,410.7883,410.7884,411.6885,right,1,0.8777,,411.6886,412.6884,5,5,85,13,1,total,1,images/Ex14.jpg,right,training,hard,4,,,,,
,,,,,65d1d2f7bbb5b1ec274b3253,001,33,male,filipino,Bachelor,2024-03-06_15h04.33.242,CRL1h,2023.2.3,Linux x86_64,30.03003003,65e67470ae2fbf2172c317b2,65e885b4d2247d6a4fada9af,,,,,,,,,,,412.6894,0.5,413.1882,413.1882,413.8213,left,1,0.6278,,413.8214,414.8217,5,6,86,9,1,total,1,images/Ex10.jpg,left,training,hard,4,,,,,
,,,,,65d1d2f7bbb5b1ec274b3253,001,33,male,filipino,Bachelor,2024-03-06_15h04.33.242,CRL1h,2023.2.3,Linux x86_64,30.03003003,65e67470ae2fbf2172c317b2,65e885b4d2247d6a4fada9af,,,,,,,,,,,414.8227,0.5,415.3216,415.3218,415.9551,right,0,0.6107,,415.9551,416.9547,5,7,87,0,1,total,1,images/Ex9.jpg,left,training,hard,4,,,,,
,,,,,65d1d2f7bbb5b1ec274b3253,001,33,male,filipino,Bachelor,2024-03-06_15h04.33.242,CRL1h,2023.2.3,Linux x86_64,30.03003003,65e67470ae2fbf2172c317b2,65e885b4d2247d6a4fada9af,,,,,,,,,,,416.9557,0.6,417.5547,417.5549,418.1885,right,0,0.6317,,418.1886,419.1883,5,8,88,10,1,total,1,images/Ex11.jpg,left,training,hard,4,,,,,
,,,,,65d1d2f7bbb5b1ec274b3253,001,33,male,filipino,Bachelor,2024-03-06_15h04.33.242,CRL1h,2023.2.3,Linux x86_64,30.03003003,65e67470ae2fbf2172c317b2,65e885b4d2247d6a4fada9af,,,,,,,,,,,419.1892,1.4,420.5882,420.5883,421.3217,right,1,0.7066,,421.3218,422.3216,5,9,89,15,1,total,1,images/Ex16.jpg,right,training,hard,4,,,,,
,,,,,65d1d2f7bbb5b1ec274b3253,001,33,male,filipino,Bachelor,2024-03-06_15h04.33.242,CRL1h,2023.2.3,Linux x86_64,30.03003003,65e67470ae2fbf2172c317b2,65e885b4d2247d6a4fada9af,,,,,,,,,,,422.3226,0.6,422.9214,422.9214,424.2551,left,1,1.3245,,424.2553,425.2549,5,10,90,11,1,total,1,images/Ex12.jpg,left,training,hard,4,,,,,
,,,,,65d1d2f7bbb5b1ec274b3253,001,33,male,filipino,Bachelor,2024-03-06_15h04.33.242,CRL1h,2023.2.3,Linux x86_64,30.03003003,65e67470ae2fbf2172c317b2,65e885b4d2247d6a4fada9af,,,,,,,,,,,425.2557,0.7,425.9547,425.9549,427.4544,right,1,1.4741,,427.4545,428.4546,5,11,91,12,1,total,1,images/Ex13.jpg,right,training,hard,4,,,,,
,,,,,65d1d2f7bbb5b1ec274b3253,001,33,male,filipino,Bachelor,2024-03-06_15h04.33.242,CRL1h,2023.2.3,Linux x86_64,30.03003003,65e67470ae2fbf2172c317b2,65e885b4d2247d6a4fada9af,,,,,,,,,,,428.4699,1.2,429.6547,429.6547,430.3549,right,1,0.6799,,430.355,431.3548,5,12,92,14,1,total,1,images/Ex15.jpg,right,training,hard,4,,,,,
,,,,,65d1d2f7bbb5b1ec274b3253,001,33,male,filipino,Bachelor,2024-03-06_15h04.33.242,CRL1h,2023.2.3,Linux x86_64,30.03003003,65e67470ae2fbf2172c317b2,65e885b4d2247d6a4fada9af,,,,,,,,,,,431.3558,0.6,431.9545,431.9546,432.8548,right,1,0.8827,,432.855,433.8548,5,13,93,7,1,total,1,images/Ex16.jpg,right,training,hard,4,,,,,
,,,,,65d1d2f7bbb5b1ec274b3253,001,33,male,filipino,Bachelor,2024-03-06_15h04.33.242,CRL1h,2023.2.3,Linux x86_64,30.03003003,65e67470ae2fbf2172c317b2,65e885b4d2247d6a4fada9af,,,,,,,,,,,433.8557,0.9,434.7548,434.7549,436.2214,left,1,1.4509,,436.2214,437.2213,5,14,94,2,1,total,1,images/Ex11.jpg,left,training,hard,4,,,,,
,,,,,65d1d2f7bbb5b1ec274b3253,001,33,male,filipino,Bachelor,2024-03-06_15h04.33.242,CRL1h,2023.2.3,Linux x86_64,30.03003003,65e67470ae2fbf2172c317b2,65e885b4d2247d6a4fada9af,,,,,,,,,,,437.2224,0.7,437.9212,437.9212,438.9547,left,0,1.0237,,438.9548,439.9544,5,15,95,5,1,total,1,images/Ex14.jpg,right,training,hard,4,,,,,
,,,,,65d1d2f7bbb5b1ec274b3253,001,33,male,filipino,Bachelor,2024-03-06_15h04.33.242,CRL1h,2023.2.3,Linux x86_64,30.03003003,65e67470ae2fbf2172c317b2,65e885b4d2247d6a4fada9af,,,,,,,,,,,439.9553,1.2,441.1549,441.155,441.9541,right,1,0.7844,,441.9542,442.9546,6,0,96,15,1,total,1,images/Ex16.jpg,right,training,hard,4,,,,,
,,,,,65d1d2f7bbb5b1ec274b3253,001,33,male,filipino,Bachelor,2024-03-06_15h04.33.242,CRL1h,2023.2.3,Linux x86_64,30.03003003,65e67470ae2fbf2172c317b2,65e885b4d2247d6a4fada9af,,,,,,,,,,,442.9555,1.2,444.1543,444.1545,445.1211,left,1,0.9496,,445.1212,446.1213,6,1,97,11,1,total,1,images/Ex12.jpg,left,training,hard,4,,,,,
,,,,,65d1d2f7bbb5b1ec274b3253,001,33,male,filipino,Bachelor,2024-03-06_15h04.33.242,CRL1h,2023.2.3,Linux x86_64,30.03003003,65e67470ae2fbf2172c317b2,65e885b4d2247d6a4fada9af,,,,,,,,,,,446.1222,0.6,446.7211,446.7212,448.7544,left,1,2.0258,,448.7545,449.7544,6,2,98,10,1,total,1,images/Ex11.jpg,left,training,hard,4,,,,,
,,,,,65d1d2f7bbb5b1ec274b3253,001,33,male,filipino,Bachelor,2024-03-06_15h04.33.242,CRL1h,2023.2.3,Linux x86_64,30.03003003,65e67470ae2fbf2172c317b2,65e885b4d2247d6a4fada9af,,,,,,,,,,,449.7552,1,450.7547,450.7547,451.4875,left,1,0.7233,,451.4876,452.4871,6,3,99,2,1,total,1,images/Ex11.jpg,left,training,hard,4,,,,,
,,,,,65d1d2f7bbb5b1ec274b3253,001,33,male,filipino,Bachelor,2024-03-06_15h04.33.242,CRL1h,2023.2.3,Linux x86_64,30.03003003,65e67470ae2fbf2172c317b2,65e885b4d2247d6a4fada9af,,,,,,,,,,,452.4876,1,453.4871,453.4871,455.3212,right,0,1.8081,,455.3212,456.3208,6,4,100,8,1,total,1,images/Ex9.jpg,left,training,hard,4,,,,,
,,,,,65d1d2f7bbb5b1ec274b3253,001,33,male,filipino,Bachelor,2024-03-06_15h04.33.242,CRL1h,2023.2.3,Linux x86_64,30.03003003,65e67470ae2fbf2172c317b2,65e885b4d2247d6a4fada9af,,,,,,,,,,,456.3299,1.2,457.5211,457.5212,458.7875,right,1,1.2492,,458.7876,459.7876,6,5,101,12,1,total,1,images/Ex13.jpg,right,training,hard,4,,,,,
,,,,,65d1d2f7bbb5b1ec274b3253,001,33,male,filipino,Bachelor,2024-03-06_15h04.33.242,CRL1h,2023.2.3,Linux x86_64,30.03003003,65e67470ae2fbf2172c317b2,65e885b4d2247d6a4fada9af,,,,,,,,,,,459.7886,0.8,460.5874,460.5876,462.0876,right,1,1.4865,,462.0877,463.0874,6,6,102,13,1,total,1,images/Ex14.jpg,right,training,hard,4,,,,,
,,,,,65d1d2f7bbb5b1ec274b3253,001,33,male,filipino,Bachelor,2024-03-06_15h04.33.242,CRL1h,2023.2.3,Linux x86_64,30.03003003,65e67470ae2fbf2172c317b2,65e885b4d2247d6a4fada9af,,,,,,,,,,,463.0883,1.3,464.3874,464.3874,465.3542,left,0,0.9462,,465.3543,466.3543,6,7,103,5,1,total,1,images/Ex14.jpg,right,training,hard,4,,,,,
,,,,,65d1d2f7bbb5b1ec274b3253,001,33,male,filipino,Bachelor,2024-03-06_15h04.33.242,CRL1h,2023.2.3,Linux x86_64,30.03003003,65e67470ae2fbf2172c317b2,65e885b4d2247d6a4fada9af,,,,,,,,,,,466.3554,1.2,467.5542,467.5542,468.4541,left,1,0.8889,,468.4542,469.454,6,8,104,1,1,total,1,images/Ex10.jpg,left,training,hard,4,,,,,
,,,,,65d1d2f7bbb5b1ec274b3253,001,33,male,filipino,Bachelor,2024-03-06_15h04.33.242,CRL1h,2023.2.3,Linux x86_64,30.03003003,65e67470ae2fbf2172c317b2,65e885b4d2247d6a4fada9af,,,,,,,,,,,469.4548,0.5,469.9534,469.9535,470.9541,right,1,0.9896,,470.9542,471.954,6,9,105,7,1,total,1,images/Ex16.jpg,right,training,hard,4,,,,,
,,,,,65d1d2f7bbb5b1ec274b3253,001,33,male,filipino,Bachelor,2024-03-06_15h04.33.242,CRL1h,2023.2.3,Linux x86_64,30.03003003,65e67470ae2fbf2172c317b2,65e885b4d2247d6a4fada9af,,,,,,,,,,,471.9549,1.3,473.254,473.2541,474.2543,left,1,0.9748,,474.2543,475.2539,6,10,106,3,1,total,1,images/Ex12.jpg,left,training,hard,4,,,,,
,,,,,65d1d2f7bbb5b1ec274b3253,001,33,male,filipino,Bachelor,2024-03-06_15h04.33.242,CRL1h,2023.2.3,Linux x86_64,30.03003003,65e67470ae2fbf2172c317b2,65e885b4d2247d6a4fada9af,,,,,,,,,,,475.2547,1,476.2539,476.2539,477.2538,right,1,0.9771,,477.2539,478.2539,6,11,107,6,1,total,1,images/Ex15.jpg,right,training,hard,4,,,,,
,,,,,65d1d2f7bbb5b1ec274b3253,001,33,male,filipino,Bachelor,2024-03-06_15h04.33.242,CRL1h,2023.2.3,Linux x86_64,30.03003003,65e67470ae2fbf2172c317b2,65e885b4d2247d6a4fada9af,,,,,,,,,,,478.2547,0.8,479.0542,479.0543,479.9873,left,1,0.9183,,479.9874,480.9871,6,12,108,9,1,total,1,images/Ex10.jpg,left,training,hard,4,,,,,
,,,,,65d1d2f7bbb5b1ec274b3253,001,33,male,filipino,Bachelor,2024-03-06_15h04.33.242,CRL1h,2023.2.3,Linux x86_64,30.03003003,65e67470ae2fbf2172c317b2,65e885b4d2247d6a4fada9af,,,,,,,,,,,480.988,1.3,482.2873,482.2874,483.1206,right,1,0.8087,,483.1207,484.1203,6,13,109,14,1,total,1,images/Ex15.jpg,right,training,hard,4,,,,,
,,,,,65d1d2f7bbb5b1ec274b3253,001,33,male,filipino,Bachelor,2024-03-06_15h04.33.242,CRL1h,2023.2.3,Linux x86_64,30.03003003,65e67470ae2fbf2172c317b2,65e885b4d2247d6a4fada9af,,,,,,,,,,,484.1212,1,485.1204,485.1205,486.0539,left,1,0.9092,,486.0539,487.0535,6,14,110,0,1,total,1,images/Ex9.jpg,left,training,hard,4,,,,,
,,,,,65d1d2f7bbb5b1ec274b3253,001,33,male,filipino,Bachelor,2024-03-06_15h04.33.242,CRL1h,2023.2.3,Linux x86_64,30.03003003,65e67470ae2fbf2172c317b2,65e885b4d2247d6a4fada9af,,,,,,,,,,,487.0545,0.6,487.6535,487.6536,488.8868,right,1,1.2238,,488.8869,489.887,6,15,111,4,1,total,1,images/Ex13.jpg,right,training,hard,4,,,,,
,,,,,65d1d2f7bbb5b1ec274b3253,001,33,male,filipino,Bachelor,2024-03-06_15h04.33.242,CRL1h,2023.2.3,Linux x86_64,30.03003003,65e67470ae2fbf2172c317b2,65e885b4d2247d6a4fada9af,,,,,,,,,,,489.888,1.4,491.2871,491.2872,494.3534,right,0,3.0485,,494.3535,495.3534,7,0,112,8,1,total,1,images/Ex9.jpg,left,training,hard,4,,,,,
,,,,,65d1d2f7bbb5b1ec274b3253,001,33,male,filipino,Bachelor,2024-03-06_15h04.33.242,CRL1h,2023.2.3,Linux x86_64,30.03003003,65e67470ae2fbf2172c317b2,65e885b4d2247d6a4fada9af,,,,,,,,,,,495.368,0.7,496.0534,496.0535,497.4867,left,1,1.4073,,497.4868,498.4868,7,1,113,2,1,total,1,images/Ex11.jpg,left,training,hard,4,,,,,
,,,,,65d1d2f7bbb5b1ec274b3253,001,33,male,filipino,Bachelor,2024-03-06_15h04.33.242,CRL1h,2023.2.3,Linux x86_64,30.03003003,65e67470ae2fbf2172c317b2,65e885b4d2247d6a4fada9af,,,,,,,,,,,498.4877,0.9,499.3868,499.3869,500.8197,right,1,1.4304,,500.8198,501.82,7,2,114,12,1,total,1,images/Ex13.jpg,right,training,hard,4,,,,,
,,,,,65d1d2f7bbb5b1ec274b3253,001,33,male,filipino,Bachelor,2024-03-06_15h04.33.242,CRL1h,2023.2.3,Linux x86_64,30.03003003,65e67470ae2fbf2172c317b2,65e885b4d2247d6a4fada9af,,,,,,,,,,,501.8209,1.3,503.1203,503.1203,504.0536,left,1,0.9201,,504.0536,505.0533,7,3,115,3,1,total,1,images/Ex12.jpg,left,training,hard,4,,,,,
,,,,,65d1d2f7bbb5b1ec274b3253,001,33,male,filipino,Bachelor,2024-03-06_15h04.33.242,CRL1h,2023.2.3,Linux x86_64,30.03003003,65e67470ae2fbf2172c317b2,65e885b4d2247d6a4fada9af,,,,,,,,,,,505.054,0.9,505.9533,505.9534,506.8866,right,1,0.9073,,506.8867,507.8867,7,4,116,13,1,total,1,images/Ex14.jpg,right,training,hard,4,,,,,
,,,,,65d1d2f7bbb5b1ec274b3253,001,33,male,filipino,Bachelor,2024-03-06_15h04.33.242,CRL1h,2023.2.3,Linux x86_64,30.03003003,65e67470ae2fbf2172c317b2,65e885b4d2247d6a4fada9af,,,,,,,,,,,507.8877,0.7,508.5869,508.587,509.2203,right,1,0.6314,,509.2205,510.2199,7,5,117,7,1,total,1,images/Ex16.jpg,right,training,hard,4,,,,,
,,,,,65d1d2f7bbb5b1ec274b3253,001,33,male,filipino,Bachelor,2024-03-06_15h04.33.242,CRL1h,2023.2.3,Linux x86_64,30.03003003,65e67470ae2fbf2172c317b2,65e885b4d2247d6a4fada9af,,,,,,,,,,,510.2208,1,511.2199,511.22,512.0199,right,1,0.7979,,512.02,513.02,7,6,118,6,1,total,1,images/Ex15.jpg,right,training,hard,4,,,,,
,,,,,65d1d2f7bbb5b1ec274b3253,001,33,male,filipino,Bachelor,2024-03-06_15h04.33.242,CRL1h,2023.2.3,Linux x86_64,30.03003003,65e67470ae2fbf2172c317b2,65e885b4d2247d6a4fada9af,,,,,,,,,,,513.0208,1.1,514.12,514.12,516.0196,left,1,1.8945,,516.0197,517.0201,7,7,119,11,1,total,1,images/Ex12.jpg,left,training,hard,4,,,,,
,,,,,65d1d2f7bbb5b1ec274b3253,001,33,male,filipino,Bachelor,2024-03-06_15h04.33.242,CRL1h,2023.2.3,Linux x86_64,30.03003003,65e67470ae2fbf2172c317b2,65e885b4d2247d6a4fada9af,,,,,,,,,,,517.021,1.2,518.2199,518.22,520.9197,right,1,2.674,,520.9199,521.9196,7,8,120,15,1,total,1,images/Ex16.jpg,right,training,hard,4,,,,,
,,,,,65d1d2f7bbb5b1ec274b3253,001,33,male,filipino,Bachelor,2024-03-06_15h04.33.242,CRL1h,2023.2.3,Linux x86_64,30.03003003,65e67470ae2fbf2172c317b2,65e885b4d2247d6a4fada9af,,,,,,,,,,,521.9205,1.5,523.4196,523.4197,524.3197,left,1,0.8738,,524.3199,525.3194,7,9,121,1,1,total,1,images/Ex10.jpg,left,training,hard,4,,,,,
,,,,,65d1d2f7bbb5b1ec274b3253,001,33,male,filipino,Bachelor,2024-03-06_15h04.33.242,CRL1h,2023.2.3,Linux x86_64,30.03003003,65e67470ae2fbf2172c317b2,65e885b4d2247d6a4fada9af,,,,,,,,,,,525.3204,0.9,526.2193,526.2194,527.0861,right,0,0.8437,,527.0862,528.0863,7,10,122,0,1,total,1,images/Ex9.jpg,left,training,hard,4,,,,,
,,,,,65d1d2f7bbb5b1ec274b3253,001,33,male,filipino,Bachelor,2024-03-06_15h04.33.242,CRL1h,2023.2.3,Linux x86_64,30.03003003,65e67470ae2fbf2172c317b2,65e885b4d2247d6a4fada9af,,,,,,,,,,,528.0872,0.6,528.6862,528.6862,529.3532,right,1,0.6584,,529.3533,530.3531,7,11,123,14,1,total,1,images/Ex15.jpg,right,training,hard,4,,,,,
,,,,,65d1d2f7bbb5b1ec274b3253,001,33,male,filipino,Bachelor,2024-03-06_15h04.33.242,CRL1h,2023.2.3,Linux x86_64,30.03003003,65e67470ae2fbf2172c317b2,65e885b4d2247d6a4fada9af,,,,,,,,,,,530.3539,1.2,531.553,531.5531,532.42,right,1,0.8596,,532.42,533.4195,7,12,124,5,1,total,1,images/Ex14.jpg,right,training,hard,4,,,,,
,,,,,65d1d2f7bbb5b1ec274b3253,001,33,male,filipino,Bachelor,2024-03-06_15h04.33.242,CRL1h,2023.2.3,Linux x86_64,30.03003003,65e67470ae2fbf2172c317b2,65e885b4d2247d6a4fada9af,,,,,,,,,,,533.4205,1.1,534.5192,534.5193,535.3861,left,1,0.8405,,535.3862,536.3862,7,13,125,10,1,total,1,images/Ex11.jpg,left,training,hard,4,,,,,
,,,,,65d1d2f7bbb5b1ec274b3253,001,33,male,filipino,Bachelor,2024-03-06_15h04.33.242,CRL1h,2023.2.3,Linux x86_64,30.03003003,65e67470ae2fbf2172c317b2,65e885b4d2247d6a4fada9af,,,,,,,,,,,536.387,0.6,536.986,536.9861,537.7525,left,1,0.76,,537.7526,538.753,7,14,126,9,1,total,1,images/Ex10.jpg,left,training,hard,4,,,,,
,,,,,65d1d2f7bbb5b1ec274b3253,001,33,male,filipino,Bachelor,2024-03-06_15h04.33.242,CRL1h,2023.2.3,Linux x86_64,30.03003003,65e67470ae2fbf2172c317b2,65e885b4d2247d6a4fada9af,,,,,,,,,,,538.7546,1.5,540.2529,540.253,540.9865,right,1,0.7115,,540.9866,541.9861,7,15,127,4,1,total,1,images/Ex13.jpg,right,training,hard,4,,,,,
,,,,,65d1d2f7bbb5b1ec274b3253,001,33,male,filipino,Bachelor,2024-03-06_15h04.33.242,CRL1h,2023.2.3,Linux x86_64,30.03003003,65e67470ae2fbf2172c317b2,65e885b4d2247d6a4fada9af,,,,,,,,,,,541.9924,0.7,542.6861,542.6862,543.9191,left,1,1.2281,,543.9192,544.9194,0,0,0,14,1,total,2,images/Ex15.jpg,left,reversed,hard,4,,,,,
,,,,,65d1d2f7bbb5b1ec274b3253,001,33,male,filipino,Bachelor,2024-03-06_15h04.33.242,CRL1h,2023.2.3,Linux x86_64,30.03003003,65e67470ae2fbf2172c317b2,65e885b4d2247d6a4fada9af,,,,,,,,,,,544.9203,1.2,546.1194,546.1195,546.8525,left,1,0.7164,,546.8526,547.8525,0,1,1,6,1,total,2,images/Ex15.jpg,left,reversed,hard,4,,,,,
,,,,,65d1d2f7bbb5b1ec274b3253,001,33,male,filipino,Bachelor,2024-03-06_15h04.33.242,CRL1h,2023.2.3,Linux x86_64,30.03003003,65e67470ae2fbf2172c317b2,65e885b4d2247d6a4fada9af,,,,,,,,,,,547.8536,1,548.8527,548.8527,549.6192,right,0,0.7403,,549.6192,550.6191,0,2,2,5,1,total,2,images/Ex14.jpg,left,reversed,hard,4,,,,,
,,,,,65d1d2f7bbb5b1ec274b3253,001,33,male,filipino,Bachelor,2024-03-06_15h04.33.242,CRL1h,2023.2.3,Linux x86_64,30.03003003,65e67470ae2fbf2172c317b2,65e885b4d2247d6a4fada9af,,,,,,,,,,,550.62,0.8,551.4186,551.4187,552.2195,left,0,0.7875,,552.2195,553.219,0,3,3,10,1,total,2,images/Ex11.jpg,right,reversed,hard,4,,,,,
,,,,,65d1d2f7bbb5b1ec274b3253,001,33,male,filipino,Bachelor,2024-03-06_15h04.33.242,CRL1h,2023.2.3,Linux x86_64,30.03003003,65e67470ae2fbf2172c317b2,65e885b4d2247d6a4fada9af,,,,,,,,,,,553.22,0.7,553.9191,553.9192,555.9857,left,0,2.0404,,555.9858,556.9858,0,4,4,11,1,total,2,images/Ex12.jpg,right,reversed,hard,4,,,,,
,,,,,65d1d2f7bbb5b1ec274b3253,001,33,male,filipino,Bachelor,2024-03-06_15h04.33.242,CRL1h,2023.2.3,Linux x86_64,30.03003003,65e67470ae2fbf2172c317b2,65e885b4d2247d6a4fada9af,,,,,,,,,,,556.9951,1.5,558.486,558.4861,560.1192,right,0,1.6082,,560.1193,561.1192,0,5,5,15,1,total,2,images/Ex16.jpg,left,reversed,hard,4,,,,,
,,,,,65d1d2f7bbb5b1ec274b3253,001,33,male,filipino,Bachelor,2024-03-06_15h04.33.242,CRL1h,2023.2.3,Linux x86_64,30.03003003,65e67470ae2fbf2172c317b2,65e885b4d2247d6a4fada9af,,,,,,,,,,,561.1202,0.8,561.919,561.919,564.3525,left,0,2.4239,,564.3526,565.3525,0,6,6,9,1,total,2,images/Ex10.jpg,right,reversed,hard,4,,,,,
,,,,,65d1d2f7bbb5b1ec274b3253,001,33,male,filipino,Bachelor,2024-03-06_15h04.33.242,CRL1h,2023.2.3,Linux x86_64,30.03003003,65e67470ae2fbf2172c317b2,65e885b4d2247d6a4fada9af,,,,,,,,,,,565.3686,1.3,566.6517,566.6518,569.2858,right,1,2.6081,,569.286,570.2857,0,7,7,1,1,total,2,images/Ex10.jpg,right,reversed,hard,4,,,,,
,,,,,65d1d2f7bbb5b1ec274b3253,001,33,male,filipino,Bachelor,2024-03-06_15h04.33.242,CRL1h,2023.2.3,Linux x86_64,30.03003003,65e67470ae2fbf2172c317b2,65e885b4d2247d6a4fada9af,,,,,,,,,,,570.3025,0.9,571.1856,571.1856,572.4198,right,1,1.2072,,572.4198,573.4186,0,8,8,3,1,total,2,images/Ex12.jpg,right,reversed,hard,4,,,,,
,,,,,65d1d2f7bbb5b1ec274b3253,001,33,male,filipino,Bachelor,2024-03-06_15h04.33.242,CRL1h,2023.2.3,Linux x86_64,30.03003003,65e67470ae2fbf2172c317b2,65e885b4d2247d6a4fada9af,,,,,,,,,,,573.4195,0.8,574.219,574.2191,575.1853,right,0,0.959,,575.1854,576.1853,0,9,9,7,1,total,2,images/Ex16.jpg,left,reversed,hard,4,,,,,
,,,,,65d1d2f7bbb5b1ec274b3253,001,33,male,filipino,Bachelor,2024-03-06_15h04.33.242,CRL1h,2023.2.3,Linux x86_64,30.03003003,65e67470ae2fbf2172c317b2,65e885b4d2247d6a4fada9af,,,,,,,,,,,576.1862,0.6,576.7855,576.7855,577.8187,right,1,1.0186,,577.8188,578.8192,0,10,10,0,1,total,2,images/Ex9.jpg,right,reversed,hard,4,,,,,
,,,,,65d1d2f7bbb5b1ec274b3253,001,33,male,filipino,Bachelor,2024-03-06_15h04.33.242,CRL1h,2023.2.3,Linux x86_64,30.03003003,65e67470ae2fbf2172c317b2,65e885b4d2247d6a4fada9af,,,,,,,,,,,578.82,0.9,579.7189,579.7189,580.6189,left,1,0.8943,,580.619,581.6187,0,11,11,12,1,total,2,images/Ex13.jpg,left,reversed,hard,4,,,,,
,,,,,65d1d2f7bbb5b1ec274b3253,001,33,male,filipino,Bachelor,2024-03-06_15h04.33.242,CRL1h,2023.2.3,Linux x86_64,30.03003003,65e67470ae2fbf2172c317b2,65e885b4d2247d6a4fada9af,,,,,,,,,,,581.6197,0.8,582.4191,582.4193,583.5852,left,1,1.1405,,583.5854,584.5852,0,12,12,13,1,total,2,images/Ex14.jpg,left,reversed,hard,4,,,,,
,,,,,65d1d2f7bbb5b1ec274b3253,001,33,male,filipino,Bachelor,2024-03-06_15h04.33.242,CRL1h,2023.2.3,Linux x86_64,30.03003003,65e67470ae2fbf2172c317b2,65e885b4d2247d6a4fada9af,,,,,,,,,,,584.5862,0.9,585.4854,585.4855,586.5854,right,1,1.074,,586.5856,587.5852,0,13,13,8,1,total,2,images/Ex9.jpg,right,reversed,hard,4,,,,,
,,,,,65d1d2f7bbb5b1ec274b3253,001,33,male,filipino,Bachelor,2024-03-06_15h04.33.242,CRL1h,2023.2.3,Linux x86_64,30.03003003,65e67470ae2fbf2172c317b2,65e885b4d2247d6a4fada9af,,,,,,,,,,,587.5861,0.7,588.2854,588.2855,589.2522,right,1,0.946,,589.2523,590.2521,0,14,14,2,1,total,2,images/Ex11.jpg,right,reversed,hard,4,,,,,
,,,,,65d1d2f7bbb5b1ec274b3253,001,33,male,filipino,Bachelor,2024-03-06_15h04.33.242,CRL1h,2023.2.3,Linux x86_64,30.03003003,65e67470ae2fbf2172c317b2,65e885b4d2247d6a4fada9af,,,,,,,,,,,590.2535,1.4,591.6518,591.6519,593.2852,left,1,1.6071,,593.2853,594.2852,0,15,15,4,1,total,2,images/Ex13.jpg,left,reversed,hard,4,,,,,
,,,,,65d1d2f7bbb5b1ec274b3253,001,33,male,filipino,Bachelor,2024-03-06_15h04.33.242,CRL1h,2023.2.3,Linux x86_64,30.03003003,65e67470ae2fbf2172c317b2,65e885b4d2247d6a4fada9af,,,,,,,,,,,594.2946,0.8,595.0853,595.0854,596.3183,right,0,1.23,,596.3185,597.3186,1,0,16,15,1,total,2,images/Ex16.jpg,left,reversed,hard,4,,,,,
,,,,,65d1d2f7bbb5b1ec274b3253,001,33,male,filipino,Bachelor,2024-03-06_15h04.33.242,CRL1h,2023.2.3,Linux x86_64,30.03003003,65e67470ae2fbf2172c317b2,65e885b4d2247d6a4fada9af,,,,,,,,,,,597.3196,1,598.3185,598.3186,600.6517,left,1,2.3234,,600.6518,601.6517,1,1,17,4,1,total,2,images/Ex13.jpg,left,reversed,hard,4,,,,,
,,,,,65d1d2f7bbb5b1ec274b3253,001,33,male,filipino,Bachelor,2024-03-06_15h04.33.242,CRL1h,2023.2.3,Linux x86_64,30.03003003,65e67470ae2fbf2172c317b2,65e885b4d2247d6a4fada9af,,,,,,,,,,,601.6527,1,602.6516,602.6517,603.5185,right,1,0.8496,,603.5186,604.5183,1,2,18,10,1,total,2,images/Ex11.jpg,right,reversed,hard,4,,,,,
,,,,,65d1d2f7bbb5b1ec274b3253,001,33,male,filipino,Bachelor,2024-03-06_15h04.33.242,CRL1h,2023.2.3,Linux x86_64,30.03003003,65e67470ae2fbf2172c317b2,65e885b4d2247d6a4fada9af,,,,,,,,,,,604.5193,0.5,605.0184,605.0184,606.0188,left,0,0.974,,606.0189,607.0183,1,3,19,0,1,total,2,images/Ex9.jpg,right,reversed,hard,4,,,,,
,,,,,65d1d2f7bbb5b1ec274b3253,001,33,male,filipino,Bachelor,2024-03-06_15h04.33.242,CRL1h,2023.2.3,Linux x86_64,30.03003003,65e67470ae2fbf2172c317b2,65e885b4d2247d6a4fada9af,,,,,,,,,,,607.0192,1,608.0184,608.0185,609.0515,right,0,1.0071,,609.0516,610.0514,1,4,20,14,1,total,2,images/Ex15.jpg,left,reversed,hard,4,,,,,
,,,,,65d1d2f7bbb5b1ec274b3253,001,33,male,filipino,Bachelor,2024-03-06_15h04.33.242,CRL1h,2023.2.3,Linux x86_64,30.03003003,65e67470ae2fbf2172c317b2,65e885b4d2247d6a4fada9af,,,,,,,,,,,610.0609,1.2,611.2516,611.2517,612.5516,right,1,1.2875,,612.5516,613.5514,1,5,21,3,1,total,2,images/Ex12.jpg,right,reversed,hard,4,,,,,
,,,,,65d1d2f7bbb5b1ec274b3253,001,33,male,filipino,Bachelor,2024-03-06_15h04.33.242,CRL1h,2023.2.3,Linux x86_64,30.03003003,65e67470ae2fbf2172c317b2,65e885b4d2247d6a4fada9af,,,,,,,,,,,613.5522,1.2,614.7517,614.7519,615.9514,left,1,1.1745,,615.9515,616.9513,1,6,22,5,1,total,2,images/Ex14.jpg,left,reversed,hard,4,,,,,
,,,,,65d1d2f7bbb5b1ec274b3253,001,33,male,filipino,Bachelor,2024-03-06_15h04.33.242,CRL1h,2023.2.3,Linux x86_64,30.03003003,65e67470ae2fbf2172c317b2,65e885b4d2247d6a4fada9af,,,,,,,,,,,616.9522,0.9,617.8515,617.8516,619.6182,left,1,1.7539,,619.6184,620.6181,1,7,23,7,1,total,2,images/Ex16.jpg,left,reversed,hard,4,,,,,
,,,,,65d1d2f7bbb5b1ec274b3253,001,33,male,filipino,Bachelor,2024-03-06_15h04.33.242,CRL1h,2023.2.3,Linux x86_64,30.03003003,65e67470ae2fbf2172c317b2,65e885b4d2247d6a4fada9af,,,,,,,,,,,620.6277,1.1,621.7183,621.7184,622.9515,right,1,1.2084,,622.9517,623.9517,1,8,24,11,1,total,2,images/Ex12.jpg,right,reversed,hard,4,,,,,
,,,,,65d1d2f7bbb5b1ec274b3253,001,33,male,filipino,Bachelor,2024-03-06_15h04.33.242,CRL1h,2023.2.3,Linux x86_64,30.03003003,65e67470ae2fbf2172c317b2,65e885b4d2247d6a4fada9af,,,,,,,,,,,623.9525,1.4,625.3512,625.3513,626.0847,left,0,0.7241,,626.0848,627.085,1,9,25,8,1,total,2,images/Ex9.jpg,right,reversed,hard,4,,,,,
,,,,,65d1d2f7bbb5b1ec274b3253,001,33,male,filipino,Bachelor,2024-03-06_15h04.33.242,CRL1h,2023.2.3,Linux x86_64,30.03003003,65e67470ae2fbf2172c317b2,65e885b4d2247d6a4fada9af,,,,,,,,,,,627.0859,0.6,627.6846,627.6847,628.6843,right,1,0.991,,628.6844,629.6846,1,10,26,1,1,total,2,images/Ex10.jpg,right,reversed,hard,4,,,,,
,,,,,65d1d2f7bbb5b1ec274b3253,001,33,male,filipino,Bachelor,2024-03-06_15h04.33.242,CRL1h,2023.2.3,Linux x86_64,30.03003003,65e67470ae2fbf2172c317b2,65e885b4d2247d6a4fada9af,,,,,,,,,,,629.6856,1.3,630.9835,630.9835,632.1179,left,1,1.1174,,632.1181,633.1178,1,11,27,13,1,total,2,images/Ex14.jpg,left,reversed,hard,4,,,,,
,,,,,65d1d2f7bbb5b1ec274b3253,001,33,male,filipino,Bachelor,2024-03-06_15h04.33.242,CRL1h,2023.2.3,Linux x86_64,30.03003003,65e67470ae2fbf2172c317b2,65e885b4d2247d6a4fada9af,,,,,,,,,,,633.1187,0.6,633.7175,633.7176,635.4176,left,1,1.6921,,635.4177,636.4176,1,12,28,12,1,total,2,images/Ex13.jpg,left,reversed,hard,4,,,,,
,,,,,65d1d2f7bbb5b1ec274b3253,001,33,male,filipino,Bachelor,2024-03-06_15h04.33.242,CRL1h,2023.2.3,Linux x86_64,30.03003003,65e67470ae2fbf2172c317b2,65e885b4d2247d6a4fada9af,,,,,,,,,,,636.427,1.1,637.5177,637.5178,639.151,right,0,1.6146,,639.1511,640.151,1,13,29,6,1,total,2,images/Ex15.jpg,left,reversed,hard,4,,,,,
,,,,,65d1d2f7bbb5b1ec274b3253,001,33,male,filipino,Bachelor,2024-03-06_15h04.33.242,CRL1h,2023.2.3,Linux x86_64,30.03003003,65e67470ae2fbf2172c317b2,65e885b4d2247d6a4fada9af,,,,,,,,,,,640.1609,0.6,640.7507,640.7508,642.3514,right,1,1.5986,,642.3515,643.3509,1,14,30,2,1,total,2,images/Ex11.jpg,right,reversed,hard,4,,,,,
,,,,,65d1d2f7bbb5b1ec274b3253,001,33,male,filipino,Bachelor,2024-03-06_15h04.33.242,CRL1h,2023.2.3,Linux x86_64,30.03003003,65e67470ae2fbf2172c317b2,65e885b4d2247d6a4fada9af,,,,,,,,,,,643.3517,0.6,643.951,643.9511,645.4176,right,1,1.4472,,645.4177,646.4175,1,15,31,9,1,total,2,images/Ex10.jpg,right,reversed,hard,4,,,,,
,,,,,65d1d2f7bbb5b1ec274b3253,001,33,male,filipino,Bachelor,2024-03-06_15h04.33.242,CRL1h,2023.2.3,Linux x86_64,30.03003003,65e67470ae2fbf2172c317b2,65e885b4d2247d6a4fada9af,,,,,,,,,,,646.4265,0.6,647.018,647.018,648.1177,right,1,1.0751,,648.1178,649.1177,2,0,32,8,1,total,2,images/Ex9.jpg,right,reversed,hard,4,,,,,
,,,,,65d1d2f7bbb5b1ec274b3253,001,33,male,filipino,Bachelor,2024-03-06_15h04.33.242,CRL1h,2023.2.3,Linux x86_64,30.03003003,65e67470ae2fbf2172c317b2,65e885b4d2247d6a4fada9af,,,,,,,,,,,649.1186,1.3,650.4176,650.4178,651.2842,right,0,0.8524,,651.2843,652.2837,2,1,33,6,1,total,2,images/Ex15.jpg,left,reversed,hard,4,,,,,
,,,,,65d1d2f7bbb5b1ec274b3253,001,33,male,filipino,Bachelor,2024-03-06_15h04.33.242,CRL1h,2023.2.3,Linux x86_64,30.03003003,65e67470ae2fbf2172c317b2,65e885b4d2247d6a4fada9af,,,,,,,,,,,652.2844,0.9,653.1843,653.1844,654.1845,left,1,0.9826,,654.1846,655.1842,2,2,34,4,1,total,2,images/Ex13.jpg,left,reversed,hard,4,,,,,
,,,,,65d1d2f7bbb5b1ec274b3253,001,33,male,filipino,Bachelor,2024-03-06_15h04.33.242,CRL1h,2023.2.3,Linux x86_64,30.03003003,65e67470ae2fbf2172c317b2,65e885b4d2247d6a4fada9af,,,,,,,,,,,655.1852,1.4,656.5843,656.5845,657.6842,right,0,1.0897,,657.6843,658.6843,2,3,35,15,1,total,2,images/Ex16.jpg,left,reversed,hard,4,,,,,
,,,,,65d1d2f7bbb5b1ec274b3253,001,33,male,filipino,Bachelor,2024-03-06_15h04.33.242,CRL1h,2023.2.3,Linux x86_64,30.03003003,65e67470ae2fbf2172c317b2,65e885b4d2247d6a4fada9af,,,,,,,,,,,658.6853,0.6,659.2841,659.2842,660.4174,right,1,1.1104,,660.4175,661.4173,2,4,36,9,1,total,2,images/Ex10.jpg,right,reversed,hard,4,,,,,
,,,,,65d1d2f7bbb5b1ec274b3253,001,33,male,filipino,Bachelor,2024-03-06_15h04.33.242,CRL1h,2023.2.3,Linux x86_64,30.03003003,65e67470ae2fbf2172c317b2,65e885b4d2247d6a4fada9af,,,,,,,,,,,661.4182,0.8,662.2175,662.2176,663.3842,left,1,1.1403,,663.3843,664.384,2,5,37,7,1,total,2,images/Ex16.jpg,left,reversed,hard,4,,,,,
,,,,,65d1d2f7bbb5b1ec274b3253,001,33,male,filipino,Bachelor,2024-03-06_15h04.33.242,CRL1h,2023.2.3,Linux x86_64,30.03003003,65e67470ae2fbf2172c317b2,65e885b4d2247d6a4fada9af,,,,,,,,,,,664.3849,1.4,665.7847,665.7847,666.6175,right,1,0.8064,,666.6175,667.6173,2,6,38,10,1,total,2,images/Ex11.jpg,right,reversed,hard,4,,,,,
,,,,,65d1d2f7bbb5b1ec274b3253,001,33,male,filipino,Bachelor,2024-03-06_15h04.33.242,CRL1h,2023.2.3,Linux x86_64,30.03003003,65e67470ae2fbf2172c317b2,65e885b4d2247d6a4fada9af,,,,,,,,,,,667.6184,1.3,668.9173,668.9174,669.7506,left,1,0.8294,,669.7507,670.7505,2,7,39,12,1,total,2,images/Ex13.jpg,left,reversed,hard,4,,,,,
,,,,,65d1d2f7bbb5b1ec274b3253,001,33,male,filipino,Bachelor,2024-03-06_15h04.33.242,CRL1h,2023.2.3,Linux x86_64,30.03003003,65e67470ae2fbf2172c317b2,65e885b4d2247d6a4fada9af,,,,,,,,,,,670.7513,1.1,671.8504,671.8507,672.9506,right,1,1.0819,,672.9508,673.9506,2,8,40,3,1,total,2,images/Ex12.jpg,right,reversed,hard,4,,,,,
,,,,,65d1d2f7bbb5b1ec274b3253,001,33,male,filipino,Bachelor,2024-03-06_15h04.33.242,CRL1h,2023.2.3,Linux x86_64,30.03003003,65e67470ae2fbf2172c317b2,65e885b4d2247d6a4fada9af,,,,,,,,,,,673.9515,0.7,674.6504,674.6505,675.6173,left,1,0.9551,,675.6174,676.6173,2,9,41,5,1,total,2,images/Ex14.jpg,left,reversed,hard,4,,,,,
,,,,,65d1d2f7bbb5b1ec274b3253,001,33,male,filipino,Bachelor,2024-03-06_15h04.33.242,CRL1h,2023.2.3,Linux x86_64,30.03003003,65e67470ae2fbf2172c317b2,65e885b4d2247d6a4fada9af,,,,,,,,,,,676.6182,0.8,677.4171,677.4172,678.5173,left,0,1.0853,,678.5174,679.517,2,10,42,11,1,total,2,images/Ex12.jpg,right,reversed,hard,4,,,,,
,,,,,65d1d2f7bbb5b1ec274b3253,001,33,male,filipino,Bachelor,2024-03-06_15h04.33.242,CRL1h,2023.2.3,Linux x86_64,30.03003003,65e67470ae2fbf2172c317b2,65e885b4d2247d6a4fada9af,,,,,,,,,,,679.5181,0.7,680.2169,680.2171,681.2172,right,1,0.9867,,681.2173,682.217,2,11,43,1,1,total,2,images/Ex10.jpg,right,reversed,hard,4,,,,,
,,,,,65d1d2f7bbb5b1ec274b3253,001,33,male,filipino,Bachelor,2024-03-06_15h04.33.242,CRL1h,2023.2.3,Linux x86_64,30.03003003,65e67470ae2fbf2172c317b2,65e885b4d2247d6a4fada9af,,,,,,,,,,,682.2179,0.8,683.0167,683.0169,685.9837,right,1,2.9403,,685.9838,686.9834,2,12,44,2,1,total,2,images/Ex11.jpg,right,reversed,hard,4,,,,,
,,,,,65d1d2f7bbb5b1ec274b3253,001,33,male,filipino,Bachelor,2024-03-06_15h04.33.242,CRL1h,2023.2.3,Linux x86_64,30.03003003,65e67470ae2fbf2172c317b2,65e885b4d2247d6a4fada9af,,,,,,,,,,,686.9981,1.5,688.4835,688.4835,690.3499,right,1,1.8636,,690.3501,691.3502,2,13,45,0,1,total,2,images/Ex9.jpg,right,reversed,hard,4,,,,,
,,,,,65d1d2f7bbb5b1ec274b3253,001,33,male,filipino,Bachelor,2024-03-06_15h04.33.242,CRL1h,2023.2.3,Linux x86_64,30.03003003,65e67470ae2fbf2172c317b2,65e885b4d2247d6a4fada9af,,,,,,,,,,,691.3511,1.3,692.6505,692.6505,693.6168,left,1,0.9551,,693.617,694.6168,2,14,46,13,1,total,2,images/Ex14.jpg,left,reversed,hard,4,,,,,
,,,,,65d1d2f7bbb5b1ec274b3253,001,33,male,filipino,Bachelor,2024-03-06_15h04.33.242,CRL1h,2023.2.3,Linux x86_64,30.03003003,65e67470ae2fbf2172c317b2,65e885b4d2247d6a4fada9af,,,,,,,,,,,694.6177,1.3,695.9169,695.917,698.0848,left,1,2.1653,,698.0848,699.0835,2,15,47,14,1,total,2,images/Ex15.jpg,left,reversed,hard,4,,,,,
,,,,,65d1d2f7bbb5b1ec274b3253,001,33,male,filipino,Bachelor,2024-03-06_15h04.33.242,CRL1h,2023.2.3,Linux x86_64,30.03003003,65e67470ae2fbf2172c317b2,65e885b4d2247d6a4fada9af,,,,,,,,,,,699.0929,1.1,700.1833,700.1834,701.1835,left,1,0.9738,,701.1836,702.1834,3,0,48,12,1,total,2,images/Ex13.jpg,left,reversed,hard,4,,,,,
,,,,,65d1d2f7bbb5b1ec274b3253,001,33,male,filipino,Bachelor,2024-03-06_15h04.33.242,CRL1h,2023.2.3,Linux x86_64,30.03003003,65e67470ae2fbf2172c317b2,65e885b4d2247d6a4fada9af,,,,,,,,,,,702.1844,1.2,703.3834,703.3835,704.2165,left,0,0.8068,,704.2166,705.2167,3,1,49,0,1,total,2,images/Ex9.jpg,right,reversed,hard,4,,,,,
,,,,,65d1d2f7bbb5b1ec274b3253,001,33,male,filipino,Bachelor,2024-03-06_15h04.33.242,CRL1h,2023.2.3,Linux x86_64,30.03003003,65e67470ae2fbf2172c317b2,65e885b4d2247d6a4fada9af,,,,,,,,,,,705.2176,1.2,706.416,706.4161,707.4833,right,1,1.0502,,707.4834,708.4834,3,2,50,1,1,total,2,images/Ex10.jpg,right,reversed,hard,4,,,,,
,,,,,65d1d2f7bbb5b1ec274b3253,001,33,male,filipino,Bachelor,2024-03-06_15h04.33.242,CRL1h,2023.2.3,Linux x86_64,30.03003003,65e67470ae2fbf2172c317b2,65e885b4d2247d6a4fada9af,,,,,,,,,,,708.4843,1.1,709.583,709.5832,710.4501,left,1,0.8409,,710.4502,711.4502,3,3,51,6,1,total,2,images/Ex15.jpg,left,reversed,hard,4,,,,,
,,,,,65d1d2f7bbb5b1ec274b3253,001,33,male,filipino,Bachelor,2024-03-06_15h04.33.242,CRL1h,2023.2.3,Linux x86_64,30.03003003,65e67470ae2fbf2172c317b2,65e885b4d2247d6a4fada9af,,,,,,,,,,,711.4511,1.3,712.7499,712.7499,714.2497,left,1,1.4768,,714.2499,715.2501,3,4,52,5,1,total,2,images/Ex14.jpg,left,reversed,hard,4,,,,,
,,,,,65d1d2f7bbb5b1ec274b3253,001,33,male,filipino,Bachelor,2024-03-06_15h04.33.242,CRL1h,2023.2.3,Linux x86_64,30.03003003,65e67470ae2fbf2172c317b2,65e885b4d2247d6a4fada9af,,,,,,,,,,,715.251,1.2,716.4495,716.4495,717.5165,right,1,1.0476,,717.5166,718.5165,3,5,53,9,1,total,2,images/Ex10.jpg,right,reversed,hard,4,,,,,
,,,,,65d1d2f7bbb5b1ec274b3253,001,33,male,filipino,Bachelor,2024-03-06_15h04.33.242,CRL1h,2023.2.3,Linux x86_64,30.03003003,65e67470ae2fbf2172c317b2,65e885b4d2247d6a4fada9af,,,,,,,,,,,718.5174,1.3,719.8164,719.8165,720.7165,left,1,0.879,,720.7166,721.7165,3,6,54,4,1,total,2,images/Ex13.jpg,left,reversed,hard,4,,,,,
,,,,,65d1d2f7bbb5b1ec274b3253,001,33,male,filipino,Bachelor,2024-03-06_15h04.33.242,CRL1h,2023.2.3,Linux x86_64,30.03003003,65e67470ae2fbf2172c317b2,65e885b4d2247d6a4fada9af,,,,,,,,,,,721.7174,0.7,722.4164,722.4164,724.1499,right,0,1.7074,,724.1499,725.1492,3,7,55,13,1,total,2,images/Ex14.jpg,left,reversed,hard,4,,,,,
,,,,,65d1d2f7bbb5b1ec274b3253,001,33,male,filipino,Bachelor,2024-03-06_15h04.33.242,CRL1h,2023.2.3,Linux x86_64,30.03003003,65e67470ae2fbf2172c317b2,65e885b4d2247d6a4fada9af,,,,,,,,,,,725.1499,1.4,726.5495,726.5495,728.083,left,1,1.5072,,728.083,729.0827,3,8,56,15,1,total,2,images/Ex16.jpg,left,reversed,hard,4,,,,,
,,,,,65d1d2f7bbb5b1ec274b3253,001,33,male,filipino,Bachelor,2024-03-06_15h04.33.242,CRL1h,2023.2.3,Linux x86_64,30.03003003,65e67470ae2fbf2172c317b2,65e885b4d2247d6a4fada9af,,,,,,,,,,,729.0836,1.5,730.5829,730.583,732.2824,right,1,1.6949,,732.2825,733.2827,3,9,57,2,1,total,2,images/Ex11.jpg,right,reversed,hard,4,,,,,
,,,,,65d1d2f7bbb5b1ec274b3253,001,33,male,filipino,Bachelor,2024-03-06_15h04.33.242,CRL1h,2023.2.3,Linux x86_64,30.03003003,65e67470ae2fbf2172c317b2,65e885b4d2247d6a4fada9af,,,,,,,,,,,733.2836,1.2,734.4825,734.4826,736.2162,left,1,1.7076,,736.2163,737.2161,3,10,58,14,1,total,2,images/Ex15.jpg,left,reversed,hard,4,,,,,
,,,,,65d1d2f7bbb5b1ec274b3253,001,33,male,filipino,Bachelor,2024-03-06_15h04.33.242,CRL1h,2023.2.3,Linux x86_64,30.03003003,65e67470ae2fbf2172c317b2,65e885b4d2247d6a4fada9af,,,,,,,,,,,737.2169,0.7,737.9163,737.9164,739.016,left,0,1.0744,,739.0162,740.0159,3,11,59,11,1,total,2,images/Ex12.jpg,right,reversed,hard,4,,,,,
,,,,,65d1d2f7bbb5b1ec274b3253,001,33,male,filipino,Bachelor,2024-03-06_15h04.33.242,CRL1h,2023.2.3,Linux x86_64,30.03003003,65e67470ae2fbf2172c317b2,65e885b4d2247d6a4fada9af,,,,,,,,,,,740.0167,0.8,740.8159,740.8159,741.5497,right,1,0.7154,,741.5498,742.5486,3,12,60,3,1,total,2,images/Ex12.jpg,right,reversed,hard,4,,,,,
,,,,,65d1d2f7bbb5b1ec274b3253,001,33,male,filipino,Bachelor,2024-03-06_15h04.33.242,CRL1h,2023.2.3,Linux x86_64,30.03003003,65e67470ae2fbf2172c317b2,65e885b4d2247d6a4fada9af,,,,,,,,,,,742.549,1.3,743.8492,743.8493,744.6827,left,0,0.8074,,744.6828,745.6826,3,13,61,8,1,total,2,images/Ex9.jpg,right,reversed,hard,4,,,,,
,,,,,65d1d2f7bbb5b1ec274b3253,001,33,male,filipino,Bachelor,2024-03-06_15h04.33.242,CRL1h,2023.2.3,Linux x86_64,30.03003003,65e67470ae2fbf2172c317b2,65e885b4d2247d6a4fada9af,,,,,,,,,,,745.6835,0.5,746.1826,746.1827,747.2162,left,0,1.0073,,747.2163,748.2159,3,14,62,10,1,total,2,images/Ex11.jpg,right,reversed,hard,4,,,,,
,,,,,65d1d2f7bbb5b1ec274b3253,001,33,male,filipino,Bachelor,2024-03-06_15h04.33.242,CRL1h,2023.2.3,Linux x86_64,30.03003003,65e67470ae2fbf2172c317b2,65e885b4d2247d6a4fada9af,,,,,,,,,,,748.2168,0.6,748.8159,748.816,749.5494,left,1,0.7096,,749.5495,750.5492,3,15,63,7,1,total,2,images/Ex16.jpg,left,reversed,hard,4,,,,,
,,,,,65d1d2f7bbb5b1ec274b3253,001,33,male,filipino,Bachelor,2024-03-06_15h04.33.242,CRL1h,2023.2.3,Linux x86_64,30.03003003,65e67470ae2fbf2172c317b2,65e885b4d2247d6a4fada9af,,,,,,750.5512,763.082,space,12.5164,,763.1011,0.9,763.9821,763.9823,765.2489,left,1,1.2588,,765.249,766.249,0,0,0,10,1,partial,1,images/Ex3.jpg,left,training,hard,4,,,,,
,,,,,65d1d2f7bbb5b1ec274b3253,001,33,male,filipino,Bachelor,2024-03-06_15h04.33.242,CRL1h,2023.2.3,Linux x86_64,30.03003003,65e67470ae2fbf2172c317b2,65e885b4d2247d6a4fada9af,,,,,,,,,,,766.25,1.3,767.5482,767.5482,768.5156,right,1,0.9559,,768.5157,769.5155,0,1,1,13,1,partial,1,images/Ex6.jpg,right,training,hard,4,,,,,
,,,,,65d1d2f7bbb5b1ec274b3253,001,33,male,filipino,Bachelor,2024-03-06_15h04.33.242,CRL1h,2023.2.3,Linux x86_64,30.03003003,65e67470ae2fbf2172c317b2,65e885b4d2247d6a4fada9af,,,,,,,,,,,769.5164,1.5,771.0156,771.0157,771.8488,left,0,0.8259,,771.8489,772.849,0,2,2,5,1,partial,1,images/Ex6.jpg,right,training,hard,4,,,,,
,,,,,65d1d2f7bbb5b1ec274b3253,001,33,male,filipino,Bachelor,2024-03-06_15h04.33.242,CRL1h,2023.2.3,Linux x86_64,30.03003003,65e67470ae2fbf2172c317b2,65e885b4d2247d6a4fada9af,,,,,,,,,,,772.8499,1.3,774.1491,774.1492,775.2157,left,1,1.0455,,775.2157,776.2155,0,3,3,11,1,partial,1,images/Ex4.jpg,left,training,hard,4,,,,,
,,,,,65d1d2f7bbb5b1ec274b3253,001,33,male,filipino,Bachelor,2024-03-06_15h04.33.242,CRL1h,2023.2.3,Linux x86_64,30.03003003,65e67470ae2fbf2172c317b2,65e885b4d2247d6a4fada9af,,,,,,,,,,,776.2165,1.5,777.7154,777.7155,779.0484,right,0,1.3264,,779.0484,780.0487,0,4,4,9,1,partial,1,images/Ex2.jpg,left,training,hard,4,,,,,
,,,,,65d1d2f7bbb5b1ec274b3253,001,33,male,filipino,Bachelor,2024-03-06_15h04.33.242,CRL1h,2023.2.3,Linux x86_64,30.03003003,65e67470ae2fbf2172c317b2,65e885b4d2247d6a4fada9af,,,,,,,,,,,780.0497,0.5,780.5484,780.5485,781.5152,right,0,0.965,,781.5154,782.5153,0,5,5,1,1,partial,1,images/Ex2.jpg,left,training,hard,4,,,,,
,,,,,65d1d2f7bbb5b1ec274b3253,001,33,male,filipino,Bachelor,2024-03-06_15h04.33.242,CRL1h,2023.2.3,Linux x86_64,30.03003003,65e67470ae2fbf2172c317b2,65e885b4d2247d6a4fada9af,,,,,,,,,,,782.5161,0.7,783.2151,783.2152,784.2485,right,1,1.0282,,784.2486,785.2488,0,6,6,14,1,partial,1,images/Ex7.jpg,right,training,hard,4,,,,,
,,,,,65d1d2f7bbb5b1ec274b3253,001,33,male,filipino,Bachelor,2024-03-06_15h04.33.242,CRL1h,2023.2.3,Linux x86_64,30.03003003,65e67470ae2fbf2172c317b2,65e885b4d2247d6a4fada9af,,,,,,,,,,,785.25,1.5,786.7487,786.7487,787.4486,right,1,0.6902,,787.4487,788.4485,0,7,7,4,1,partial,1,images/Ex5.jpg,right,training,hard,4,,,,,
,,,,,65d1d2f7bbb5b1ec274b3253,001,33,male,filipino,Bachelor,2024-03-06_15h04.33.242,CRL1h,2023.2.3,Linux x86_64,30.03003003,65e67470ae2fbf2172c317b2,65e885b4d2247d6a4fada9af,,,,,,,,,,,788.4495,1.2,789.6484,789.6484,790.515,right,1,0.8633,,790.5151,791.5152,0,8,8,12,1,partial,1,images/Ex5.jpg,right,training,hard,4,,,,,
,,,,,65d1d2f7bbb5b1ec274b3253,001,33,male,filipino,Bachelor,2024-03-06_15h04.33.242,CRL1h,2023.2.3,Linux x86_64,30.03003003,65e67470ae2fbf2172c317b2,65e885b4d2247d6a4fada9af,,,,,,,,,,,791.516,1.4,792.9152,792.9152,793.7818,left,0,0.8573,,793.7819,794.7819,0,9,9,7,1,partial,1,images/Ex8.jpg,right,training,hard,4,,,,,
,,,,,65d1d2f7bbb5b1ec274b3253,001,33,male,filipino,Bachelor,2024-03-06_15h04.33.242,CRL1h,2023.2.3,Linux x86_64,30.03003003,65e67470ae2fbf2172c317b2,65e885b4d2247d6a4fada9af,,,,,,,,,,,794.7829,1.1,795.8819,795.882,796.4485,right,1,0.5401,,796.4486,797.4488,0,10,10,6,1,partial,1,images/Ex7.jpg,right,training,hard,4,,,,,
,,,,,65d1d2f7bbb5b1ec274b3253,001,33,male,filipino,Bachelor,2024-03-06_15h04.33.242,CRL1h,2023.2.3,Linux x86_64,30.03003003,65e67470ae2fbf2172c317b2,65e885b4d2247d6a4fada9af,,,,,,,,,,,797.4501,0.6,798.0484,798.0485,798.9814,right,0,0.9287,,798.9815,799.9815,0,11,11,3,1,partial,1,images/Ex4.jpg,left,training,hard,4,,,,,
,,,,,65d1d2f7bbb5b1ec274b3253,001,33,male,filipino,Bachelor,2024-03-06_15h04.33.242,CRL1h,2023.2.3,Linux x86_64,30.03003003,65e67470ae2fbf2172c317b2,65e885b4d2247d6a4fada9af,,,,,,,,,,,799.9825,0.8,800.7817,800.7817,801.7485,right,0,0.9526,,801.7486,802.7481,0,12,12,0,1,partial,1,images/Ex1.jpg,left,training,hard,4,,,,,
,,,,,65d1d2f7bbb5b1ec274b3253,001,33,male,filipino,Bachelor,2024-03-06_15h04.33.242,CRL1h,2023.2.3,Linux x86_64,30.03003003,65e67470ae2fbf2172c317b2,65e885b4d2247d6a4fada9af,,,,,,,,,,,802.7491,1.2,803.9485,803.9486,804.8814,right,1,0.9259,,804.8815,805.8815,0,13,13,15,1,partial,1,images/Ex8.jpg,right,training,hard,4,,,,,
,,,,,65d1d2f7bbb5b1ec274b3253,001,33,male,filipino,Bachelor,2024-03-06_15h04.33.242,CRL1h,2023.2.3,Linux x86_64,30.03003003,65e67470ae2fbf2172c317b2,65e885b4d2247d6a4fada9af,,,,,,,,,,,805.8825,0.6,806.4818,806.4819,808.8819,left,1,2.3899,,808.882,809.8813,0,14,14,8,1,partial,1,images/Ex1.jpg,left,training,hard,4,,,,,
,,,,,65d1d2f7bbb5b1ec274b3253,001,33,male,filipino,Bachelor,2024-03-06_15h04.33.242,CRL1h,2023.2.3,Linux x86_64,30.03003003,65e67470ae2fbf2172c317b2,65e885b4d2247d6a4fada9af,,,,,,,,,,,809.8901,1.3,811.1819,811.182,812.4144,left,1,1.2272,,812.4146,813.4149,0,15,15,2,1,partial,1,images/Ex3.jpg,left,training,hard,4,,,,,
,,,,,65d1d2f7bbb5b1ec274b3253,001,33,male,filipino,Bachelor,2024-03-06_15h04.33.242,CRL1h,2023.2.3,Linux x86_64,30.03003003,65e67470ae2fbf2172c317b2,65e885b4d2247d6a4fada9af,,,,,,,,,,,813.4158,1.5,814.9146,814.9147,815.6483,left,1,0.7146,,815.6484,816.6483,1,0,16,2,1,partial,1,images/Ex3.jpg,left,training,hard,4,,,,,
,,,,,65d1d2f7bbb5b1ec274b3253,001,33,male,filipino,Bachelor,2024-03-06_15h04.33.242,CRL1h,2023.2.3,Linux x86_64,30.03003003,65e67470ae2fbf2172c317b2,65e885b4d2247d6a4fada9af,,,,,,,,,,,816.6492,1,817.6478,817.6479,818.5482,right,0,0.8737,,818.5483,819.5482,1,1,17,8,1,partial,1,images/Ex1.jpg,left,training,hard,4,,,,,
,,,,,65d1d2f7bbb5b1ec274b3253,001,33,male,filipino,Bachelor,2024-03-06_15h04.33.242,CRL1h,2023.2.3,Linux x86_64,30.03003003,65e67470ae2fbf2172c317b2,65e885b4d2247d6a4fada9af,,,,,,,,,,,819.5491,1.5,821.048,821.0481,822.1478,left,0,1.0836,,822.148,823.1482,1,2,18,13,1,partial,1,images/Ex6.jpg,right,training,hard,4,,,,,
,,,,,65d1d2f7bbb5b1ec274b3253,001,33,male,filipino,Bachelor,2024-03-06_15h04.33.242,CRL1h,2023.2.3,Linux x86_64,30.03003003,65e67470ae2fbf2172c317b2,65e885b4d2247d6a4fada9af,,,,,,,,,,,823.1573,0.6,823.7478,823.748,824.8149,left,0,1.0414,,824.8151,825.8146,1,3,19,15,1,partial,1,images/Ex8.jpg,right,training,hard,4,,,,,
,,,,,65d1d2f7bbb5b1ec274b3253,001,33,male,filipino,Bachelor,2024-03-06_15h04.33.242,CRL1h,2023.2.3,Linux x86_64,30.03003003,65e67470ae2fbf2172c317b2,65e885b4d2247d6a4fada9af,,,,,,,,,,,825.8157,0.9,826.7145,826.7146,827.3813,right,0,0.6502,,827.3814,828.3814,1,4,20,3,1,partial,1,images/Ex4.jpg,left,training,hard,4,,,,,
,,,,,65d1d2f7bbb5b1ec274b3253,001,33,male,filipino,Bachelor,2024-03-06_15h04.33.242,CRL1h,2023.2.3,Linux x86_64,30.03003003,65e67470ae2fbf2172c317b2,65e885b4d2247d6a4fada9af,,,,,,,,,,,828.3823,0.6,828.9812,828.9813,829.7146,left,0,0.7219,,829.7146,830.7146,1,5,21,12,1,partial,1,images/Ex5.jpg,right,training,hard,4,,,,,
,,,,,65d1d2f7bbb5b1ec274b3253,001,33,male,filipino,Bachelor,2024-03-06_15h04.33.242,CRL1h,2023.2.3,Linux x86_64,30.03003003,65e67470ae2fbf2172c317b2,65e885b4d2247d6a4fada9af,,,,,,,,,,,830.7156,1,831.7141,831.7142,832.7473,left,1,1.0053,,832.7473,833.7484,1,6,22,11,1,partial,1,images/Ex4.jpg,left,training,hard,4,,,,,
,,,,,65d1d2f7bbb5b1ec274b3253,001,33,male,filipino,Bachelor,2024-03-06_15h04.33.242,CRL1h,2023.2.3,Linux x86_64,30.03003003,65e67470ae2fbf2172c317b2,65e885b4d2247d6a4fada9af,,,,,,,,,,,833.7493,1.1,834.8478,834.8479,835.5146,right,1,0.6583,,835.5146,836.5145,1,7,23,6,1,partial,1,images/Ex7.jpg,right,training,hard,4,,,,,
,,,,,65d1d2f7bbb5b1ec274b3253,001,33,male,filipino,Bachelor,2024-03-06_15h04.33.242,CRL1h,2023.2.3,Linux x86_64,30.03003003,65e67470ae2fbf2172c317b2,65e885b4d2247d6a4fada9af,,,,,,,,,,,836.5154,0.9,837.4136,837.4137,838.4474,right,1,1.027,,838.4475,839.4473,1,8,24,7,1,partial,1,images/Ex8.jpg,right,training,hard,4,,,,,
,,,,,65d1d2f7bbb5b1ec274b3253,001,33,male,filipino,Bachelor,2024-03-06_15h04.33.242,CRL1h,2023.2.3,Linux x86_64,30.03003003,65e67470ae2fbf2172c317b2,65e885b4d2247d6a4fada9af,,,,,,,,,,,839.4481,0.8,840.2474,840.2475,841.2812,left,1,1.0075,,841.2813,842.281,1,9,25,9,1,partial,1,images/Ex2.jpg,left,training,hard,4,,,,,
,,,,,65d1d2f7bbb5b1ec274b3253,001,33,male,filipino,Bachelor,2024-03-06_15h04.33.242,CRL1h,2023.2.3,Linux x86_64,30.03003003,65e67470ae2fbf2172c317b2,65e885b4d2247d6a4fada9af,,,,,,,,,,,842.282,1.2,843.4805,843.4806,844.4138,right,0,0.9264,,844.4139,845.4138,1,10,26,0,1,partial,1,images/Ex1.jpg,left,training,hard,4,,,,,
,,,,,65d1d2f7bbb5b1ec274b3253,001,33,male,filipino,Bachelor,2024-03-06_15h04.33.242,CRL1h,2023.2.3,Linux x86_64,30.03003003,65e67470ae2fbf2172c317b2,65e885b4d2247d6a4fada9af,,,,,,,,,,,845.4147,0.7,846.1147,846.1148,846.9811,right,1,0.857,,846.9812,847.9809,1,11,27,4,1,partial,1,images/Ex5.jpg,right,training,hard,4,,,,,
,,,,,65d1d2f7bbb5b1ec274b3253,001,33,male,filipino,Bachelor,2024-03-06_15h04.33.242,CRL1h,2023.2.3,Linux x86_64,30.03003003,65e67470ae2fbf2172c317b2,65e885b4d2247d6a4fada9af,,,,,,,,,,,847.982,0.6,848.5807,848.5808,850.0808,left,1,1.4793,,850.081,851.0808,1,12,28,1,1,partial,1,images/Ex2.jpg,left,training,hard,4,,,,,
,,,,,65d1d2f7bbb5b1ec274b3253,001,33,male,filipino,Bachelor,2024-03-06_15h04.33.242,CRL1h,2023.2.3,Linux x86_64,30.03003003,65e67470ae2fbf2172c317b2,65e885b4d2247d6a4fada9af,,,,,,,,,,,851.0818,1.1,852.1807,852.1809,853.1473,right,0,0.9618,,853.1474,854.1474,1,13,29,10,1,partial,1,images/Ex3.jpg,left,training,hard,4,,,,,
,,,,,65d1d2f7bbb5b1ec274b3253,001,33,male,filipino,Bachelor,2024-03-06_15h04.33.242,CRL1h,2023.2.3,Linux x86_64,30.03003003,65e67470ae2fbf2172c317b2,65e885b4d2247d6a4fada9af,,,,,,,,,,,854.1483,0.7,854.8476,854.8477,855.6809,right,1,0.818,,855.681,856.6807,1,14,30,5,1,partial,1,images/Ex6.jpg,right,training,hard,4,,,,,
,,,,,65d1d2f7bbb5b1ec274b3253,001,33,male,filipino,Bachelor,2024-03-06_15h04.33.242,CRL1h,2023.2.3,Linux x86_64,30.03003003,65e67470ae2fbf2172c317b2,65e885b4d2247d6a4fada9af,,,,,,,,,,,856.6815,1,857.6805,857.6806,858.5142,right,1,0.8136,,858.5143,859.514,1,15,31,14,1,partial,1,images/Ex7.jpg,right,training,hard,4,,,,,
,,,,,65d1d2f7bbb5b1ec274b3253,001,33,male,filipino,Bachelor,2024-03-06_15h04.33.242,CRL1h,2023.2.3,Linux x86_64,30.03003003,65e67470ae2fbf2172c317b2,65e885b4d2247d6a4fada9af,,,,,,,,,,,859.5149,1,860.5141,860.5142,861.9805,left,0,1.4527,,861.9805,862.9803,2,0,32,4,1,partial,1,images/Ex5.jpg,right,training,hard,4,,,,,
,,,,,65d1d2f7bbb5b1ec274b3253,001,33,male,filipino,Bachelor,2024-03-06_15h04.33.242,CRL1h,2023.2.3,Linux x86_64,30.03003003,65e67470ae2fbf2172c317b2,65e885b4d2247d6a4fada9af,,,,,,,,,,,862.9812,1.1,864.0806,864.0808,865.6138,left,1,1.5144,,865.6139,866.6135,2,1,33,0,1,partial,1,images/Ex1.jpg,left,training,hard,4,,,,,
,,,,,65d1d2f7bbb5b1ec274b3253,001,33,male,filipino,Bachelor,2024-03-06_15h04.33.242,CRL1h,2023.2.3,Linux x86_64,30.03003003,65e67470ae2fbf2172c317b2,65e885b4d2247d6a4fada9af,,,,,,,,,,,866.614,0.9,867.5141,867.5141,868.1475,left,1,0.6227,,868.1475,869.1472,2,2,34,8,1,partial,1,images/Ex1.jpg,left,training,hard,4,,,,,
,,,,,65d1d2f7bbb5b1ec274b3253,001,33,male,filipino,Bachelor,2024-03-06_15h04.33.242,CRL1h,2023.2.3,Linux x86_64,30.03003003,65e67470ae2fbf2172c317b2,65e885b4d2247d6a4fada9af,,,,,,,,,,,869.1481,1.1,870.2474,870.2474,871.247,right,1,0.9741,,871.2472,872.2472,2,3,35,5,1,partial,1,images/Ex6.jpg,right,training,hard,4,,,,,
,,,,,65d1d2f7bbb5b1ec274b3253,001,33,male,filipino,Bachelor,2024-03-06_15h04.33.242,CRL1h,2023.2.3,Linux x86_64,30.03003003,65e67470ae2fbf2172c317b2,65e885b4d2247d6a4fada9af,,,,,,,,,,,872.2481,1,873.2473,873.2474,873.9806,right,1,0.7256,,873.9807,874.9801,2,4,36,13,1,partial,1,images/Ex6.jpg,right,training,hard,4,,,,,
,,,,,65d1d2f7bbb5b1ec274b3253,001,33,male,filipino,Bachelor,2024-03-06_15h04.33.242,CRL1h,2023.2.3,Linux x86_64,30.03003003,65e67470ae2fbf2172c317b2,65e885b4d2247d6a4fada9af,,,,,,,,,,,874.9809,0.7,875.6805,875.6806,876.914,right,1,1.2146,,876.9141,877.9135,2,5,37,7,1,partial,1,images/Ex8.jpg,right,training,hard,4,,,,,
,,,,,65d1d2f7bbb5b1ec274b3253,001,33,male,filipino,Bachelor,2024-03-06_15h04.33.242,CRL1h,2023.2.3,Linux x86_64,30.03003003,65e67470ae2fbf2172c317b2,65e885b4d2247d6a4fada9af,,,,,,,,,,,877.9145,1,878.9136,878.9137,878.9803,right,0,0.0606,,878.9804,879.9803,2,6,38,2,1,partial,1,images/Ex3.jpg,left,training,hard,4,,,,,
,,,,,65d1d2f7bbb5b1ec274b3253,001,33,male,filipino,Bachelor,2024-03-06_15h04.33.242,CRL1h,2023.2.3,Linux x86_64,30.03003003,65e67470ae2fbf2172c317b2,65e885b4d2247d6a4fada9af,,,,,,,,,,,879.9813,1.4,881.3804,881.3804,882.2136,left,1,0.8176,,882.2138,883.2152,2,7,39,1,1,partial,1,images/Ex2.jpg,left,training,hard,4,,,,,
,,,,,65d1d2f7bbb5b1ec274b3253,001,33,male,filipino,Bachelor,2024-03-06_15h04.33.242,CRL1h,2023.2.3,Linux x86_64,30.03003003,65e67470ae2fbf2172c317b2,65e885b4d2247d6a4fada9af,,,,,,,,,,,883.2162,1.2,884.4137,884.4138,885.1467,right,1,0.7064,,885.1468,886.1466,2,8,40,15,1,partial,1,images/Ex8.jpg,right,training,hard,4,,,,,
,,,,,65d1d2f7bbb5b1ec274b3253,001,33,male,filipino,Bachelor,2024-03-06_15h04.33.242,CRL1h,2023.2.3,Linux x86_64,30.03003003,65e67470ae2fbf2172c317b2,65e885b4d2247d6a4fada9af,,,,,,,,,,,886.1474,0.9,887.0463,887.0463,888.2802,right,0,1.2238,,888.2803,889.2803,2,9,41,3,1,partial,1,images/Ex4.jpg,left,training,hard,4,,,,,
,,,,,65d1d2f7bbb5b1ec274b3253,001,33,male,filipino,Bachelor,2024-03-06_15h04.33.242,CRL1h,2023.2.3,Linux x86_64,30.03003003,65e67470ae2fbf2172c317b2,65e885b4d2247d6a4fada9af,,,,,,,,,,,889.297,1,890.2802,890.2802,891.1464,right,1,0.8634,,891.1465,892.1469,2,10,42,6,1,partial,1,images/Ex7.jpg,right,training,hard,4,,,,,
,,,,,65d1d2f7bbb5b1ec274b3253,001,33,male,filipino,Bachelor,2024-03-06_15h04.33.242,CRL1h,2023.2.3,Linux x86_64,30.03003003,65e67470ae2fbf2172c317b2,65e885b4d2247d6a4fada9af,,,,,,,,,,,892.1479,0.6,892.7469,892.7469,893.7469,left,1,0.9739,,893.747,894.7468,2,11,43,10,1,partial,1,images/Ex3.jpg,left,training,hard,4,,,,,
,,,,,65d1d2f7bbb5b1ec274b3253,001,33,male,filipino,Bachelor,2024-03-06_15h04.33.242,CRL1h,2023.2.3,Linux x86_64,30.03003003,65e67470ae2fbf2172c317b2,65e885b4d2247d6a4fada9af,,,,,,,,,,,894.7476,1.2,895.9465,895.9466,896.8466,right,1,0.8741,,896.8468,897.8468,2,12,44,12,1,partial,1,images/Ex5.jpg,right,training,hard,4,,,,,
,,,,,65d1d2f7bbb5b1ec274b3253,001,33,male,filipino,Bachelor,2024-03-06_15h04.33.242,CRL1h,2023.2.3,Linux x86_64,30.03003003,65e67470ae2fbf2172c317b2,65e885b4d2247d6a4fada9af,,,,,,,,,,,897.8478,0.9,898.7469,898.747,899.5136,right,1,0.7643,,899.5137,900.5135,2,13,45,14,1,partial,1,images/Ex7.jpg,right,training,hard,4,,,,,
,,,,,65d1d2f7bbb5b1ec274b3253,001,33,male,filipino,Bachelor,2024-03-06_15h04.33.242,CRL1h,2023.2.3,Linux x86_64,30.03003003,65e67470ae2fbf2172c317b2,65e885b4d2247d6a4fada9af,,,,,,,,,,,900.5144,0.7,901.2134,901.2135,901.847,left,1,0.6108,,901.847,902.8463,2,14,46,11,1,partial,1,images/Ex4.jpg,left,training,hard,4,,,,,
,,,,,65d1d2f7bbb5b1ec274b3253,001,33,male,filipino,Bachelor,2024-03-06_15h04.33.242,CRL1h,2023.2.3,Linux x86_64,30.03003003,65e67470ae2fbf2172c317b2,65e885b4d2247d6a4fada9af,,,,,,,,,,,902.8473,0.9,903.7466,903.7467,904.6131,left,1,0.8407,,904.6133,905.6135,2,15,47,9,1,partial,1,images/Ex2.jpg,left,training,hard,4,,,,,
,,,,,65d1d2f7bbb5b1ec274b3253,001,33,male,filipino,Bachelor,2024-03-06_15h04.33.242,CRL1h,2023.2.3,Linux x86_64,30.03003003,65e67470ae2fbf2172c317b2,65e885b4d2247d6a4fada9af,,,,,,,,,,,905.6143,1,906.6134,906.6134,907.3133,right,1,0.6856,,907.3134,908.3131,3,0,48,6,1,partial,1,images/Ex7.jpg,right,training,hard,4,,,,,
,,,,,65d1d2f7bbb5b1ec274b3253,001,33,male,filipino,Bachelor,2024-03-06_15h04.33.242,CRL1h,2023.2.3,Linux x86_64,30.03003003,65e67470ae2fbf2172c317b2,65e885b4d2247d6a4fada9af,,,,,,,,,,,908.3139,0.7,909.0132,909.0132,909.7467,left,1,0.7073,,909.7468,910.7466,3,1,49,3,1,partial,1,images/Ex4.jpg,left,training,hard,4,,,,,
,,,,,65d1d2f7bbb5b1ec274b3253,001,33,male,filipino,Bachelor,2024-03-06_15h04.33.242,CRL1h,2023.2.3,Linux x86_64,30.03003003,65e67470ae2fbf2172c317b2,65e885b4d2247d6a4fada9af,,,,,,,,,,,910.7476,1.3,912.0464,912.0466,912.8799,left,1,0.8071,,912.88,913.88,3,2,50,8,1,partial,1,images/Ex1.jpg,left,training,hard,4,,,,,
,,,,,65d1d2f7bbb5b1ec274b3253,001,33,male,filipino,Bachelor,2024-03-06_15h04.33.242,CRL1h,2023.2.3,Linux x86_64,30.03003003,65e67470ae2fbf2172c317b2,65e885b4d2247d6a4fada9af,,,,,,,,,,,913.8809,1.1,914.9797,914.9798,915.7797,right,1,0.7753,,915.7798,916.7798,3,3,51,4,1,partial,1,images/Ex5.jpg,right,training,hard,4,,,,,
,,,,,65d1d2f7bbb5b1ec274b3253,001,33,male,filipino,Bachelor,2024-03-06_15h04.33.242,CRL1h,2023.2.3,Linux x86_64,30.03003003,65e67470ae2fbf2172c317b2,65e885b4d2247d6a4fada9af,,,,,,,,,,,916.7807,1.1,917.8797,917.8798,918.58,left,1,0.6742,,918.58,919.5796,3,4,52,11,1,partial,1,images/Ex4.jpg,left,training,hard,4,,,,,
,,,,,65d1d2f7bbb5b1ec274b3253,001,33,male,filipino,Bachelor,2024-03-06_15h04.33.242,CRL1h,2023.2.3,Linux x86_64,30.03003003,65e67470ae2fbf2172c317b2,65e885b4d2247d6a4fada9af,,,,,,,,,,,919.5806,0.8,920.3797,920.3799,921.0795,left,1,0.674,,921.0797,922.0797,3,5,53,0,1,partial,1,images/Ex1.jpg,left,training,hard,4,,,,,
,,,,,65d1d2f7bbb5b1ec274b3253,001,33,male,filipino,Bachelor,2024-03-06_15h04.33.242,CRL1h,2023.2.3,Linux x86_64,30.03003003,65e67470ae2fbf2172c317b2,65e885b4d2247d6a4fada9af,,,,,,,,,,,922.0806,1,923.0797,923.0797,923.7146,right,1,0.612,,923.7147,924.7129,3,6,54,14,1,partial,1,images/Ex7.jpg,right,training,hard,4,,,,,
,,,,,65d1d2f7bbb5b1ec274b3253,001,33,male,filipino,Bachelor,2024-03-06_15h04.33.242,CRL1h,2023.2.3,Linux x86_64,30.03003003,65e67470ae2fbf2172c317b2,65e885b4d2247d6a4fada9af,,,,,,,,,,,924.7138,1,925.7129,925.7129,926.5795,right,1,0.8467,,926.5796,927.5796,3,7,55,7,1,partial,1,images/Ex8.jpg,right,training,hard,4,,,,,
,,,,,65d1d2f7bbb5b1ec274b3253,001,33,male,filipino,Bachelor,2024-03-06_15h04.33.242,CRL1h,2023.2.3,Linux x86_64,30.03003003,65e67470ae2fbf2172c317b2,65e885b4d2247d6a4fada9af,,,,,,,,,,,927.5805,1.2,928.7796,928.7797,929.5795,right,0,0.7854,,929.5796,930.5796,3,8,56,2,1,partial,1,images/Ex3.jpg,left,training,hard,4,,,,,
,,,,,65d1d2f7bbb5b1ec274b3253,001,33,male,filipino,Bachelor,2024-03-06_15h04.33.242,CRL1h,2023.2.3,Linux x86_64,30.03003003,65e67470ae2fbf2172c317b2,65e885b4d2247d6a4fada9af,,,,,,,,,,,930.5805,0.6,931.1795,931.1796,931.9464,right,1,0.7409,,931.9464,932.9461,3,9,57,13,1,partial,1,images/Ex6.jpg,right,training,hard,4,,,,,
,,,,,65d1d2f7bbb5b1ec274b3253,001,33,male,filipino,Bachelor,2024-03-06_15h04.33.242,CRL1h,2023.2.3,Linux x86_64,30.03003003,65e67470ae2fbf2172c317b2,65e885b4d2247d6a4fada9af,,,,,,,,,,,932.947,0.6,933.5461,933.5461,934.2796,left,1,0.7069,,934.2797,935.2793,3,10,58,1,1,partial,1,images/Ex2.jpg,left,training,hard,4,,,,,
,,,,,65d1d2f7bbb5b1ec274b3253,001,33,male,filipino,Bachelor,2024-03-06_15h04.33.242,CRL1h,2023.2.3,Linux x86_64,30.03003003,65e67470ae2fbf2172c317b2,65e885b4d2247d6a4fada9af,,,,,,,,,,,935.2802,1.2,936.4793,936.4794,937.3123,right,1,0.8074,,937.3124,938.3126,3,11,59,15,1,partial,1,images/Ex8.jpg,right,training,hard,4,,,,,
,,,,,65d1d2f7bbb5b1ec274b3253,001,33,male,filipino,Bachelor,2024-03-06_15h04.33.242,CRL1h,2023.2.3,Linux x86_64,30.03003003,65e67470ae2fbf2172c317b2,65e885b4d2247d6a4fada9af,,,,,,,,,,,938.3136,0.7,939.0126,939.0127,939.646,left,1,0.6159,,939.6461,940.6457,3,12,60,9,1,partial,1,images/Ex2.jpg,left,training,hard,4,,,,,
,,,,,65d1d2f7bbb5b1ec274b3253,001,33,male,filipino,Bachelor,2024-03-06_15h04.33.242,CRL1h,2023.2.3,Linux x86_64,30.03003003,65e67470ae2fbf2172c317b2,65e885b4d2247d6a4fada9af,,,,,,,,,,,940.6469,0.9,941.5461,941.5462,942.4794,right,1,0.9234,,942.4794,943.4798,3,13,61,5,1,partial,1,images/Ex6.jpg,right,training,hard,4,,,,,
,,,,,65d1d2f7bbb5b1ec274b3253,001,33,male,filipino,Bachelor,2024-03-06_15h04.33.242,CRL1h,2023.2.3,Linux x86_64,30.03003003,65e67470ae2fbf2172c317b2,65e885b4d2247d6a4fada9af,,,,,,,,,,,943.4807,0.9,944.3792,944.3792,945.179,right,1,0.7939,,945.1792,946.1792,3,14,62,12,1,partial,1,images/Ex5.jpg,right,training,hard,4,,,,,
,,,,,65d1d2f7bbb5b1ec274b3253,001,33,male,filipino,Bachelor,2024-03-06_15h04.33.242,CRL1h,2023.2.3,Linux x86_64,30.03003003,65e67470ae2fbf2172c317b2,65e885b4d2247d6a4fada9af,,,,,,,,,,,946.1801,0.8,946.9796,946.9796,947.846,left,1,0.8386,,947.8461,948.8461,3,15,63,10,1,partial,1,images/Ex3.jpg,left,training,hard,4,,,,,
,,,,,65d1d2f7bbb5b1ec274b3253,001,33,male,filipino,Bachelor,2024-03-06_15h04.33.242,CRL1h,2023.2.3,Linux x86_64,30.03003003,65e67470ae2fbf2172c317b2,65e885b4d2247d6a4fada9af,,,,,,,,,,,948.847,1.2,950.0459,950.046,951.0792,right,1,1.0241,,951.0792,952.0787,4,0,64,12,1,partial,1,images/Ex5.jpg,right,training,hard,4,,,,,
,,,,,65d1d2f7bbb5b1ec274b3253,001,33,male,filipino,Bachelor,2024-03-06_15h04.33.242,CRL1h,2023.2.3,Linux x86_64,30.03003003,65e67470ae2fbf2172c317b2,65e885b4d2247d6a4fada9af,,,,,,,,,,,952.0796,1.5,953.5791,953.5792,954.2787,left,1,0.6941,,954.2787,955.279,4,1,65,3,1,partial,1,images/Ex4.jpg,left,training,hard,4,,,,,
,,,,,65d1d2f7bbb5b1ec274b3253,001,33,male,filipino,Bachelor,2024-03-06_15h04.33.242,CRL1h,2023.2.3,Linux x86_64,30.03003003,65e67470ae2fbf2172c317b2,65e885b4d2247d6a4fada9af,,,,,,,,,,,955.2798,0.7,955.979,955.9791,956.7116,right,1,0.7073,,956.7117,957.7122,4,2,66,6,1,partial,1,images/Ex7.jpg,right,training,hard,4,,,,,
,,,,,65d1d2f7bbb5b1ec274b3253,001,33,male,filipino,Bachelor,2024-03-06_15h04.33.242,CRL1h,2023.2.3,Linux x86_64,30.03003003,65e67470ae2fbf2172c317b2,65e885b4d2247d6a4fada9af,,,,,,,,,,,957.7131,0.5,958.2122,958.2124,958.9125,left,1,0.6943,,958.9126,959.9123,4,3,67,11,1,partial,1,images/Ex4.jpg,left,training,hard,4,,,,,
,,,,,65d1d2f7bbb5b1ec274b3253,001,33,male,filipino,Bachelor,2024-03-06_15h04.33.242,CRL1h,2023.2.3,Linux x86_64,30.03003003,65e67470ae2fbf2172c317b2,65e885b4d2247d6a4fada9af,,,,,,,,,,,959.9133,1.3,961.2126,961.2126,961.9455,right,1,0.7157,,961.9456,962.9458,4,4,68,13,1,partial,1,images/Ex6.jpg,right,training,hard,4,,,,,
,,,,,65d1d2f7bbb5b1ec274b3253,001,33,male,filipino,Bachelor,2024-03-06_15h04.33.242,CRL1h,2023.2.3,Linux x86_64,30.03003003,65e67470ae2fbf2172c317b2,65e885b4d2247d6a4fada9af,,,,,,,,,,,962.9467,1,963.9457,963.9458,964.8126,right,1,0.8447,,964.8127,965.8122,4,5,69,7,1,partial,1,images/Ex8.jpg,right,training,hard,4,,,,,
,,,,,65d1d2f7bbb5b1ec274b3253,001,33,male,filipino,Bachelor,2024-03-06_15h04.33.242,CRL1h,2023.2.3,Linux x86_64,30.03003003,65e67470ae2fbf2172c317b2,65e885b4d2247d6a4fada9af,,,,,,,,,,,965.8131,0.8,966.612,966.6121,967.3129,left,1,0.6987,,967.313,968.3121,4,6,70,0,1,partial,1,images/Ex1.jpg,left,training,hard,4,,,,,
,,,,,65d1d2f7bbb5b1ec274b3253,001,33,male,filipino,Bachelor,2024-03-06_15h04.33.242,CRL1h,2023.2.3,Linux x86_64,30.03003003,65e67470ae2fbf2172c317b2,65e885b4d2247d6a4fada9af,,,,,,,,,,,968.313,0.6,968.9122,968.9122,969.812,left,1,0.8978,,969.812,970.812,4,7,71,10,1,partial,1,images/Ex3.jpg,left,training,hard,4,,,,,
,,,,,65d1d2f7bbb5b1ec274b3253,001,33,male,filipino,Bachelor,2024-03-06_15h04.33.242,CRL1h,2023.2.3,Linux x86_64,30.03003003,65e67470ae2fbf2172c317b2,65e885b4d2247d6a4fada9af,,,,,,,,,,,970.8129,1.1,971.9122,971.9123,972.8458,left,1,0.9078,,972.8459,973.8455,4,8,72,2,1,partial,1,images/Ex3.jpg,left,training,hard,4,,,,,
,,,,,65d1d2f7bbb5b1ec274b3253,001,33,male,filipino,Bachelor,2024-03-06_15h04.33.242,CRL1h,2023.2.3,Linux x86_64,30.03003003,65e67470ae2fbf2172c317b2,65e885b4d2247d6a4fada9af,,,,,,,,,,,973.8465,1.5,975.3451,975.3451,976.2121,right,1,0.841,,976.2122,977.212,4,9,73,15,1,partial,1,images/Ex8.jpg,right,training,hard,4,,,,,
,,,,,65d1d2f7bbb5b1ec274b3253,001,33,male,filipino,Bachelor,2024-03-06_15h04.33.242,CRL1h,2023.2.3,Linux x86_64,30.03003003,65e67470ae2fbf2172c317b2,65e885b4d2247d6a4fada9af,,,,,,,,,,,977.2129,0.9,978.112,978.1121,979.1789,right,1,1.0561,,979.179,980.1786,4,10,74,5,1,partial,1,images/Ex6.jpg,right,training,hard,4,,,,,
,,,,,65d1d2f7bbb5b1ec274b3253,001,33,male,filipino,Bachelor,2024-03-06_15h04.33.242,CRL1h,2023.2.3,Linux x86_64,30.03003003,65e67470ae2fbf2172c317b2,65e885b4d2247d6a4fada9af,,,,,,,,,,,980.1794,0.9,981.0784,981.0784,981.7783,left,1,0.6763,,981.7783,982.7785,4,11,75,8,1,partial,1,images/Ex1.jpg,left,training,hard,4,,,,,
,,,,,65d1d2f7bbb5b1ec274b3253,001,33,male,filipino,Bachelor,2024-03-06_15h04.33.242,CRL1h,2023.2.3,Linux x86_64,30.03003003,65e67470ae2fbf2172c317b2,65e885b4d2247d6a4fada9af,,,,,,,,,,,982.7795,0.8,983.5786,983.5786,984.4118,left,1,0.8131,,984.4119,985.4117,4,12,76,9,1,partial,1,images/Ex2.jpg,left,training,hard,4,,,,,
,,,,,65d1d2f7bbb5b1ec274b3253,001,33,male,filipino,Bachelor,2024-03-06_15h04.33.242,CRL1h,2023.2.3,Linux x86_64,30.03003003,65e67470ae2fbf2172c317b2,65e885b4d2247d6a4fada9af,,,,,,,,,,,985.4127,1.2,986.6121,986.6122,987.312,right,1,0.6869,,987.3122,988.3118,4,13,77,14,1,partial,1,images/Ex7.jpg,right,training,hard,4,,,,,
,,,,,65d1d2f7bbb5b1ec274b3253,001,33,male,filipino,Bachelor,2024-03-06_15h04.33.242,CRL1h,2023.2.3,Linux x86_64,30.03003003,65e67470ae2fbf2172c317b2,65e885b4d2247d6a4fada9af,,,,,,,,,,,988.3127,0.8,989.112,989.1121,990.0126,left,1,0.8971,,990.0127,991.0117,4,14,78,1,1,partial,1,images/Ex2.jpg,left,training,hard,4,,,,,
,,,,,65d1d2f7bbb5b1ec274b3253,001,33,male,filipino,Bachelor,2024-03-06_15h04.33.242,CRL1h,2023.2.3,Linux x86_64,30.03003003,65e67470ae2fbf2172c317b2,65e885b4d2247d6a4fada9af,,,,,,,,,,,991.0126,1.2,992.2117,992.2118,993.1785,right,1,0.9431,,993.1785,994.1784,4,15,79,4,1,partial,1,images/Ex5.jpg,right,training,hard,4,,,,,
,,,,,65d1d2f7bbb5b1ec274b3253,001,33,male,filipino,Bachelor,2024-03-06_15h04.33.242,CRL1h,2023.2.3,Linux x86_64,30.03003003,65e67470ae2fbf2172c317b2,65e885b4d2247d6a4fada9af,,,,,,,,,,,994.1792,0.8,994.9785,994.9787,995.6114,left,1,0.6302,,995.6114,996.6115,5,0,80,8,1,partial,1,images/Ex1.jpg,left,training,hard,4,,,,,
,,,,,65d1d2f7bbb5b1ec274b3253,001,33,male,filipino,Bachelor,2024-03-06_15h04.33.242,CRL1h,2023.2.3,Linux x86_64,30.03003003,65e67470ae2fbf2172c317b2,65e885b4d2247d6a4fada9af,,,,,,,,,,,996.6126,0.5,997.1117,997.1118,998.0785,left,0,0.947,,998.0785,999.0781,5,1,81,5,1,partial,1,images/Ex6.jpg,right,training,hard,4,,,,,
,,,,,65d1d2f7bbb5b1ec274b3253,001,33,male,filipino,Bachelor,2024-03-06_15h04.33.242,CRL1h,2023.2.3,Linux x86_64,30.03003003,65e67470ae2fbf2172c317b2,65e885b4d2247d6a4fada9af,,,,,,,,,,,999.0791,1.3,1000.3785,1000.3786,1001.1784,right,0,0.7822,,1001.1785,1002.1783,5,2,82,3,1,partial,1,images/Ex4.jpg,left,training,hard,4,,,,,
,,,,,65d1d2f7bbb5b1ec274b3253,001,33,male,filipino,Bachelor,2024-03-06_15h04.33.242,CRL1h,2023.2.3,Linux x86_64,30.03003003,65e67470ae2fbf2172c317b2,65e885b4d2247d6a4fada9af,,,,,,,,,,,1002.1791,1.4,1003.5782,1003.5782,1004.7443,right,1,1.1627,,1004.7444,1005.7448,5,3,83,15,1,partial,1,images/Ex8.jpg,right,training,hard,4,,,,,
,,,,,65d1d2f7bbb5b1ec274b3253,001,33,male,filipino,Bachelor,2024-03-06_15h04.33.242,CRL1h,2023.2.3,Linux x86_64,30.03003003,65e67470ae2fbf2172c317b2,65e885b4d2247d6a4fada9af,,,,,,,,,,,1005.7456,0.6,1006.3446,1006.3447,1007.1112,right,1,0.7458,,1007.1114,1008.1114,5,4,84,7,1,partial,1,images/Ex8.jpg,right,training,hard,4,,,,,
,,,,,65d1d2f7bbb5b1ec274b3253,001,33,male,filipino,Bachelor,2024-03-06_15h04.33.242,CRL1h,2023.2.3,Linux x86_64,30.03003003,65e67470ae2fbf2172c317b2,65e885b4d2247d6a4fada9af,,,,,,,,,,,1008.1123,0.7,1008.8114,1008.8115,1009.5444,right,1,0.7293,,1009.5445,1010.5445,5,5,85,13,1,partial,1,images/Ex6.jpg,right,training,hard,4,,,,,
,,,,,65d1d2f7bbb5b1ec274b3253,001,33,male,filipino,Bachelor,2024-03-06_15h04.33.242,CRL1h,2023.2.3,Linux x86_64,30.03003003,65e67470ae2fbf2172c317b2,65e885b4d2247d6a4fada9af,,,,,,,,,,,1010.5454,1,1011.5443,1011.5444,1012.2113,right,1,0.6481,,1012.2114,1013.2113,5,6,86,6,1,partial,1,images/Ex7.jpg,right,training,hard,4,,,,,
,,,,,65d1d2f7bbb5b1ec274b3253,001,33,male,filipino,Bachelor,2024-03-06_15h04.33.242,CRL1h,2023.2.3,Linux x86_64,30.03003003,65e67470ae2fbf2172c317b2,65e885b4d2247d6a4fada9af,,,,,,,,,,,1013.2122,0.7,1013.9114,1013.9115,1014.6114,left,1,0.6754,,1014.6114,1015.6116,5,7,87,0,1,partial,1,images/Ex1.jpg,left,training,hard,4,,,,,
,,,,,65d1d2f7bbb5b1ec274b3253,001,33,male,filipino,Bachelor,2024-03-06_15h04.33.242,CRL1h,2023.2.3,Linux x86_64,30.03003003,65e67470ae2fbf2172c317b2,65e885b4d2247d6a4fada9af,,,,,,,,,,,1015.6124,0.7,1016.3117,1016.3118,1017.0444,left,1,0.7091,,1017.0446,1018.0448,5,8,88,9,1,partial,1,images/Ex2.jpg,left,training,hard,4,,,,,
,,,,,65d1d2f7bbb5b1ec274b3253,001,33,male,filipino,Bachelor,2024-03-06_15h04.33.242,CRL1h,2023.2.3,Linux x86_64,30.03003003,65e67470ae2fbf2172c317b2,65e885b4d2247d6a4fada9af,,,,,,,,,,,1018.046,0.8,1018.8444,1018.8445,1019.578,left,1,0.7076,,1019.5781,1020.5787,5,9,89,1,1,partial,1,images/Ex2.jpg,left,training,hard,4,,,,,
,,,,,65d1d2f7bbb5b1ec274b3253,001,33,male,filipino,Bachelor,2024-03-06_15h04.33.242,CRL1h,2023.2.3,Linux x86_64,30.03003003,65e67470ae2fbf2172c317b2,65e885b4d2247d6a4fada9af,,,,,,,,,,,1020.5797,1,1021.5779,1021.5779,1022.5444,right,1,0.9411,,1022.5444,1023.5442,5,10,90,4,1,partial,1,images/Ex5.jpg,right,training,hard,4,,,,,
,,,,,65d1d2f7bbb5b1ec274b3253,001,33,male,filipino,Bachelor,2024-03-06_15h04.33.242,CRL1h,2023.2.3,Linux x86_64,30.03003003,65e67470ae2fbf2172c317b2,65e885b4d2247d6a4fada9af,,,,,,,,,,,1023.5449,1.4,1024.9445,1024.9446,1025.9113,left,1,0.9405,,1025.9115,1026.9111,5,11,91,2,1,partial,1,images/Ex3.jpg,left,training,hard,4,,,,,
,,,,,65d1d2f7bbb5b1ec274b3253,001,33,male,filipino,Bachelor,2024-03-06_15h04.33.242,CRL1h,2023.2.3,Linux x86_64,30.03003003,65e67470ae2fbf2172c317b2,65e885b4d2247d6a4fada9af,,,,,,,,,,,1026.9121,1.5,1028.4111,1028.4111,1029.2114,right,1,0.7743,,1029.2115,1030.21,5,12,92,12,1,partial,1,images/Ex5.jpg,right,training,hard,4,,,,,
,,,,,65d1d2f7bbb5b1ec274b3253,001,33,male,filipino,Bachelor,2024-03-06_15h04.33.242,CRL1h,2023.2.3,Linux x86_64,30.03003003,65e67470ae2fbf2172c317b2,65e885b4d2247d6a4fada9af,,,,,,,,,,,1030.2103,0.7,1030.9111,1030.9112,1031.7777,left,1,0.8462,,1031.7778,1032.7777,5,13,93,11,1,partial,1,images/Ex4.jpg,left,training,hard,4,,,,,
,,,,,65d1d2f7bbb5b1ec274b3253,001,33,male,filipino,Bachelor,2024-03-06_15h04.33.242,CRL1h,2023.2.3,Linux x86_64,30.03003003,65e67470ae2fbf2172c317b2,65e885b4d2247d6a4fada9af,,,,,,,,,,,1032.7785,1.4,1034.1777,1034.1778,1035.1106,left,1,0.9305,,1035.1108,1036.1109,5,14,94,10,1,partial,1,images/Ex3.jpg,left,training,hard,4,,,,,
,,,,,65d1d2f7bbb5b1ec274b3253,001,33,male,filipino,Bachelor,2024-03-06_15h04.33.242,CRL1h,2023.2.3,Linux x86_64,30.03003003,65e67470ae2fbf2172c317b2,65e885b4d2247d6a4fada9af,,,,,,,,,,,1036.1118,1.1,1037.211,1037.2111,1038.011,right,1,0.776,,1038.011,1039.0109,5,15,95,14,1,partial,1,images/Ex7.jpg,right,training,hard,4,,,,,
,,,,,65d1d2f7bbb5b1ec274b3253,001,33,male,filipino,Bachelor,2024-03-06_15h04.33.242,CRL1h,2023.2.3,Linux x86_64,30.03003003,65e67470ae2fbf2172c317b2,65e885b4d2247d6a4fada9af,,,,,,,,,,,1039.0118,0.9,1039.911,1039.9111,1040.6441,right,1,0.7196,,1040.6442,1041.6445,6,0,96,4,1,partial,1,images/Ex5.jpg,right,training,hard,4,,,,,
,,,,,65d1d2f7bbb5b1ec274b3253,001,33,male,filipino,Bachelor,2024-03-06_15h04.33.242,CRL1h,2023.2.3,Linux x86_64,30.03003003,65e67470ae2fbf2172c317b2,65e885b4d2247d6a4fada9af,,,,,,,,,,,1041.6454,0.6,1042.2441,1042.2441,1043.0775,left,0,0.8246,,1043.0777,1044.0775,6,1,97,15,1,partial,1,images/Ex8.jpg,right,training,hard,4,,,,,
,,,,,65d1d2f7bbb5b1ec274b3253,001,33,male,filipino,Bachelor,2024-03-06_15h04.33.242,CRL1h,2023.2.3,Linux x86_64,30.03003003,65e67470ae2fbf2172c317b2,65e885b4d2247d6a4fada9af,,,,,,,,,,,1044.0784,0.7,1044.7776,1044.7777,1045.444,right,1,0.6508,,1045.444,1046.4442,6,2,98,14,1,partial,1,images/Ex7.jpg,right,training,hard,4,,,,,
,,,,,65d1d2f7bbb5b1ec274b3253,001,33,male,filipino,Bachelor,2024-03-06_15h04.33.242,CRL1h,2023.2.3,Linux x86_64,30.03003003,65e67470ae2fbf2172c317b2,65e885b4d2247d6a4fada9af,,,,,,,,,,,1046.4451,1.5,1047.9442,1047.9442,1050.2773,right,1,2.3132,,1050.2774,1051.2775,6,3,99,13,1,partial,1,images/Ex6.jpg,right,training,hard,4,,,,,
,,,,,65d1d2f7bbb5b1ec274b3253,001,33,male,filipino,Bachelor,2024-03-06_15h04.33.242,CRL1h,2023.2.3,Linux x86_64,30.03003003,65e67470ae2fbf2172c317b2,65e885b4d2247d6a4fada9af,,,,,,,,,,,1051.2869,0.9,1052.1776,1052.1776,1052.9775,right,1,0.7924,,1052.9775,1053.9773,6,4,100,7,1,partial,1,images/Ex8.jpg,right,training,hard,4,,,,,
,,,,,65d1d2f7bbb5b1ec274b3253,001,33,male,filipino,Bachelor,2024-03-06_15h04.33.242,CRL1h,2023.2.3,Linux x86_64,30.03003003,65e67470ae2fbf2172c317b2,65e885b4d2247d6a4fada9af,,,,,,,,,,,1053.9783,0.5,1054.4773,1054.4774,1055.1109,left,1,0.625,,1055.111,1056.1108,6,5,101,3,1,partial,1,images/Ex4.jpg,left,training,hard,4,,,,,
,,,,,65d1d2f7bbb5b1ec274b3253,001,33,male,filipino,Bachelor,2024-03-06_15h04.33.242,CRL1h,2023.2.3,Linux x86_64,30.03003003,65e67470ae2fbf2172c317b2,65e885b4d2247d6a4fada9af,,,,,,,,,,,1056.1117,1.5,1057.6108,1057.611,1058.5106,left,1,0.8843,,1058.5107,1059.5104,6,6,102,9,1,partial,1,images/Ex2.jpg,left,training,hard,4,,,,,
,,,,,65d1d2f7bbb5b1ec274b3253,001,33,male,filipino,Bachelor,2024-03-06_15h04.33.242,CRL1h,2023.2.3,Linux x86_64,30.03003003,65e67470ae2fbf2172c317b2,65e885b4d2247d6a4fada9af,,,,,,,,,,,1059.5113,0.7,1060.2105,1060.2106,1060.8777,right,1,0.6405,,1060.8777,1061.8774,6,7,103,6,1,partial,1,images/Ex7.jpg,right,training,hard,4,,,,,
,,,,,65d1d2f7bbb5b1ec274b3253,001,33,male,filipino,Bachelor,2024-03-06_15h04.33.242,CRL1h,2023.2.3,Linux x86_64,30.03003003,65e67470ae2fbf2172c317b2,65e885b4d2247d6a4fada9af,,,,,,,,,,,1061.8783,0.6,1062.4771,1062.4772,1063.2108,left,1,0.7073,,1063.2108,1064.2107,6,8,104,1,1,partial,1,images/Ex2.jpg,left,training,hard,4,,,,,
,,,,,65d1d2f7bbb5b1ec274b3253,001,33,male,filipino,Bachelor,2024-03-06_15h04.33.242,CRL1h,2023.2.3,Linux x86_64,30.03003003,65e67470ae2fbf2172c317b2,65e885b4d2247d6a4fada9af,,,,,,,,,,,1064.2116,1.1,1065.3105,1065.3105,1066.1106,left,1,0.7742,,1066.1107,1067.1105,6,9,105,0,1,partial,1,images/Ex1.jpg,left,training,hard,4,,,,,
,,,,,65d1d2f7bbb5b1ec274b3253,001,33,male,filipino,Bachelor,2024-03-06_15h04.33.242,CRL1h,2023.2.3,Linux x86_64,30.03003003,65e67470ae2fbf2172c317b2,65e885b4d2247d6a4fada9af,,,,,,,,,,,1067.1115,0.7,1067.8109,1067.8109,1068.8452,left,1,1.0314,,1068.8453,1069.8437,6,10,106,2,1,partial,1,images/Ex3.jpg,left,training,hard,4,,,,,
,,,,,65d1d2f7bbb5b1ec274b3253,001,33,male,filipino,Bachelor,2024-03-06_15h04.33.242,CRL1h,2023.2.3,Linux x86_64,30.03003003,65e67470ae2fbf2172c317b2,65e885b4d2247d6a4fada9af,,,,,,,,,,,1069.8447,1.1,1070.944,1070.944,1072.1104,right,1,1.1432,,1072.1105,1073.1104,6,11,107,5,1,partial,1,images/Ex6.jpg,right,training,hard,4,,,,,
,,,,,65d1d2f7bbb5b1ec274b3253,001,33,male,filipino,Bachelor,2024-03-06_15h04.33.242,CRL1h,2023.2.3,Linux x86_64,30.03003003,65e67470ae2fbf2172c317b2,65e885b4d2247d6a4fada9af,,,,,,,,,,,1073.1113,1.2,1074.3105,1074.3106,1075.1439,right,1,0.8237,,1075.144,1076.1437,6,12,108,12,1,partial,1,images/Ex5.jpg,right,training,hard,4,,,,,
,,,,,65d1d2f7bbb5b1ec274b3253,001,33,male,filipino,Bachelor,2024-03-06_15h04.33.242,CRL1h,2023.2.3,Linux x86_64,30.03003003,65e67470ae2fbf2172c317b2,65e885b4d2247d6a4fada9af,,,,,,,,,,,1076.1447,1.2,1077.3437,1077.3438,1078.6438,left,1,1.2923,,1078.6439,1079.6438,6,13,109,8,1,partial,1,images/Ex1.jpg,left,training,hard,4,,,,,
,,,,,65d1d2f7bbb5b1ec274b3253,001,33,male,filipino,Bachelor,2024-03-06_15h04.33.242,CRL1h,2023.2.3,Linux x86_64,30.03003003,65e67470ae2fbf2172c317b2,65e885b4d2247d6a4fada9af,,,,,,,,,,,1079.6446,0.6,1080.2436,1080.2437,1081.6772,left,1,1.4075,,1081.6773,1082.6767,6,14,110,10,1,partial,1,images/Ex3.jpg,left,training,hard,4,,,,,
,,,,,65d1d2f7bbb5b1ec274b3253,001,33,male,filipino,Bachelor,2024-03-06_15h04.33.242,CRL1h,2023.2.3,Linux x86_64,30.03003003,65e67470ae2fbf2172c317b2,65e885b4d2247d6a4fada9af,,,,,,,,,,,1082.6777,0.7,1083.3768,1083.3769,1084.0103,left,1,0.6183,,1084.0104,1085.0104,6,15,111,11,1,partial,1,images/Ex4.jpg,left,training,hard,4,,,,,
,,,,,65d1d2f7bbb5b1ec274b3253,001,33,male,filipino,Bachelor,2024-03-06_15h04.33.242,CRL1h,2023.2.3,Linux x86_64,30.03003003,65e67470ae2fbf2172c317b2,65e885b4d2247d6a4fada9af,,,,,,,,,,,1085.0113,0.8,1085.8101,1085.8101,1086.6433,right,1,0.8204,,1086.6433,1087.6432,7,0,112,7,1,partial,1,images/Ex8.jpg,right,training,hard,4,,,,,
,,,,,65d1d2f7bbb5b1ec274b3253,001,33,male,filipino,Bachelor,2024-03-06_15h04.33.242,CRL1h,2023.2.3,Linux x86_64,30.03003003,65e67470ae2fbf2172c317b2,65e885b4d2247d6a4fada9af,,,,,,,,,,,1087.6442,1.5,1089.1437,1089.1438,1089.8769,left,1,0.7165,,1089.8769,1090.8767,7,1,113,9,1,partial,1,images/Ex2.jpg,left,training,hard,4,,,,,
,,,,,65d1d2f7bbb5b1ec274b3253,001,33,male,filipino,Bachelor,2024-03-06_15h04.33.242,CRL1h,2023.2.3,Linux x86_64,30.03003003,65e67470ae2fbf2172c317b2,65e885b4d2247d6a4fada9af,,,,,,,,,,,1090.8776,1.2,1092.0768,1092.0769,1093.4437,left,1,1.3605,,1093.4437,1094.4435,7,2,114,2,1,partial,1,images/Ex3.jpg,left,training,hard,4,,,,,
,,,,,65d1d2f7bbb5b1ec274b3253,001,33,male,filipino,Bachelor,2024-03-06_15h04.33.242,CRL1h,2023.2.3,Linux x86_64,30.03003003,65e67470ae2fbf2172c317b2,65e885b4d2247d6a4fada9af,,,,,,,,,,,1094.445,1.5,1095.9434,1095.9434,1097.7769,right,1,1.8156,,1097.7769,1098.7765,7,3,115,6,1,partial,1,images/Ex7.jpg,right,training,hard,4,,,,,
