"participant","task","phase","Exemplars","r_correct","response.keys","response.corr","response.rt","condition","difficulty","set","first","nBlocks","trials","condition2"
"56b8de29e1d0a200051517f8","partial",1,4,"right","left",0,1.047,"nonreversed","easy",4,"first-partial",1,1,"partial-nonreversed"
"56b8de29e1d0a200051517f8","partial",1,3,"right","left",0,0.923,"reversed","easy",4,"first-partial",1,1,"partial-reversed"
"56b8de29e1d0a200051517f8","partial",1,2,"left","left",1,0.763,"nonreversed","easy",4,"first-partial",1,1,"partial-nonreversed"
"56b8de29e1d0a200051517f8","partial",1,1,"left","right",0,0.941,"reversed","easy",4,"first-partial",1,1,"partial-reversed"
"56b8de29e1d0a200051517f8","partial",1,1,"left","left",1,0.869,"reversed","easy",4,"first-partial",1,1,"partial-reversed"
"56b8de29e1d0a200051517f8","partial",1,4,"right","right",1,0.704,"nonreversed","easy",4,"first-partial",1,1,"partial-nonreversed"
"56b8de29e1d0a200051517f8","partial",1,2,"left","right",0,0.774,"nonreversed","easy",4,"first-partial",1,1,"partial-nonreversed"
"56b8de29e1d0a200051517f8","partial",1,3,"right","right",1,0.809,"reversed","easy",4,"first-partial",1,1,"partial-reversed"
"56b8de29e1d0a200051517f8","partial",1,2,"left","right",0,0.794,"nonreversed","easy",4,"first-partial",2,2,"partial-nonreversed"
"56b8de29e1d0a200051517f8","partial",1,4,"right","right",1,0.747,"nonreversed","easy",4,"first-partial",2,2,"partial-nonreversed"
"56b8de29e1d0a200051517f8","partial",1,3,"right","left",0,0.875,"reversed","easy",4,"first-partial",2,2,"partial-reversed"
"56b8de29e1d0a200051517f8","partial",1,1,"left","right",0,1.044,"reversed","easy",4,"first-partial",2,2,"partial-reversed"
"56b8de29e1d0a200051517f8","partial",1,3,"right","right",1,1.006,"reversed","easy",4,"first-partial",2,2,"partial-reversed"
"56b8de29e1d0a200051517f8","partial",1,1,"left","right",0,0.936,"reversed","easy",4,"first-partial",2,2,"partial-reversed"
"56b8de29e1d0a200051517f8","partial",1,2,"left","left",1,0.817,"nonreversed","easy",4,"first-partial",2,2,"partial-nonreversed"
"56b8de29e1d0a200051517f8","partial",1,4,"right","right",1,0.565,"nonreversed","easy",4,"first-partial",2,2,"partial-nonreversed"
"56b8de29e1d0a200051517f8","partial",1,3,"right","right",1,0.897,"reversed","easy",4,"first-partial",3,3,"partial-reversed"
"56b8de29e1d0a200051517f8","partial",1,4,"right","right",1,0.582,"nonreversed","easy",4,"first-partial",3,3,"partial-nonreversed"
"56b8de29e1d0a200051517f8","partial",1,2,"left","right",0,0.748,"nonreversed","easy",4,"first-partial",3,3,"partial-nonreversed"
"56b8de29e1d0a200051517f8","partial",1,1,"left","left",1,0.393,"reversed","easy",4,"first-partial",3,3,"partial-reversed"
"56b8de29e1d0a200051517f8","partial",1,1,"left","left",1,0.59,"reversed","easy",4,"first-partial",3,3,"partial-reversed"
"56b8de29e1d0a200051517f8","partial",1,4,"right","right",1,0.576,"nonreversed","easy",4,"first-partial",3,3,"partial-nonreversed"
"56b8de29e1d0a200051517f8","partial",1,3,"right","right",1,0.643,"reversed","easy",4,"first-partial",3,3,"partial-reversed"
"56b8de29e1d0a200051517f8","partial",1,2,"left","right",0,0.563,"nonreversed","easy",4,"first-partial",3,3,"partial-nonreversed"
"56b8de29e1d0a200051517f8","partial",1,2,"left","left",1,0.69,"nonreversed","easy",4,"first-partial",4,4,"partial-nonreversed"
"56b8de29e1d0a200051517f8","partial",1,4,"right","right",1,0.508,"nonreversed","easy",4,"first-partial",4,4,"partial-nonreversed"
"56b8de29e1d0a200051517f8","partial",1,1,"left","left",1,0.545,"reversed","easy",4,"first-partial",4,4,"partial-reversed"
"56b8de29e1d0a200051517f8","partial",1,3,"right","right",1,0.792,"reversed","easy",4,"first-partial",4,4,"partial-reversed"
"56b8de29e1d0a200051517f8","partial",1,4,"right","right",1,0.547,"nonreversed","easy",4,"first-partial",4,4,"partial-nonreversed"
"56b8de29e1d0a200051517f8","partial",1,2,"left","left",1,0.455,"nonreversed","easy",4,"first-partial",4,4,"partial-nonreversed"
"56b8de29e1d0a200051517f8","partial",1,1,"left","left",1,0.579,"reversed","easy",4,"first-partial",4,4,"partial-reversed"
"56b8de29e1d0a200051517f8","partial",1,3,"right","right",1,0.668,"reversed","easy",4,"first-partial",4,4,"partial-reversed"
"56b8de29e1d0a200051517f8","partial",1,4,"right","right",1,0.577,"nonreversed","easy",4,"first-partial",5,5,"partial-nonreversed"
"56b8de29e1d0a200051517f8","partial",1,2,"left","left",1,0.537,"nonreversed","easy",4,"first-partial",5,5,"partial-nonreversed"
"56b8de29e1d0a200051517f8","partial",1,1,"left","left",1,0.51,"reversed","easy",4,"first-partial",5,5,"partial-reversed"
"56b8de29e1d0a200051517f8","partial",1,3,"right","right",1,0.43,"reversed","easy",4,"first-partial",5,5,"partial-reversed"
"56b8de29e1d0a200051517f8","partial",1,3,"right","right",1,0.617,"reversed","easy",4,"first-partial",5,5,"partial-reversed"
"56b8de29e1d0a200051517f8","partial",1,2,"left","left",1,0.481,"nonreversed","easy",4,"first-partial",5,5,"partial-nonreversed"
"56b8de29e1d0a200051517f8","partial",1,1,"left","left",1,0.336,"reversed","easy",4,"first-partial",5,5,"partial-reversed"
"56b8de29e1d0a200051517f8","partial",1,4,"right","right",1,0.489,"nonreversed","easy",4,"first-partial",5,5,"partial-nonreversed"
"56b8de29e1d0a200051517f8","partial",1,2,"left","left",1,0.548,"nonreversed","easy",4,"first-partial",6,6,"partial-nonreversed"
"56b8de29e1d0a200051517f8","partial",1,4,"right","right",1,0.482,"nonreversed","easy",4,"first-partial",6,6,"partial-nonreversed"
"56b8de29e1d0a200051517f8","partial",1,1,"left","left",1,0.508,"reversed","easy",4,"first-partial",6,6,"partial-reversed"
"56b8de29e1d0a200051517f8","partial",1,3,"right","right",1,0.47,"reversed","easy",4,"first-partial",6,6,"partial-reversed"
"56b8de29e1d0a200051517f8","partial",1,3,"right","right",1,0.456,"reversed","easy",4,"first-partial",6,6,"partial-reversed"
"56b8de29e1d0a200051517f8","partial",1,2,"left","left",1,0.594,"nonreversed","easy",4,"first-partial",6,6,"partial-nonreversed"
"56b8de29e1d0a200051517f8","partial",1,4,"right","right",1,0.48,"nonreversed","easy",4,"first-partial",6,6,"partial-nonreversed"
"56b8de29e1d0a200051517f8","partial",1,1,"left","left",1,0.524,"reversed","easy",4,"first-partial",6,6,"partial-reversed"
"56b8de29e1d0a200051517f8","partial",2,4,"right","right",1,0.521,"nonreversed","easy",4,"first-partial",1,7,"partial-nonreversed"
"56b8de29e1d0a200051517f8","partial",2,4,"right","right",1,0.47,"nonreversed","easy",4,"first-partial",1,7,"partial-nonreversed"
"56b8de29e1d0a200051517f8","partial",2,2,"left","left",1,0.508,"nonreversed","easy",4,"first-partial",1,7,"partial-nonreversed"
"56b8de29e1d0a200051517f8","partial",2,1,"right","left",0,0.509,"reversed","easy",4,"first-partial",1,7,"partial-reversed"
"56b8de29e1d0a200051517f8","partial",2,3,"left","right",0,0.894,"reversed","easy",4,"first-partial",1,7,"partial-reversed"
"56b8de29e1d0a200051517f8","partial",2,1,"right","left",0,1.283,"reversed","easy",4,"first-partial",1,7,"partial-reversed"
"56b8de29e1d0a200051517f8","partial",2,2,"left","right",0,0.91,"nonreversed","easy",4,"first-partial",1,7,"partial-nonreversed"
"56b8de29e1d0a200051517f8","partial",2,3,"left","right",0,1.177,"reversed","easy",4,"first-partial",1,7,"partial-reversed"
"56b8de29e1d0a200051517f8","partial",2,3,"left","right",0,1.85,"reversed","easy",4,"first-partial",2,8,"partial-reversed"
"56b8de29e1d0a200051517f8","partial",2,2,"left","left",1,0.829,"nonreversed","easy",4,"first-partial",2,8,"partial-nonreversed"
"56b8de29e1d0a200051517f8","partial",2,1,"right","left",0,0.601,"reversed","easy",4,"first-partial",2,8,"partial-reversed"
"56b8de29e1d0a200051517f8","partial",2,2,"left","left",1,0.771,"nonreversed","easy",4,"first-partial",2,8,"partial-nonreversed"
"56b8de29e1d0a200051517f8","partial",2,4,"right","right",1,0.575,"nonreversed","easy",4,"first-partial",2,8,"partial-nonreversed"
"56b8de29e1d0a200051517f8","partial",2,3,"left","right",0,0.712,"reversed","easy",4,"first-partial",2,8,"partial-reversed"
"56b8de29e1d0a200051517f8","partial",2,4,"right","right",1,0.775,"nonreversed","easy",4,"first-partial",2,8,"partial-nonreversed"
"56b8de29e1d0a200051517f8","partial",2,1,"right","left",0,0.636,"reversed","easy",4,"first-partial",2,8,"partial-reversed"
"56b8de29e1d0a200051517f8","partial",2,3,"left","right",0,0.683,"reversed","easy",4,"first-partial",3,9,"partial-reversed"
"56b8de29e1d0a200051517f8","partial",2,3,"left","left",1,0.562,"reversed","easy",4,"first-partial",3,9,"partial-reversed"
"56b8de29e1d0a200051517f8","partial",2,1,"right","right",1,0.648,"reversed","easy",4,"first-partial",3,9,"partial-reversed"
"56b8de29e1d0a200051517f8","partial",2,4,"right","right",1,0.555,"nonreversed","easy",4,"first-partial",3,9,"partial-nonreversed"
"56b8de29e1d0a200051517f8","partial",2,4,"right","right",1,0.577,"nonreversed","easy",4,"first-partial",3,9,"partial-nonreversed"
"56b8de29e1d0a200051517f8","partial",2,1,"right","right",1,0.656,"reversed","easy",4,"first-partial",3,9,"partial-reversed"
"56b8de29e1d0a200051517f8","partial",2,2,"left","right",0,0.681,"nonreversed","easy",4,"first-partial",3,9,"partial-nonreversed"
"56b8de29e1d0a200051517f8","partial",2,2,"left","left",1,0.683,"nonreversed","easy",4,"first-partial",3,9,"partial-nonreversed"
"56b8de29e1d0a200051517f8","partial",2,1,"right","right",1,0.654,"reversed","easy",4,"first-partial",4,10,"partial-reversed"
"56b8de29e1d0a200051517f8","partial",2,4,"right","right",1,0.573,"nonreversed","easy",4,"first-partial",4,10,"partial-nonreversed"
"56b8de29e1d0a200051517f8","partial",2,2,"left","right",0,0.812,"nonreversed","easy",4,"first-partial",4,10,"partial-nonreversed"
"56b8de29e1d0a200051517f8","partial",2,4,"right","right",1,0.581,"nonreversed","easy",4,"first-partial",4,10,"partial-nonreversed"
"56b8de29e1d0a200051517f8","partial",2,1,"right","right",1,0.656,"reversed","easy",4,"first-partial",4,10,"partial-reversed"
"56b8de29e1d0a200051517f8","partial",2,2,"left","left",1,0.8,"nonreversed","easy",4,"first-partial",4,10,"partial-nonreversed"
"56b8de29e1d0a200051517f8","partial",2,3,"left","right",0,0.523,"reversed","easy",4,"first-partial",4,10,"partial-reversed"
"56b8de29e1d0a200051517f8","partial",2,3,"left","left",1,0.389,"reversed","easy",4,"first-partial",4,10,"partial-reversed"
"56b8de29e1d0a200051517f8","partial",2,3,"left","left",1,0.391,"reversed","easy",4,"first-partial",5,11,"partial-reversed"
"56b8de29e1d0a200051517f8","partial",2,1,"right","right",1,0.658,"reversed","easy",4,"first-partial",5,11,"partial-reversed"
"56b8de29e1d0a200051517f8","partial",2,1,"right","right",1,0.617,"reversed","easy",4,"first-partial",5,11,"partial-reversed"
"56b8de29e1d0a200051517f8","partial",2,2,"left","left",1,0.484,"nonreversed","easy",4,"first-partial",5,11,"partial-nonreversed"
"56b8de29e1d0a200051517f8","partial",2,3,"left","left",1,0.526,"reversed","easy",4,"first-partial",5,11,"partial-reversed"
"56b8de29e1d0a200051517f8","partial",2,4,"right","right",1,0.512,"nonreversed","easy",4,"first-partial",5,11,"partial-nonreversed"
"56b8de29e1d0a200051517f8","partial",2,2,"left","left",1,0.565,"nonreversed","easy",4,"first-partial",5,11,"partial-nonreversed"
"56b8de29e1d0a200051517f8","partial",2,4,"right","right",1,0.504,"nonreversed","easy",4,"first-partial",5,11,"partial-nonreversed"
"56b8de29e1d0a200051517f8","partial",2,2,"left","left",1,0.562,"nonreversed","easy",4,"first-partial",6,12,"partial-nonreversed"
"56b8de29e1d0a200051517f8","partial",2,1,"right","right",1,0.57,"reversed","easy",4,"first-partial",6,12,"partial-reversed"
"56b8de29e1d0a200051517f8","partial",2,4,"right","right",1,0.538,"nonreversed","easy",4,"first-partial",6,12,"partial-nonreversed"
"56b8de29e1d0a200051517f8","partial",2,1,"right","right",1,0.467,"reversed","easy",4,"first-partial",6,12,"partial-reversed"
"56b8de29e1d0a200051517f8","partial",2,3,"left","left",1,0.553,"reversed","easy",4,"first-partial",6,12,"partial-reversed"
"56b8de29e1d0a200051517f8","partial",2,3,"left","left",1,0.518,"reversed","easy",4,"first-partial",6,12,"partial-reversed"
"56b8de29e1d0a200051517f8","partial",2,4,"right","right",1,0.458,"nonreversed","easy",4,"first-partial",6,12,"partial-nonreversed"
"56b8de29e1d0a200051517f8","partial",2,2,"left","left",1,0.522,"nonreversed","easy",4,"first-partial",6,12,"partial-nonreversed"
"56b8de29e1d0a200051517f8","total",1,8,"right","left",0,0.523,"reversed","easy",4,"first-partial",1,1,"total-reversed"
"56b8de29e1d0a200051517f8","total",1,7,"right","left",0,0.714,"reversed","easy",4,"first-partial",1,1,"total-reversed"
"56b8de29e1d0a200051517f8","total",1,6,"left","left",1,0.657,"reversed","easy",4,"first-partial",1,1,"total-reversed"
"56b8de29e1d0a200051517f8","total",1,5,"left","right",0,0.741,"reversed","easy",4,"first-partial",1,1,"total-reversed"
"56b8de29e1d0a200051517f8","total",1,8,"right","right",1,0.682,"reversed","easy",4,"first-partial",1,1,"total-reversed"
"56b8de29e1d0a200051517f8","total",1,6,"left","right",0,0.803,"reversed","easy",4,"first-partial",1,1,"total-reversed"
"56b8de29e1d0a200051517f8","total",1,5,"left","right",0,0.673,"reversed","easy",4,"first-partial",1,1,"total-reversed"
"56b8de29e1d0a200051517f8","total",1,7,"right","right",1,0.808,"reversed","easy",4,"first-partial",1,1,"total-reversed"
"56b8de29e1d0a200051517f8","total",1,5,"left","left",1,0.631,"reversed","easy",4,"first-partial",2,2,"total-reversed"
"56b8de29e1d0a200051517f8","total",1,5,"left","left",1,0.534,"reversed","easy",4,"first-partial",2,2,"total-reversed"
"56b8de29e1d0a200051517f8","total",1,6,"left","left",1,0.579,"reversed","easy",4,"first-partial",2,2,"total-reversed"
"56b8de29e1d0a200051517f8","total",1,6,"left","left",1,0.551,"reversed","easy",4,"first-partial",2,2,"total-reversed"
"56b8de29e1d0a200051517f8","total",1,7,"right","right",1,0.547,"reversed","easy",4,"first-partial",2,2,"total-reversed"
"56b8de29e1d0a200051517f8","total",1,8,"right","left",0,0.476,"reversed","easy",4,"first-partial",2,2,"total-reversed"
"56b8de29e1d0a200051517f8","total",1,8,"right","right",1,0.356,"reversed","easy",4,"first-partial",2,2,"total-reversed"
"56b8de29e1d0a200051517f8","total",1,7,"right","right",1,0.531,"reversed","easy",4,"first-partial",2,2,"total-reversed"
"56b8de29e1d0a200051517f8","total",1,7,"right","right",1,0.417,"reversed","easy",4,"first-partial",3,3,"total-reversed"
"56b8de29e1d0a200051517f8","total",1,6,"left","left",1,0.483,"reversed","easy",4,"first-partial",3,3,"total-reversed"
"56b8de29e1d0a200051517f8","total",1,8,"right","right",1,0.51,"reversed","easy",4,"first-partial",3,3,"total-reversed"
"56b8de29e1d0a200051517f8","total",1,5,"left","right",0,0.544,"reversed","easy",4,"first-partial",3,3,"total-reversed"
"56b8de29e1d0a200051517f8","total",1,8,"right","left",0,0.341,"reversed","easy",4,"first-partial",3,3,"total-reversed"
"56b8de29e1d0a200051517f8","total",1,6,"left","left",1,0.481,"reversed","easy",4,"first-partial",3,3,"total-reversed"
"56b8de29e1d0a200051517f8","total",1,5,"left","right",0,0.657,"reversed","easy",4,"first-partial",3,3,"total-reversed"
"56b8de29e1d0a200051517f8","total",1,7,"right","right",1,0.5,"reversed","easy",4,"first-partial",3,3,"total-reversed"
"56b8de29e1d0a200051517f8","total",1,6,"left","left",1,0.535,"reversed","easy",4,"first-partial",4,4,"total-reversed"
"56b8de29e1d0a200051517f8","total",1,8,"right","right",1,0.962,"reversed","easy",4,"first-partial",4,4,"total-reversed"
"56b8de29e1d0a200051517f8","total",1,5,"left","left",1,0.524,"reversed","easy",4,"first-partial",4,4,"total-reversed"
"56b8de29e1d0a200051517f8","total",1,7,"right","right",1,0.51,"reversed","easy",4,"first-partial",4,4,"total-reversed"
"56b8de29e1d0a200051517f8","total",1,6,"left","left",1,0.538,"reversed","easy",4,"first-partial",4,4,"total-reversed"
"56b8de29e1d0a200051517f8","total",1,8,"right","right",1,0.601,"reversed","easy",4,"first-partial",4,4,"total-reversed"
"56b8de29e1d0a200051517f8","total",1,7,"right","right",1,0.548,"reversed","easy",4,"first-partial",4,4,"total-reversed"
"56b8de29e1d0a200051517f8","total",1,5,"left","left",1,0.568,"reversed","easy",4,"first-partial",4,4,"total-reversed"
"56b8de29e1d0a200051517f8","total",1,7,"right","right",1,0.544,"reversed","easy",4,"first-partial",5,5,"total-reversed"
"56b8de29e1d0a200051517f8","total",1,8,"right","right",1,0.668,"reversed","easy",4,"first-partial",5,5,"total-reversed"
"56b8de29e1d0a200051517f8","total",1,7,"right","right",1,0.369,"reversed","easy",4,"first-partial",5,5,"total-reversed"
"56b8de29e1d0a200051517f8","total",1,6,"left","left",1,0.497,"reversed","easy",4,"first-partial",5,5,"total-reversed"
"56b8de29e1d0a200051517f8","total",1,5,"left","left",1,0.548,"reversed","easy",4,"first-partial",5,5,"total-reversed"
"56b8de29e1d0a200051517f8","total",1,8,"right","right",1,0.564,"reversed","easy",4,"first-partial",5,5,"total-reversed"
"56b8de29e1d0a200051517f8","total",1,6,"left","left",1,0.565,"reversed","easy",4,"first-partial",5,5,"total-reversed"
"56b8de29e1d0a200051517f8","total",1,5,"left","left",1,0.589,"reversed","easy",4,"first-partial",5,5,"total-reversed"
"56b8de29e1d0a200051517f8","total",1,5,"left","left",1,0.553,"reversed","easy",4,"first-partial",6,6,"total-reversed"
"56b8de29e1d0a200051517f8","total",1,7,"right","right",1,0.519,"reversed","easy",4,"first-partial",6,6,"total-reversed"
"56b8de29e1d0a200051517f8","total",1,6,"left","left",1,0.501,"reversed","easy",4,"first-partial",6,6,"total-reversed"
"56b8de29e1d0a200051517f8","total",1,8,"right","right",1,0.529,"reversed","easy",4,"first-partial",6,6,"total-reversed"
"56b8de29e1d0a200051517f8","total",1,7,"right","right",1,0.508,"reversed","easy",4,"first-partial",6,6,"total-reversed"
"56b8de29e1d0a200051517f8","total",1,8,"right","right",1,0.644,"reversed","easy",4,"first-partial",6,6,"total-reversed"
"56b8de29e1d0a200051517f8","total",1,6,"left","left",1,0.576,"reversed","easy",4,"first-partial",6,6,"total-reversed"
"56b8de29e1d0a200051517f8","total",1,5,"left","left",1,0.565,"reversed","easy",4,"first-partial",6,6,"total-reversed"
"56b8de29e1d0a200051517f8","total",2,7,"left","right",0,0.402,"reversed","easy",4,"first-partial",1,7,"total-reversed"
"56b8de29e1d0a200051517f8","total",2,7,"left","left",1,0.434,"reversed","easy",4,"first-partial",1,7,"total-reversed"
"56b8de29e1d0a200051517f8","total",2,6,"right","left",0,0.552,"reversed","easy",4,"first-partial",1,7,"total-reversed"
"56b8de29e1d0a200051517f8","total",2,8,"left","right",0,0.887,"reversed","easy",4,"first-partial",1,7,"total-reversed"
"56b8de29e1d0a200051517f8","total",2,8,"left","left",1,0.575,"reversed","easy",4,"first-partial",1,7,"total-reversed"
"56b8de29e1d0a200051517f8","total",2,5,"right","left",0,0.755,"reversed","easy",4,"first-partial",1,7,"total-reversed"
"56b8de29e1d0a200051517f8","total",2,6,"right","right",1,0.788,"reversed","easy",4,"first-partial",1,7,"total-reversed"
"56b8de29e1d0a200051517f8","total",2,5,"right","left",0,0.828,"reversed","easy",4,"first-partial",1,7,"total-reversed"
"56b8de29e1d0a200051517f8","total",2,8,"left","left",1,0.721,"reversed","easy",4,"first-partial",2,8,"total-reversed"
"56b8de29e1d0a200051517f8","total",2,8,"left","left",1,0.463,"reversed","easy",4,"first-partial",2,8,"total-reversed"
"56b8de29e1d0a200051517f8","total",2,7,"left","left",1,0.777,"reversed","easy",4,"first-partial",2,8,"total-reversed"
"56b8de29e1d0a200051517f8","total",2,5,"right","right",1,0.82,"reversed","easy",4,"first-partial",2,8,"total-reversed"
"56b8de29e1d0a200051517f8","total",2,5,"right","right",1,0.435,"reversed","easy",4,"first-partial",2,8,"total-reversed"
"56b8de29e1d0a200051517f8","total",2,7,"left","left",1,0.675,"reversed","easy",4,"first-partial",2,8,"total-reversed"
"56b8de29e1d0a200051517f8","total",2,6,"right","right",1,0.682,"reversed","easy",4,"first-partial",2,8,"total-reversed"
"56b8de29e1d0a200051517f8","total",2,6,"right","right",1,0.53,"reversed","easy",4,"first-partial",2,8,"total-reversed"
"56b8de29e1d0a200051517f8","total",2,7,"left","left",1,0.619,"reversed","easy",4,"first-partial",3,9,"total-reversed"
"56b8de29e1d0a200051517f8","total",2,7,"left","left",1,0.498,"reversed","easy",4,"first-partial",3,9,"total-reversed"
"56b8de29e1d0a200051517f8","total",2,6,"right","right",1,0.616,"reversed","easy",4,"first-partial",3,9,"total-reversed"
"56b8de29e1d0a200051517f8","total",2,8,"left","left",1,0.694,"reversed","easy",4,"first-partial",3,9,"total-reversed"
"56b8de29e1d0a200051517f8","total",2,5,"right","left",0,0.58,"reversed","easy",4,"first-partial",3,9,"total-reversed"
"56b8de29e1d0a200051517f8","total",2,6,"right","right",1,0.624,"reversed","easy",4,"first-partial",3,9,"total-reversed"
"56b8de29e1d0a200051517f8","total",2,5,"right","right",1,0.508,"reversed","easy",4,"first-partial",3,9,"total-reversed"
"56b8de29e1d0a200051517f8","total",2,8,"left","right",0,0.804,"reversed","easy",4,"first-partial",3,9,"total-reversed"
"56b8de29e1d0a200051517f8","total",2,5,"right","right",1,0.627,"reversed","easy",4,"first-partial",4,10,"total-reversed"
"56b8de29e1d0a200051517f8","total",2,7,"left","left",1,0.624,"reversed","easy",4,"first-partial",4,10,"total-reversed"
"56b8de29e1d0a200051517f8","total",2,6,"right","right",1,0.483,"reversed","easy",4,"first-partial",4,10,"total-reversed"
"56b8de29e1d0a200051517f8","total",2,7,"left","left",1,0.52,"reversed","easy",4,"first-partial",4,10,"total-reversed"
"56b8de29e1d0a200051517f8","total",2,8,"left","left",1,0.791,"reversed","easy",4,"first-partial",4,10,"total-reversed"
"56b8de29e1d0a200051517f8","total",2,6,"right","right",1,0.526,"reversed","easy",4,"first-partial",4,10,"total-reversed"
"56b8de29e1d0a200051517f8","total",2,8,"left","left",1,0.495,"reversed","easy",4,"first-partial",4,10,"total-reversed"
"56b8de29e1d0a200051517f8","total",2,5,"right","right",1,0.394,"reversed","easy",4,"first-partial",4,10,"total-reversed"
"56b8de29e1d0a200051517f8","total",2,5,"right","right",1,0.482,"reversed","easy",4,"first-partial",5,11,"total-reversed"
"56b8de29e1d0a200051517f8","total",2,7,"left","left",1,0.537,"reversed","easy",4,"first-partial",5,11,"total-reversed"
"56b8de29e1d0a200051517f8","total",2,8,"left","right",0,0.43,"reversed","easy",4,"first-partial",5,11,"total-reversed"
"56b8de29e1d0a200051517f8","total",2,6,"right","right",1,0.441,"reversed","easy",4,"first-partial",5,11,"total-reversed"
"56b8de29e1d0a200051517f8","total",2,6,"right","right",1,0.536,"reversed","easy",4,"first-partial",5,11,"total-reversed"
"56b8de29e1d0a200051517f8","total",2,8,"left","left",1,0.349,"reversed","easy",4,"first-partial",5,11,"total-reversed"
"56b8de29e1d0a200051517f8","total",2,7,"left","left",1,0.51,"reversed","easy",4,"first-partial",5,11,"total-reversed"
"56b8de29e1d0a200051517f8","total",2,5,"right","right",1,0.521,"reversed","easy",4,"first-partial",5,11,"total-reversed"
"56b8de29e1d0a200051517f8","total",2,8,"left","left",1,0.388,"reversed","easy",4,"first-partial",6,12,"total-reversed"
"56b8de29e1d0a200051517f8","total",2,6,"right","right",1,0.418,"reversed","easy",4,"first-partial",6,12,"total-reversed"
"56b8de29e1d0a200051517f8","total",2,5,"right","right",1,0.61,"reversed","easy",4,"first-partial",6,12,"total-reversed"
"56b8de29e1d0a200051517f8","total",2,5,"right","right",1,0.422,"reversed","easy",4,"first-partial",6,12,"total-reversed"
"56b8de29e1d0a200051517f8","total",2,8,"left","left",1,0.416,"reversed","easy",4,"first-partial",6,12,"total-reversed"
"56b8de29e1d0a200051517f8","total",2,7,"left","right",0,0.448,"reversed","easy",4,"first-partial",6,12,"total-reversed"
"56b8de29e1d0a200051517f8","total",2,6,"right","right",1,0.537,"reversed","easy",4,"first-partial",6,12,"total-reversed"
"56b8de29e1d0a200051517f8","total",2,7,"left","left",1,0.39,"reversed","easy",4,"first-partial",6,12,"total-reversed"
"57a78015454e5400015f57ec","partial",1,5,"left","right",0,2.3067,"reversed","easy",2,"first-partial",1,1,"partial-reversed"
"57a78015454e5400015f57ec","partial",1,8,"right","right",1,4.5925,"nonreversed","easy",2,"first-partial",1,1,"partial-nonreversed"
"57a78015454e5400015f57ec","partial",1,7,"right","right",1,2.3236,"reversed","easy",2,"first-partial",1,1,"partial-reversed"
"57a78015454e5400015f57ec","partial",1,6,"left","left",1,1.3242,"nonreversed","easy",2,"first-partial",1,1,"partial-nonreversed"
"57a78015454e5400015f57ec","partial",1,8,"right","right",1,1.2218,"nonreversed","easy",2,"first-partial",1,1,"partial-nonreversed"
"57a78015454e5400015f57ec","partial",1,7,"right","left",0,1.3513,"reversed","easy",2,"first-partial",1,1,"partial-reversed"
"57a78015454e5400015f57ec","partial",1,6,"left","right",0,2.0062,"nonreversed","easy",2,"first-partial",1,1,"partial-nonreversed"
"57a78015454e5400015f57ec","partial",1,5,"left","right",0,1.3332,"reversed","easy",2,"first-partial",1,1,"partial-reversed"
"57a78015454e5400015f57ec","partial",1,6,"left","left",1,1.6612,"nonreversed","easy",2,"first-partial",2,2,"partial-nonreversed"
"57a78015454e5400015f57ec","partial",1,7,"right","right",1,1.3514,"reversed","easy",2,"first-partial",2,2,"partial-reversed"
"57a78015454e5400015f57ec","partial",1,8,"right","left",0,1.511,"nonreversed","easy",2,"first-partial",2,2,"partial-nonreversed"
"57a78015454e5400015f57ec","partial",1,8,"right","left",0,1.5172,"nonreversed","easy",2,"first-partial",2,2,"partial-nonreversed"
"57a78015454e5400015f57ec","partial",1,7,"right","right",1,1.1691,"reversed","easy",2,"first-partial",2,2,"partial-reversed"
"57a78015454e5400015f57ec","partial",1,5,"left","left",1,1.3454,"reversed","easy",2,"first-partial",2,2,"partial-reversed"
"57a78015454e5400015f57ec","partial",1,6,"left","left",1,1.02,"nonreversed","easy",2,"first-partial",2,2,"partial-nonreversed"
"57a78015454e5400015f57ec","partial",1,5,"left","right",0,1.6753,"reversed","easy",2,"first-partial",2,2,"partial-reversed"
"57a78015454e5400015f57ec","partial",1,6,"left","left",1,1.4807,"nonreversed","easy",2,"first-partial",3,3,"partial-nonreversed"
"57a78015454e5400015f57ec","partial",1,5,"left","left",1,0.9932,"reversed","easy",2,"first-partial",3,3,"partial-reversed"
"57a78015454e5400015f57ec","partial",1,7,"right","right",1,1.8478,"reversed","easy",2,"first-partial",3,3,"partial-reversed"
"57a78015454e5400015f57ec","partial",1,7,"right","right",1,1.3334,"reversed","easy",2,"first-partial",3,3,"partial-reversed"
"57a78015454e5400015f57ec","partial",1,6,"left","left",1,1.1869,"nonreversed","easy",2,"first-partial",3,3,"partial-nonreversed"
"57a78015454e5400015f57ec","partial",1,8,"right","left",0,1.3272,"nonreversed","easy",2,"first-partial",3,3,"partial-nonreversed"
"57a78015454e5400015f57ec","partial",1,5,"left","left",1,1.0271,"reversed","easy",2,"first-partial",3,3,"partial-reversed"
"57a78015454e5400015f57ec","partial",1,8,"right","right",1,1.0214,"nonreversed","easy",2,"first-partial",3,3,"partial-nonreversed"
"57a78015454e5400015f57ec","partial",1,8,"right","left",0,1.0029,"nonreversed","easy",2,"first-partial",4,4,"partial-nonreversed"
"57a78015454e5400015f57ec","partial",1,6,"left","left",1,0.849,"nonreversed","easy",2,"first-partial",4,4,"partial-nonreversed"
"57a78015454e5400015f57ec","partial",1,6,"left","right",0,0.9851,"nonreversed","easy",2,"first-partial",4,4,"partial-nonreversed"
"57a78015454e5400015f57ec","partial",1,5,"left","right",0,1.5114,"reversed","easy",2,"first-partial",4,4,"partial-reversed"
"57a78015454e5400015f57ec","partial",1,5,"left","left",1,1.014,"reversed","easy",2,"first-partial",4,4,"partial-reversed"
"57a78015454e5400015f57ec","partial",1,7,"right","right",1,1.3265,"reversed","easy",2,"first-partial",4,4,"partial-reversed"
"57a78015454e5400015f57ec","partial",1,7,"right","right",1,1.498,"reversed","easy",2,"first-partial",4,4,"partial-reversed"
"57a78015454e5400015f57ec","partial",1,8,"right","left",0,1.1589,"nonreversed","easy",2,"first-partial",4,4,"partial-nonreversed"
"57a78015454e5400015f57ec","partial",1,8,"right","right",1,1.5266,"nonreversed","easy",2,"first-partial",5,5,"partial-nonreversed"
"57a78015454e5400015f57ec","partial",1,7,"right","left",0,0.9916,"reversed","easy",2,"first-partial",5,5,"partial-reversed"
"57a78015454e5400015f57ec","partial",1,6,"left","right",0,1.1552,"nonreversed","easy",2,"first-partial",5,5,"partial-nonreversed"
"57a78015454e5400015f57ec","partial",1,7,"right","right",1,1.3333,"reversed","easy",2,"first-partial",5,5,"partial-reversed"
"57a78015454e5400015f57ec","partial",1,6,"left","left",1,1.3355,"nonreversed","easy",2,"first-partial",5,5,"partial-nonreversed"
"57a78015454e5400015f57ec","partial",1,8,"right","left",0,1.1765,"nonreversed","easy",2,"first-partial",5,5,"partial-nonreversed"
"57a78015454e5400015f57ec","partial",1,5,"left","right",0,1.3474,"reversed","easy",2,"first-partial",5,5,"partial-reversed"
"57a78015454e5400015f57ec","partial",1,5,"left","left",1,1.4933,"reversed","easy",2,"first-partial",5,5,"partial-reversed"
"57a78015454e5400015f57ec","partial",1,5,"left","left",1,0.9977,"reversed","easy",2,"first-partial",6,6,"partial-reversed"
"57a78015454e5400015f57ec","partial",1,5,"left","left",1,0.9874,"reversed","easy",2,"first-partial",6,6,"partial-reversed"
"57a78015454e5400015f57ec","partial",1,7,"right","right",1,1.0169,"reversed","easy",2,"first-partial",6,6,"partial-reversed"
"57a78015454e5400015f57ec","partial",1,8,"right","left",0,1.083,"nonreversed","easy",2,"first-partial",6,6,"partial-nonreversed"
"57a78015454e5400015f57ec","partial",1,8,"right","right",1,1.4909,"nonreversed","easy",2,"first-partial",6,6,"partial-nonreversed"
"57a78015454e5400015f57ec","partial",1,6,"left","right",0,1.4815,"nonreversed","easy",2,"first-partial",6,6,"partial-nonreversed"
"57a78015454e5400015f57ec","partial",1,7,"right","right",1,1.5109,"reversed","easy",2,"first-partial",6,6,"partial-reversed"
"57a78015454e5400015f57ec","partial",1,6,"left","left",1,1.5229,"nonreversed","easy",2,"first-partial",6,6,"partial-nonreversed"
"57a78015454e5400015f57ec","partial",2,8,"right","left",0,1.0071,"nonreversed","easy",2,"first-partial",1,7,"partial-nonreversed"
"57a78015454e5400015f57ec","partial",2,6,"left","left",1,1.3473,"nonreversed","easy",2,"first-partial",1,7,"partial-nonreversed"
"57a78015454e5400015f57ec","partial",2,7,"left","right",0,1.4922,"reversed","easy",2,"first-partial",1,7,"partial-reversed"
"57a78015454e5400015f57ec","partial",2,7,"left","right",0,1.0237,"reversed","easy",2,"first-partial",1,7,"partial-reversed"
"57a78015454e5400015f57ec","partial",2,8,"right","right",1,10.3779,"nonreversed","easy",2,"first-partial",1,7,"partial-nonreversed"
"57a78015454e5400015f57ec","partial",2,6,"left","right",0,1.3725,"nonreversed","easy",2,"first-partial",1,7,"partial-nonreversed"
"57a78015454e5400015f57ec","partial",2,5,"right","left",0,1.1782,"reversed","easy",2,"first-partial",1,7,"partial-reversed"
"57a78015454e5400015f57ec","partial",2,5,"right","right",1,0.9995,"reversed","easy",2,"first-partial",1,7,"partial-reversed"
"57a78015454e5400015f57ec","partial",2,6,"left","right",0,0.3373,"nonreversed","easy",2,"first-partial",2,8,"partial-nonreversed"
"57a78015454e5400015f57ec","partial",2,8,"right","right",1,1.2146,"nonreversed","easy",2,"first-partial",2,8,"partial-nonreversed"
"57a78015454e5400015f57ec","partial",2,7,"left","left",1,1.1755,"reversed","easy",2,"first-partial",2,8,"partial-reversed"
"57a78015454e5400015f57ec","partial",2,5,"right","right",1,2.7448,"reversed","easy",2,"first-partial",2,8,"partial-reversed"
"57a78015454e5400015f57ec","partial",2,6,"left","left",1,1.1585,"nonreversed","easy",2,"first-partial",2,8,"partial-nonreversed"
"57a78015454e5400015f57ec","partial",2,8,"right","right",1,1.1532,"nonreversed","easy",2,"first-partial",2,8,"partial-nonreversed"
"57a78015454e5400015f57ec","partial",2,5,"right","right",1,0.8263,"reversed","easy",2,"first-partial",2,8,"partial-reversed"
"57a78015454e5400015f57ec","partial",2,7,"left","left",1,1.1542,"reversed","easy",2,"first-partial",2,8,"partial-reversed"
"57a78015454e5400015f57ec","partial",2,7,"left","left",1,0.8271,"reversed","easy",2,"first-partial",3,9,"partial-reversed"
"57a78015454e5400015f57ec","partial",2,5,"right","right",1,0.8241,"reversed","easy",2,"first-partial",3,9,"partial-reversed"
"57a78015454e5400015f57ec","partial",2,6,"left","left",1,2.4903,"nonreversed","easy",2,"first-partial",3,9,"partial-nonreversed"
"57a78015454e5400015f57ec","partial",2,6,"left","left",1,0.9794,"nonreversed","easy",2,"first-partial",3,9,"partial-nonreversed"
"57a78015454e5400015f57ec","partial",2,7,"left","right",0,1.3378,"reversed","easy",2,"first-partial",3,9,"partial-reversed"
"57a78015454e5400015f57ec","partial",2,8,"right","left",0,1.5261,"nonreversed","easy",2,"first-partial",3,9,"partial-nonreversed"
"57a78015454e5400015f57ec","partial",2,5,"right","right",1,1.3325,"reversed","easy",2,"first-partial",3,9,"partial-reversed"
"57a78015454e5400015f57ec","partial",2,8,"right","left",0,1.2039,"nonreversed","easy",2,"first-partial",3,9,"partial-nonreversed"
"57a78015454e5400015f57ec","partial",2,7,"left","right",0,1.0352,"reversed","easy",2,"first-partial",4,10,"partial-reversed"
"57a78015454e5400015f57ec","partial",2,5,"right","right",1,1.7143,"reversed","easy",2,"first-partial",4,10,"partial-reversed"
"57a78015454e5400015f57ec","partial",2,7,"left","left",1,0.8575,"reversed","easy",2,"first-partial",4,10,"partial-reversed"
"57a78015454e5400015f57ec","partial",2,5,"right","right",1,1.9843,"reversed","easy",2,"first-partial",4,10,"partial-reversed"
"57a78015454e5400015f57ec","partial",2,6,"left","right",0,1.507,"nonreversed","easy",2,"first-partial",4,10,"partial-nonreversed"
"57a78015454e5400015f57ec","partial",2,6,"left","left",1,1.3934,"nonreversed","easy",2,"first-partial",4,10,"partial-nonreversed"
"57a78015454e5400015f57ec","partial",2,8,"right","left",0,1.3499,"nonreversed","easy",2,"first-partial",4,10,"partial-nonreversed"
"57a78015454e5400015f57ec","partial",2,8,"right","left",0,1.1756,"nonreversed","easy",2,"first-partial",4,10,"partial-nonreversed"
"57a78015454e5400015f57ec","partial",2,5,"right","right",1,0.9837,"reversed","easy",2,"first-partial",5,11,"partial-reversed"
"57a78015454e5400015f57ec","partial",2,7,"left","left",1,1.1635,"reversed","easy",2,"first-partial",5,11,"partial-reversed"
"57a78015454e5400015f57ec","partial",2,8,"right","right",1,1.3332,"nonreversed","easy",2,"first-partial",5,11,"partial-nonreversed"
"57a78015454e5400015f57ec","partial",2,7,"left","left",1,0.9984,"reversed","easy",2,"first-partial",5,11,"partial-reversed"
"57a78015454e5400015f57ec","partial",2,5,"right","right",1,1.5101,"reversed","easy",2,"first-partial",5,11,"partial-reversed"
"57a78015454e5400015f57ec","partial",2,8,"right","left",0,1.0112,"nonreversed","easy",2,"first-partial",5,11,"partial-nonreversed"
"57a78015454e5400015f57ec","partial",2,6,"left","left",1,1.3575,"nonreversed","easy",2,"first-partial",5,11,"partial-nonreversed"
"57a78015454e5400015f57ec","partial",2,6,"left","left",1,1.1583,"nonreversed","easy",2,"first-partial",5,11,"partial-nonreversed"
"57a78015454e5400015f57ec","partial",2,8,"right","right",1,1.1776,"nonreversed","easy",2,"first-partial",6,12,"partial-nonreversed"
"57a78015454e5400015f57ec","partial",2,6,"left","left",1,1.374,"nonreversed","easy",2,"first-partial",6,12,"partial-nonreversed"
"57a78015454e5400015f57ec","partial",2,7,"left","left",1,1.5021,"reversed","easy",2,"first-partial",6,12,"partial-reversed"
"57a78015454e5400015f57ec","partial",2,7,"left","left",1,1.032,"reversed","easy",2,"first-partial",6,12,"partial-reversed"
"57a78015454e5400015f57ec","partial",2,6,"left","left",1,1.5095,"nonreversed","easy",2,"first-partial",6,12,"partial-nonreversed"
"57a78015454e5400015f57ec","partial",2,5,"right","right",1,1.1726,"reversed","easy",2,"first-partial",6,12,"partial-reversed"
"57a78015454e5400015f57ec","partial",2,8,"right","right",1,1.329,"nonreversed","easy",2,"first-partial",6,12,"partial-nonreversed"
"57a78015454e5400015f57ec","partial",2,5,"right","right",1,1.6951,"reversed","easy",2,"first-partial",6,12,"partial-reversed"
"57a78015454e5400015f57ec","total",1,4,"right","left",0,0.9873,"reversed","easy",2,"first-partial",1,1,"total-reversed"
"57a78015454e5400015f57ec","total",1,2,"left","right",0,1.034,"reversed","easy",2,"first-partial",1,1,"total-reversed"
"57a78015454e5400015f57ec","total",1,4,"right","left",0,1.4069,"reversed","easy",2,"first-partial",1,1,"total-reversed"
"57a78015454e5400015f57ec","total",1,1,"left","right",0,1.374,"reversed","easy",2,"first-partial",1,1,"total-reversed"
"57a78015454e5400015f57ec","total",1,3,"right","left",0,0.9997,"reversed","easy",2,"first-partial",1,1,"total-reversed"
"57a78015454e5400015f57ec","total",1,3,"right","left",0,1.8535,"reversed","easy",2,"first-partial",1,1,"total-reversed"
"57a78015454e5400015f57ec","total",1,1,"left","right",0,1.725,"reversed","easy",2,"first-partial",1,1,"total-reversed"
"57a78015454e5400015f57ec","total",1,2,"left","right",0,1.2032,"reversed","easy",2,"first-partial",1,1,"total-reversed"
"57a78015454e5400015f57ec","total",1,3,"right","left",0,1.0058,"reversed","easy",2,"first-partial",2,2,"total-reversed"
"57a78015454e5400015f57ec","total",1,2,"left","left",1,1.5039,"reversed","easy",2,"first-partial",2,2,"total-reversed"
"57a78015454e5400015f57ec","total",1,1,"left","left",1,0.8394,"reversed","easy",2,"first-partial",2,2,"total-reversed"
"57a78015454e5400015f57ec","total",1,1,"left","left",1,1.1768,"reversed","easy",2,"first-partial",2,2,"total-reversed"
"57a78015454e5400015f57ec","total",1,2,"left","right",0,1.1796,"reversed","easy",2,"first-partial",2,2,"total-reversed"
"57a78015454e5400015f57ec","total",1,4,"right","left",0,0.9929,"reversed","easy",2,"first-partial",2,2,"total-reversed"
"57a78015454e5400015f57ec","total",1,4,"right","right",1,1.3569,"reversed","easy",2,"first-partial",2,2,"total-reversed"
"57a78015454e5400015f57ec","total",1,3,"right","right",1,1.3154,"reversed","easy",2,"first-partial",2,2,"total-reversed"
"57a78015454e5400015f57ec","total",1,4,"right","right",1,1.5212,"reversed","easy",2,"first-partial",3,3,"total-reversed"
"57a78015454e5400015f57ec","total",1,2,"left","left",1,1.3573,"reversed","easy",2,"first-partial",3,3,"total-reversed"
"57a78015454e5400015f57ec","total",1,2,"left","left",1,0.8901,"reversed","easy",2,"first-partial",3,3,"total-reversed"
"57a78015454e5400015f57ec","total",1,1,"left","right",0,1.0233,"reversed","easy",2,"first-partial",3,3,"total-reversed"
"57a78015454e5400015f57ec","total",1,1,"left","left",1,0.8336,"reversed","easy",2,"first-partial",3,3,"total-reversed"
"57a78015454e5400015f57ec","total",1,3,"right","right",1,1.1548,"reversed","easy",2,"first-partial",3,3,"total-reversed"
"57a78015454e5400015f57ec","total",1,4,"right","left",0,1.33,"reversed","easy",2,"first-partial",3,3,"total-reversed"
"57a78015454e5400015f57ec","total",1,3,"right","right",1,1.3227,"reversed","easy",2,"first-partial",3,3,"total-reversed"
"57a78015454e5400015f57ec","total",1,2,"left","left",1,1.0131,"reversed","easy",2,"first-partial",4,4,"total-reversed"
"57a78015454e5400015f57ec","total",1,1,"left","right",0,1.1594,"reversed","easy",2,"first-partial",4,4,"total-reversed"
"57a78015454e5400015f57ec","total",1,4,"right","left",0,1.1801,"reversed","easy",2,"first-partial",4,4,"total-reversed"
"57a78015454e5400015f57ec","total",1,4,"right","right",1,0.8232,"reversed","easy",2,"first-partial",4,4,"total-reversed"
"57a78015454e5400015f57ec","total",1,2,"left","left",1,1.5264,"reversed","easy",2,"first-partial",4,4,"total-reversed"
"57a78015454e5400015f57ec","total",1,1,"left","left",1,1.1797,"reversed","easy",2,"first-partial",4,4,"total-reversed"
"57a78015454e5400015f57ec","total",1,3,"right","right",1,1.169,"reversed","easy",2,"first-partial",4,4,"total-reversed"
"57a78015454e5400015f57ec","total",1,3,"right","right",1,0.9855,"reversed","easy",2,"first-partial",4,4,"total-reversed"
"57a78015454e5400015f57ec","total",1,1,"left","left",1,1.1474,"reversed","easy",2,"first-partial",5,5,"total-reversed"
"57a78015454e5400015f57ec","total",1,2,"left","left",1,0.8273,"reversed","easy",2,"first-partial",5,5,"total-reversed"
"57a78015454e5400015f57ec","total",1,3,"right","right",1,1.1617,"reversed","easy",2,"first-partial",5,5,"total-reversed"
"57a78015454e5400015f57ec","total",1,4,"right","right",1,1.7665,"reversed","easy",2,"first-partial",5,5,"total-reversed"
"57a78015454e5400015f57ec","total",1,1,"left","right",0,1.3628,"reversed","easy",2,"first-partial",5,5,"total-reversed"
"57a78015454e5400015f57ec","total",1,4,"right","left",0,1.0191,"reversed","easy",2,"first-partial",5,5,"total-reversed"
"57a78015454e5400015f57ec","total",1,2,"left","left",1,1.2173,"reversed","easy",2,"first-partial",5,5,"total-reversed"
"57a78015454e5400015f57ec","total",1,3,"right","right",1,1.167,"reversed","easy",2,"first-partial",5,5,"total-reversed"
"57a78015454e5400015f57ec","total",1,2,"left","left",1,2.5217,"reversed","easy",2,"first-partial",6,6,"total-reversed"
"57a78015454e5400015f57ec","total",1,4,"right","right",1,1.8127,"reversed","easy",2,"first-partial",6,6,"total-reversed"
"57a78015454e5400015f57ec","total",1,2,"left","left",1,0.8315,"reversed","easy",2,"first-partial",6,6,"total-reversed"
"57a78015454e5400015f57ec","total",1,3,"right","right",1,1.2144,"reversed","easy",2,"first-partial",6,6,"total-reversed"
"57a78015454e5400015f57ec","total",1,1,"left","left",1,1.1529,"reversed","easy",2,"first-partial",6,6,"total-reversed"
"57a78015454e5400015f57ec","total",1,4,"right","left",0,1.1487,"reversed","easy",2,"first-partial",6,6,"total-reversed"
"57a78015454e5400015f57ec","total",1,3,"right","left",0,1.3657,"reversed","easy",2,"first-partial",6,6,"total-reversed"
"57a78015454e5400015f57ec","total",1,1,"left","left",1,1.1656,"reversed","easy",2,"first-partial",6,6,"total-reversed"
"57a78015454e5400015f57ec","total",2,1,"right","left",0,0.9995,"reversed","easy",2,"first-partial",1,7,"total-reversed"
"57a78015454e5400015f57ec","total",2,3,"left","right",0,1.028,"reversed","easy",2,"first-partial",1,7,"total-reversed"
"57a78015454e5400015f57ec","total",2,2,"right","left",0,1.1729,"reversed","easy",2,"first-partial",1,7,"total-reversed"
"57a78015454e5400015f57ec","total",2,1,"right","left",0,1.3355,"reversed","easy",2,"first-partial",1,7,"total-reversed"
"57a78015454e5400015f57ec","total",2,2,"right","right",1,1.3504,"reversed","easy",2,"first-partial",1,7,"total-reversed"
"57a78015454e5400015f57ec","total",2,3,"left","right",0,1.3671,"reversed","easy",2,"first-partial",1,7,"total-reversed"
"57a78015454e5400015f57ec","total",2,4,"left","left",1,1.1776,"reversed","easy",2,"first-partial",1,7,"total-reversed"
"57a78015454e5400015f57ec","total",2,4,"left","left",1,1.5336,"reversed","easy",2,"first-partial",1,7,"total-reversed"
"57a78015454e5400015f57ec","total",2,2,"right","left",0,1.0282,"reversed","easy",2,"first-partial",2,8,"total-reversed"
"57a78015454e5400015f57ec","total",2,3,"left","right",0,1.319,"reversed","easy",2,"first-partial",2,8,"total-reversed"
"57a78015454e5400015f57ec","total",2,4,"left","left",1,1.1576,"reversed","easy",2,"first-partial",2,8,"total-reversed"
"57a78015454e5400015f57ec","total",2,1,"right","right",1,1.3204,"reversed","easy",2,"first-partial",2,8,"total-reversed"
"57a78015454e5400015f57ec","total",2,1,"right","right",1,0.983,"reversed","easy",2,"first-partial",2,8,"total-reversed"
"57a78015454e5400015f57ec","total",2,4,"left","left",1,0.9984,"reversed","easy",2,"first-partial",2,8,"total-reversed"
"57a78015454e5400015f57ec","total",2,2,"right","left",0,1.6832,"reversed","easy",2,"first-partial",2,8,"total-reversed"
"57a78015454e5400015f57ec","total",2,3,"left","right",0,3.6666,"reversed","easy",2,"first-partial",2,8,"total-reversed"
"57a78015454e5400015f57ec","total",2,2,"right","left",0,3.4902,"reversed","easy",2,"first-partial",3,9,"total-reversed"
"57a78015454e5400015f57ec","total",2,2,"right","left",0,1.3268,"reversed","easy",2,"first-partial",3,9,"total-reversed"
"57a78015454e5400015f57ec","total",2,4,"left","right",0,0.994,"reversed","easy",2,"first-partial",3,9,"total-reversed"
"57a78015454e5400015f57ec","total",2,3,"left","left",1,0.8403,"reversed","easy",2,"first-partial",3,9,"total-reversed"
"57a78015454e5400015f57ec","total",2,4,"left","left",1,1.3088,"reversed","easy",2,"first-partial",3,9,"total-reversed"
"57a78015454e5400015f57ec","total",2,1,"right","right",1,1.1692,"reversed","easy",2,"first-partial",3,9,"total-reversed"
"57a78015454e5400015f57ec","total",2,1,"right","right",1,0.8252,"reversed","easy",2,"first-partial",3,9,"total-reversed"
"57a78015454e5400015f57ec","total",2,3,"left","left",1,1.1531,"reversed","easy",2,"first-partial",3,9,"total-reversed"
"57a78015454e5400015f57ec","total",2,4,"left","right",0,1.1808,"reversed","easy",2,"first-partial",4,10,"total-reversed"
"57a78015454e5400015f57ec","total",2,1,"right","left",0,2.3828,"reversed","easy",2,"first-partial",4,10,"total-reversed"
"57a78015454e5400015f57ec","total",2,3,"left","left",1,1.5477,"reversed","easy",2,"first-partial",4,10,"total-reversed"
"57a78015454e5400015f57ec","total",2,3,"left","left",1,0.3265,"reversed","easy",2,"first-partial",4,10,"total-reversed"
"57a78015454e5400015f57ec","total",2,2,"right","right",1,1.1761,"reversed","easy",2,"first-partial",4,10,"total-reversed"
"57a78015454e5400015f57ec","total",2,1,"right","left",0,1.3269,"reversed","easy",2,"first-partial",4,10,"total-reversed"
"57a78015454e5400015f57ec","total",2,4,"left","right",0,1.3402,"reversed","easy",2,"first-partial",4,10,"total-reversed"
"57a78015454e5400015f57ec","total",2,2,"right","left",0,1.1652,"reversed","easy",2,"first-partial",4,10,"total-reversed"
"57a78015454e5400015f57ec","total",2,3,"left","right",0,1.4797,"reversed","easy",2,"first-partial",5,11,"total-reversed"
"57a78015454e5400015f57ec","total",2,3,"left","left",1,1.1661,"reversed","easy",2,"first-partial",5,11,"total-reversed"
"57a78015454e5400015f57ec","total",2,2,"right","left",0,0.9936,"reversed","easy",2,"first-partial",5,11,"total-reversed"
"57a78015454e5400015f57ec","total",2,4,"left","left",1,1.3333,"reversed","easy",2,"first-partial",5,11,"total-reversed"
"57a78015454e5400015f57ec","total",2,1,"right","right",1,1.3662,"reversed","easy",2,"first-partial",5,11,"total-reversed"
"57a78015454e5400015f57ec","total",2,4,"left","left",1,1.0094,"reversed","easy",2,"first-partial",5,11,"total-reversed"
"57a78015454e5400015f57ec","total",2,1,"right","right",1,1.4907,"reversed","easy",2,"first-partial",5,11,"total-reversed"
"57a78015454e5400015f57ec","total",2,2,"right","left",0,0.9977,"reversed","easy",2,"first-partial",5,11,"total-reversed"
"57a78015454e5400015f57ec","total",2,2,"right","right",1,1.3341,"reversed","easy",2,"first-partial",6,12,"total-reversed"
"57a78015454e5400015f57ec","total",2,3,"left","left",1,1.8413,"reversed","easy",2,"first-partial",6,12,"total-reversed"
"57a78015454e5400015f57ec","total",2,4,"left","right",0,1.1613,"reversed","easy",2,"first-partial",6,12,"total-reversed"
"57a78015454e5400015f57ec","total",2,1,"right","left",0,1.3382,"reversed","easy",2,"first-partial",6,12,"total-reversed"
"57a78015454e5400015f57ec","total",2,4,"left","left",1,1.1846,"reversed","easy",2,"first-partial",6,12,"total-reversed"
"57a78015454e5400015f57ec","total",2,2,"right","left",0,1.3642,"reversed","easy",2,"first-partial",6,12,"total-reversed"
"57a78015454e5400015f57ec","total",2,1,"right","right",1,1.0095,"reversed","easy",2,"first-partial",6,12,"total-reversed"
"57a78015454e5400015f57ec","total",2,3,"left","left",1,1.5028,"reversed","easy",2,"first-partial",6,12,"total-reversed"
"59ae8d282a78fd00010b80e7","total",1,13,"left","left",1,1.397,"reversed","easy",7,"first-total",1,1,"total-reversed"
"59ae8d282a78fd00010b80e7","total",1,13,"left","left",1,0.591,"reversed","easy",7,"first-total",1,1,"total-reversed"
"59ae8d282a78fd00010b80e7","total",1,14,"left","right",0,0.541,"reversed","easy",7,"first-total",1,1,"total-reversed"
"59ae8d282a78fd00010b80e7","total",1,16,"right","right",1,0.925,"reversed","easy",7,"first-total",1,1,"total-reversed"
"59ae8d282a78fd00010b80e7","total",1,14,"left","left",1,0.503,"reversed","easy",7,"first-total",1,1,"total-reversed"
"59ae8d282a78fd00010b80e7","total",1,15,"right","right",1,0.894,"reversed","easy",7,"first-total",1,1,"total-reversed"
"59ae8d282a78fd00010b80e7","total",1,15,"right","right",1,0.604,"reversed","easy",7,"first-total",1,1,"total-reversed"
"59ae8d282a78fd00010b80e7","total",1,16,"right","right",1,0.723,"reversed","easy",7,"first-total",1,1,"total-reversed"
"59ae8d282a78fd00010b80e7","total",1,13,"left","left",1,0.379,"reversed","easy",7,"first-total",2,2,"total-reversed"
"59ae8d282a78fd00010b80e7","total",1,14,"left","left",1,0.424,"reversed","easy",7,"first-total",2,2,"total-reversed"
"59ae8d282a78fd00010b80e7","total",1,15,"right","right",1,0.442,"reversed","easy",7,"first-total",2,2,"total-reversed"
"59ae8d282a78fd00010b80e7","total",1,14,"left","right",0,0.613,"reversed","easy",7,"first-total",2,2,"total-reversed"
"59ae8d282a78fd00010b80e7","total",1,16,"right","right",1,0.539,"reversed","easy",7,"first-total",2,2,"total-reversed"
"59ae8d282a78fd00010b80e7","total",1,15,"right","left",0,0.508,"reversed","easy",7,"first-total",2,2,"total-reversed"
"59ae8d282a78fd00010b80e7","total",1,13,"left","left",1,0.505,"reversed","easy",7,"first-total",2,2,"total-reversed"
"59ae8d282a78fd00010b80e7","total",1,16,"right","right",1,0.555,"reversed","easy",7,"first-total",2,2,"total-reversed"
"59ae8d282a78fd00010b80e7","total",1,14,"left","right",0,0.594,"reversed","easy",7,"first-total",3,3,"total-reversed"
"59ae8d282a78fd00010b80e7","total",1,13,"left","left",1,0.496,"reversed","easy",7,"first-total",3,3,"total-reversed"
"59ae8d282a78fd00010b80e7","total",1,16,"right","right",1,0.476,"reversed","easy",7,"first-total",3,3,"total-reversed"
"59ae8d282a78fd00010b80e7","total",1,15,"right","right",1,0.744,"reversed","easy",7,"first-total",3,3,"total-reversed"
"59ae8d282a78fd00010b80e7","total",1,14,"left","left",1,0.372,"reversed","easy",7,"first-total",3,3,"total-reversed"
"59ae8d282a78fd00010b80e7","total",1,13,"left","left",1,0.491,"reversed","easy",7,"first-total",3,3,"total-reversed"
"59ae8d282a78fd00010b80e7","total",1,16,"right","right",1,0.527,"reversed","easy",7,"first-total",3,3,"total-reversed"
"59ae8d282a78fd00010b80e7","total",1,15,"right","right",1,0.489,"reversed","easy",7,"first-total",3,3,"total-reversed"
"59ae8d282a78fd00010b80e7","total",1,14,"left","left",1,0.506,"reversed","easy",7,"first-total",4,4,"total-reversed"
"59ae8d282a78fd00010b80e7","total",1,13,"left","left",1,0.461,"reversed","easy",7,"first-total",4,4,"total-reversed"
"59ae8d282a78fd00010b80e7","total",1,15,"right","right",1,0.44,"reversed","easy",7,"first-total",4,4,"total-reversed"
"59ae8d282a78fd00010b80e7","total",1,16,"right","right",1,0.428,"reversed","easy",7,"first-total",4,4,"total-reversed"
"59ae8d282a78fd00010b80e7","total",1,15,"right","right",1,0.414,"reversed","easy",7,"first-total",4,4,"total-reversed"
"59ae8d282a78fd00010b80e7","total",1,13,"left","right",0,0.407,"reversed","easy",7,"first-total",4,4,"total-reversed"
"59ae8d282a78fd00010b80e7","total",1,16,"right","right",1,0.507,"reversed","easy",7,"first-total",4,4,"total-reversed"
"59ae8d282a78fd00010b80e7","total",1,14,"left","left",1,0.412,"reversed","easy",7,"first-total",4,4,"total-reversed"
"59ae8d282a78fd00010b80e7","total",1,13,"left","left",1,0.408,"reversed","easy",7,"first-total",5,5,"total-reversed"
"59ae8d282a78fd00010b80e7","total",1,16,"right","right",1,0.505,"reversed","easy",7,"first-total",5,5,"total-reversed"
"59ae8d282a78fd00010b80e7","total",1,15,"right","left",0,0.461,"reversed","easy",7,"first-total",5,5,"total-reversed"
"59ae8d282a78fd00010b80e7","total",1,16,"right","right",1,0.574,"reversed","easy",7,"first-total",5,5,"total-reversed"
"59ae8d282a78fd00010b80e7","total",1,13,"left","left",1,0.559,"reversed","easy",7,"first-total",5,5,"total-reversed"
"59ae8d282a78fd00010b80e7","total",1,15,"right","right",1,0.527,"reversed","easy",7,"first-total",5,5,"total-reversed"
"59ae8d282a78fd00010b80e7","total",1,14,"left","left",1,0.457,"reversed","easy",7,"first-total",5,5,"total-reversed"
"59ae8d282a78fd00010b80e7","total",1,14,"left","left",1,0.431,"reversed","easy",7,"first-total",5,5,"total-reversed"
"59ae8d282a78fd00010b80e7","total",1,15,"right","right",1,0.376,"reversed","easy",7,"first-total",6,6,"total-reversed"
"59ae8d282a78fd00010b80e7","total",1,15,"right","right",1,0.392,"reversed","easy",7,"first-total",6,6,"total-reversed"
"59ae8d282a78fd00010b80e7","total",1,14,"left","left",1,0.475,"reversed","easy",7,"first-total",6,6,"total-reversed"
"59ae8d282a78fd00010b80e7","total",1,13,"left","right",0,0.457,"reversed","easy",7,"first-total",6,6,"total-reversed"
"59ae8d282a78fd00010b80e7","total",1,13,"left","left",1,0.407,"reversed","easy",7,"first-total",6,6,"total-reversed"
"59ae8d282a78fd00010b80e7","total",1,16,"right","right",1,0.523,"reversed","easy",7,"first-total",6,6,"total-reversed"
"59ae8d282a78fd00010b80e7","total",1,16,"right","right",1,0.359,"reversed","easy",7,"first-total",6,6,"total-reversed"
"59ae8d282a78fd00010b80e7","total",1,14,"left","left",1,0.289,"reversed","easy",7,"first-total",6,6,"total-reversed"
"59ae8d282a78fd00010b80e7","total",2,14,"right","left",0,0.425,"reversed","easy",7,"first-total",1,7,"total-reversed"
"59ae8d282a78fd00010b80e7","total",2,13,"right","left",0,0.412,"reversed","easy",7,"first-total",1,7,"total-reversed"
"59ae8d282a78fd00010b80e7","total",2,15,"left","right",0,0.492,"reversed","easy",7,"first-total",1,7,"total-reversed"
"59ae8d282a78fd00010b80e7","total",2,14,"right","right",1,0.724,"reversed","easy",7,"first-total",1,7,"total-reversed"
"59ae8d282a78fd00010b80e7","total",2,16,"left","left",1,0.409,"reversed","easy",7,"first-total",1,7,"total-reversed"
"59ae8d282a78fd00010b80e7","total",2,15,"left","left",1,0.447,"reversed","easy",7,"first-total",1,7,"total-reversed"
"59ae8d282a78fd00010b80e7","total",2,16,"left","left",1,0.414,"reversed","easy",7,"first-total",1,7,"total-reversed"
"59ae8d282a78fd00010b80e7","total",2,13,"right","right",1,0.407,"reversed","easy",7,"first-total",1,7,"total-reversed"
"59ae8d282a78fd00010b80e7","total",2,15,"left","left",1,0.331,"reversed","easy",7,"first-total",2,8,"total-reversed"
"59ae8d282a78fd00010b80e7","total",2,16,"left","right",0,0.507,"reversed","easy",7,"first-total",2,8,"total-reversed"
"59ae8d282a78fd00010b80e7","total",2,13,"right","right",1,0.493,"reversed","easy",7,"first-total",2,8,"total-reversed"
"59ae8d282a78fd00010b80e7","total",2,13,"right","left",0,0.428,"reversed","easy",7,"first-total",2,8,"total-reversed"
"59ae8d282a78fd00010b80e7","total",2,15,"left","left",1,0.34,"reversed","easy",7,"first-total",2,8,"total-reversed"
"59ae8d282a78fd00010b80e7","total",2,16,"left","left",1,0.429,"reversed","easy",7,"first-total",2,8,"total-reversed"
"59ae8d282a78fd00010b80e7","total",2,14,"right","right",1,0.538,"reversed","easy",7,"first-total",2,8,"total-reversed"
"59ae8d282a78fd00010b80e7","total",2,14,"right","left",0,0.44,"reversed","easy",7,"first-total",2,8,"total-reversed"
"59ae8d282a78fd00010b80e7","total",2,14,"right","left",0,0.48,"reversed","easy",7,"first-total",3,9,"total-reversed"
"59ae8d282a78fd00010b80e7","total",2,16,"left","left",1,0.488,"reversed","easy",7,"first-total",3,9,"total-reversed"
"59ae8d282a78fd00010b80e7","total",2,13,"right","left",0,0.407,"reversed","easy",7,"first-total",3,9,"total-reversed"
"59ae8d282a78fd00010b80e7","total",2,13,"right","right",1,0.525,"reversed","easy",7,"first-total",3,9,"total-reversed"
"59ae8d282a78fd00010b80e7","total",2,15,"left","left",1,0.423,"reversed","easy",7,"first-total",3,9,"total-reversed"
"59ae8d282a78fd00010b80e7","total",2,14,"right","left",0,0.408,"reversed","easy",7,"first-total",3,9,"total-reversed"
"59ae8d282a78fd00010b80e7","total",2,15,"left","right",0,0.497,"reversed","easy",7,"first-total",3,9,"total-reversed"
"59ae8d282a78fd00010b80e7","total",2,16,"left","left",1,0.561,"reversed","easy",7,"first-total",3,9,"total-reversed"
"59ae8d282a78fd00010b80e7","total",2,14,"right","right",1,1.009,"reversed","easy",7,"first-total",4,10,"total-reversed"
"59ae8d282a78fd00010b80e7","total",2,16,"left","left",1,0.504,"reversed","easy",7,"first-total",4,10,"total-reversed"
"59ae8d282a78fd00010b80e7","total",2,13,"right","right",1,0.94,"reversed","easy",7,"first-total",4,10,"total-reversed"
"59ae8d282a78fd00010b80e7","total",2,14,"right","right",1,0.572,"reversed","easy",7,"first-total",4,10,"total-reversed"
"59ae8d282a78fd00010b80e7","total",2,15,"left","left",1,0.487,"reversed","easy",7,"first-total",4,10,"total-reversed"
"59ae8d282a78fd00010b80e7","total",2,16,"left","left",1,0.321,"reversed","easy",7,"first-total",4,10,"total-reversed"
"59ae8d282a78fd00010b80e7","total",2,15,"left","left",1,0.387,"reversed","easy",7,"first-total",4,10,"total-reversed"
"59ae8d282a78fd00010b80e7","total",2,13,"right","right",1,0.49,"reversed","easy",7,"first-total",4,10,"total-reversed"
"59ae8d282a78fd00010b80e7","total",2,15,"left","left",1,0.555,"reversed","easy",7,"first-total",5,11,"total-reversed"
"59ae8d282a78fd00010b80e7","total",2,13,"right","right",1,0.523,"reversed","easy",7,"first-total",5,11,"total-reversed"
"59ae8d282a78fd00010b80e7","total",2,16,"left","left",1,0.441,"reversed","easy",7,"first-total",5,11,"total-reversed"
"59ae8d282a78fd00010b80e7","total",2,14,"right","right",1,0.544,"reversed","easy",7,"first-total",5,11,"total-reversed"
"59ae8d282a78fd00010b80e7","total",2,13,"right","right",1,0.493,"reversed","easy",7,"first-total",5,11,"total-reversed"
"59ae8d282a78fd00010b80e7","total",2,16,"left","right",0,0.455,"reversed","easy",7,"first-total",5,11,"total-reversed"
"59ae8d282a78fd00010b80e7","total",2,15,"left","left",1,0.389,"reversed","easy",7,"first-total",5,11,"total-reversed"
"59ae8d282a78fd00010b80e7","total",2,14,"right","right",1,0.526,"reversed","easy",7,"first-total",5,11,"total-reversed"
"59ae8d282a78fd00010b80e7","total",2,14,"right","right",1,0.48,"reversed","easy",7,"first-total",6,12,"total-reversed"
"59ae8d282a78fd00010b80e7","total",2,13,"right","left",0,0.477,"reversed","easy",7,"first-total",6,12,"total-reversed"
"59ae8d282a78fd00010b80e7","total",2,15,"left","left",1,0.539,"reversed","easy",7,"first-total",6,12,"total-reversed"
"59ae8d282a78fd00010b80e7","total",2,14,"right","right",1,0.508,"reversed","easy",7,"first-total",6,12,"total-reversed"
"59ae8d282a78fd00010b80e7","total",2,16,"left","left",1,0.393,"reversed","easy",7,"first-total",6,12,"total-reversed"
"59ae8d282a78fd00010b80e7","total",2,16,"left","left",1,0.374,"reversed","easy",7,"first-total",6,12,"total-reversed"
"59ae8d282a78fd00010b80e7","total",2,13,"right","left",0,0.36,"reversed","easy",7,"first-total",6,12,"total-reversed"
"59ae8d282a78fd00010b80e7","total",2,15,"left","left",1,0.514,"reversed","easy",7,"first-total",6,12,"total-reversed"
"59ae8d282a78fd00010b80e7","partial",1,12,"right","left",0,0.726,"reversed","easy",7,"first-total",1,1,"partial-reversed"
"59ae8d282a78fd00010b80e7","partial",1,12,"right","right",1,0.449,"reversed","easy",7,"first-total",1,1,"partial-reversed"
"59ae8d282a78fd00010b80e7","partial",1,9,"left","left",1,0.44,"nonreversed","easy",7,"first-total",1,1,"partial-nonreversed"
"59ae8d282a78fd00010b80e7","partial",1,10,"left","right",0,0.592,"reversed","easy",7,"first-total",1,1,"partial-reversed"
"59ae8d282a78fd00010b80e7","partial",1,10,"left","left",1,0.559,"reversed","easy",7,"first-total",1,1,"partial-reversed"
"59ae8d282a78fd00010b80e7","partial",1,9,"left","left",1,0.759,"nonreversed","easy",7,"first-total",1,1,"partial-nonreversed"
"59ae8d282a78fd00010b80e7","partial",1,11,"right","left",0,0.608,"nonreversed","easy",7,"first-total",1,1,"partial-nonreversed"
"59ae8d282a78fd00010b80e7","partial",1,11,"right","right",1,0.59,"nonreversed","easy",7,"first-total",1,1,"partial-nonreversed"
"59ae8d282a78fd00010b80e7","partial",1,11,"right","right",1,0.491,"nonreversed","easy",7,"first-total",2,2,"partial-nonreversed"
"59ae8d282a78fd00010b80e7","partial",1,10,"left","left",1,0.524,"reversed","easy",7,"first-total",2,2,"partial-reversed"
"59ae8d282a78fd00010b80e7","partial",1,10,"left","left",1,0.592,"reversed","easy",7,"first-total",2,2,"partial-reversed"
"59ae8d282a78fd00010b80e7","partial",1,12,"right","left",0,0.52,"reversed","easy",7,"first-total",2,2,"partial-reversed"
"59ae8d282a78fd00010b80e7","partial",1,12,"right","right",1,0.404,"reversed","easy",7,"first-total",2,2,"partial-reversed"
"59ae8d282a78fd00010b80e7","partial",1,11,"right","right",1,0.545,"nonreversed","easy",7,"first-total",2,2,"partial-nonreversed"
"59ae8d282a78fd00010b80e7","partial",1,9,"left","left",1,0.558,"nonreversed","easy",7,"first-total",2,2,"partial-nonreversed"
"59ae8d282a78fd00010b80e7","partial",1,9,"left","left",1,0.53,"nonreversed","easy",7,"first-total",2,2,"partial-nonreversed"
"59ae8d282a78fd00010b80e7","partial",1,9,"left","left",1,0.459,"nonreversed","easy",7,"first-total",3,3,"partial-nonreversed"
"59ae8d282a78fd00010b80e7","partial",1,11,"right","right",1,0.525,"nonreversed","easy",7,"first-total",3,3,"partial-nonreversed"
"59ae8d282a78fd00010b80e7","partial",1,9,"left","right",0,0.406,"nonreversed","easy",7,"first-total",3,3,"partial-nonreversed"
"59ae8d282a78fd00010b80e7","partial",1,11,"right","left",0,0.408,"nonreversed","easy",7,"first-total",3,3,"partial-nonreversed"
"59ae8d282a78fd00010b80e7","partial",1,10,"left","left",1,0.505,"reversed","easy",7,"first-total",3,3,"partial-reversed"
"59ae8d282a78fd00010b80e7","partial",1,12,"right","right",1,0.423,"reversed","easy",7,"first-total",3,3,"partial-reversed"
"59ae8d282a78fd00010b80e7","partial",1,10,"left","left",1,0.48,"reversed","easy",7,"first-total",3,3,"partial-reversed"
"59ae8d282a78fd00010b80e7","partial",1,12,"right","right",1,0.429,"reversed","easy",7,"first-total",3,3,"partial-reversed"
"59ae8d282a78fd00010b80e7","partial",1,9,"left","left",1,0.546,"nonreversed","easy",7,"first-total",4,4,"partial-nonreversed"
"59ae8d282a78fd00010b80e7","partial",1,11,"right","left",0,0.478,"nonreversed","easy",7,"first-total",4,4,"partial-nonreversed"
"59ae8d282a78fd00010b80e7","partial",1,11,"right","right",1,0.38,"nonreversed","easy",7,"first-total",4,4,"partial-nonreversed"
"59ae8d282a78fd00010b80e7","partial",1,12,"right","left",0,0.377,"reversed","easy",7,"first-total",4,4,"partial-reversed"
"59ae8d282a78fd00010b80e7","partial",1,9,"left","left",1,0.525,"nonreversed","easy",7,"first-total",4,4,"partial-nonreversed"
"59ae8d282a78fd00010b80e7","partial",1,10,"left","left",1,0.607,"reversed","easy",7,"first-total",4,4,"partial-reversed"
"59ae8d282a78fd00010b80e7","partial",1,12,"right","left",0,0.409,"reversed","easy",7,"first-total",4,4,"partial-reversed"
"59ae8d282a78fd00010b80e7","partial",1,10,"left","left",1,0.505,"reversed","easy",7,"first-total",4,4,"partial-reversed"
"59ae8d282a78fd00010b80e7","partial",1,12,"right","right",1,0.357,"reversed","easy",7,"first-total",5,5,"partial-reversed"
"59ae8d282a78fd00010b80e7","partial",1,10,"left","left",1,0.457,"reversed","easy",7,"first-total",5,5,"partial-reversed"
"59ae8d282a78fd00010b80e7","partial",1,9,"left","right",0,0.39,"nonreversed","easy",7,"first-total",5,5,"partial-nonreversed"
"59ae8d282a78fd00010b80e7","partial",1,11,"right","right",1,0.59,"nonreversed","easy",7,"first-total",5,5,"partial-nonreversed"
"59ae8d282a78fd00010b80e7","partial",1,10,"left","left",1,0.442,"reversed","easy",7,"first-total",5,5,"partial-reversed"
"59ae8d282a78fd00010b80e7","partial",1,9,"left","left",1,0.573,"nonreversed","easy",7,"first-total",5,5,"partial-nonreversed"
"59ae8d282a78fd00010b80e7","partial",1,12,"right","left",0,0.426,"reversed","easy",7,"first-total",5,5,"partial-reversed"
"59ae8d282a78fd00010b80e7","partial",1,11,"right","right",1,0.441,"nonreversed","easy",7,"first-total",5,5,"partial-nonreversed"
"59ae8d282a78fd00010b80e7","partial",1,9,"left","left",1,0.348,"nonreversed","easy",7,"first-total",6,6,"partial-nonreversed"
"59ae8d282a78fd00010b80e7","partial",1,12,"right","right",1,0.491,"reversed","easy",7,"first-total",6,6,"partial-reversed"
"59ae8d282a78fd00010b80e7","partial",1,11,"right","right",1,0.492,"nonreversed","easy",7,"first-total",6,6,"partial-nonreversed"
"59ae8d282a78fd00010b80e7","partial",1,10,"left","left",1,0.395,"reversed","easy",7,"first-total",6,6,"partial-reversed"
"59ae8d282a78fd00010b80e7","partial",1,10,"left","left",1,0.394,"reversed","easy",7,"first-total",6,6,"partial-reversed"
"59ae8d282a78fd00010b80e7","partial",1,9,"left","right",0,0.557,"nonreversed","easy",7,"first-total",6,6,"partial-nonreversed"
"59ae8d282a78fd00010b80e7","partial",1,12,"right","left",0,0.478,"reversed","easy",7,"first-total",6,6,"partial-reversed"
"59ae8d282a78fd00010b80e7","partial",1,11,"right","right",1,0.488,"nonreversed","easy",7,"first-total",6,6,"partial-nonreversed"
"59ae8d282a78fd00010b80e7","partial",2,11,"right","right",1,0.364,"nonreversed","easy",7,"first-total",1,7,"partial-nonreversed"
"59ae8d282a78fd00010b80e7","partial",2,12,"left","right",0,0.477,"reversed","easy",7,"first-total",1,7,"partial-reversed"
"59ae8d282a78fd00010b80e7","partial",2,10,"right","right",1,0.589,"reversed","easy",7,"first-total",1,7,"partial-reversed"
"59ae8d282a78fd00010b80e7","partial",2,12,"left","left",1,0.463,"reversed","easy",7,"first-total",1,7,"partial-reversed"
"59ae8d282a78fd00010b80e7","partial",2,9,"left","right",0,0.525,"nonreversed","easy",7,"first-total",1,7,"partial-nonreversed"
"59ae8d282a78fd00010b80e7","partial",2,9,"left","right",0,0.465,"nonreversed","easy",7,"first-total",1,7,"partial-nonreversed"
"59ae8d282a78fd00010b80e7","partial",2,11,"right","left",0,0.575,"nonreversed","easy",7,"first-total",1,7,"partial-nonreversed"
"59ae8d282a78fd00010b80e7","partial",2,10,"right","left",0,0.521,"reversed","easy",7,"first-total",1,7,"partial-reversed"
"59ae8d282a78fd00010b80e7","partial",2,11,"right","right",1,0.291,"nonreversed","easy",7,"first-total",2,8,"partial-nonreversed"
"59ae8d282a78fd00010b80e7","partial",2,10,"right","left",0,0.505,"reversed","easy",7,"first-total",2,8,"partial-reversed"
"59ae8d282a78fd00010b80e7","partial",2,10,"right","right",1,0.393,"reversed","easy",7,"first-total",2,8,"partial-reversed"
"59ae8d282a78fd00010b80e7","partial",2,9,"left","right",0,0.742,"nonreversed","easy",7,"first-total",2,8,"partial-nonreversed"
"59ae8d282a78fd00010b80e7","partial",2,11,"right","left",0,0.407,"nonreversed","easy",7,"first-total",2,8,"partial-nonreversed"
"59ae8d282a78fd00010b80e7","partial",2,12,"left","right",0,0.492,"reversed","easy",7,"first-total",2,8,"partial-reversed"
"59ae8d282a78fd00010b80e7","partial",2,12,"left","left",1,0.459,"reversed","easy",7,"first-total",2,8,"partial-reversed"
"59ae8d282a78fd00010b80e7","partial",2,9,"left","left",1,0.411,"nonreversed","easy",7,"first-total",2,8,"partial-nonreversed"
"59ae8d282a78fd00010b80e7","partial",2,9,"left","left",1,0.44,"nonreversed","easy",7,"first-total",3,9,"partial-nonreversed"
"59ae8d282a78fd00010b80e7","partial",2,12,"left","right",0,0.605,"reversed","easy",7,"first-total",3,9,"partial-reversed"
"59ae8d282a78fd00010b80e7","partial",2,9,"left","left",1,0.378,"nonreversed","easy",7,"first-total",3,9,"partial-nonreversed"
"59ae8d282a78fd00010b80e7","partial",2,11,"right","left",0,0.424,"nonreversed","easy",7,"first-total",3,9,"partial-nonreversed"
"59ae8d282a78fd00010b80e7","partial",2,12,"left","left",1,0.473,"reversed","easy",7,"first-total",3,9,"partial-reversed"
"59ae8d282a78fd00010b80e7","partial",2,10,"right","left",0,0.591,"reversed","easy",7,"first-total",3,9,"partial-reversed"
"59ae8d282a78fd00010b80e7","partial",2,10,"right","right",1,0.605,"reversed","easy",7,"first-total",3,9,"partial-reversed"
"59ae8d282a78fd00010b80e7","partial",2,11,"right","right",1,0.492,"nonreversed","easy",7,"first-total",3,9,"partial-nonreversed"
"59ae8d282a78fd00010b80e7","partial",2,11,"right","right",1,0.448,"nonreversed","easy",7,"first-total",4,10,"partial-nonreversed"
"59ae8d282a78fd00010b80e7","partial",2,9,"left","left",1,0.511,"nonreversed","easy",7,"first-total",4,10,"partial-nonreversed"
"59ae8d282a78fd00010b80e7","partial",2,9,"left","left",1,0.463,"nonreversed","easy",7,"first-total",4,10,"partial-nonreversed"
"59ae8d282a78fd00010b80e7","partial",2,10,"right","left",0,0.489,"reversed","easy",7,"first-total",4,10,"partial-reversed"
"59ae8d282a78fd00010b80e7","partial",2,10,"right","right",1,0.389,"reversed","easy",7,"first-total",4,10,"partial-reversed"
"59ae8d282a78fd00010b80e7","partial",2,12,"left","right",0,0.458,"reversed","easy",7,"first-total",4,10,"partial-reversed"
"59ae8d282a78fd00010b80e7","partial",2,11,"right","right",1,0.538,"nonreversed","easy",7,"first-total",4,10,"partial-nonreversed"
"59ae8d282a78fd00010b80e7","partial",2,12,"left","left",1,0.591,"reversed","easy",7,"first-total",4,10,"partial-reversed"
"59ae8d282a78fd00010b80e7","partial",2,10,"right","left",0,0.475,"reversed","easy",7,"first-total",5,11,"partial-reversed"
"59ae8d282a78fd00010b80e7","partial",2,9,"left","left",1,0.515,"nonreversed","easy",7,"first-total",5,11,"partial-nonreversed"
"59ae8d282a78fd00010b80e7","partial",2,12,"left","right",0,0.643,"reversed","easy",7,"first-total",5,11,"partial-reversed"
"59ae8d282a78fd00010b80e7","partial",2,11,"right","right",1,0.526,"nonreversed","easy",7,"first-total",5,11,"partial-nonreversed"
"59ae8d282a78fd00010b80e7","partial",2,11,"right","right",1,0.607,"nonreversed","easy",7,"first-total",5,11,"partial-nonreversed"
"59ae8d282a78fd00010b80e7","partial",2,12,"left","right",0,0.492,"reversed","easy",7,"first-total",5,11,"partial-reversed"
"59ae8d282a78fd00010b80e7","partial",2,10,"right","right",1,0.64,"reversed","easy",7,"first-total",5,11,"partial-reversed"
"59ae8d282a78fd00010b80e7","partial",2,9,"left","left",1,0.548,"nonreversed","easy",7,"first-total",5,11,"partial-nonreversed"
"59ae8d282a78fd00010b80e7","partial",2,9,"left","left",1,0.446,"nonreversed","easy",7,"first-total",6,12,"partial-nonreversed"
"59ae8d282a78fd00010b80e7","partial",2,11,"right","right",1,0.483,"nonreversed","easy",7,"first-total",6,12,"partial-nonreversed"
"59ae8d282a78fd00010b80e7","partial",2,12,"left","right",0,0.505,"reversed","easy",7,"first-total",6,12,"partial-reversed"
"59ae8d282a78fd00010b80e7","partial",2,11,"right","left",0,0.425,"nonreversed","easy",7,"first-total",6,12,"partial-nonreversed"
"59ae8d282a78fd00010b80e7","partial",2,10,"right","right",1,0.461,"reversed","easy",7,"first-total",6,12,"partial-reversed"
"59ae8d282a78fd00010b80e7","partial",2,9,"left","left",1,0.607,"nonreversed","easy",7,"first-total",6,12,"partial-nonreversed"
"59ae8d282a78fd00010b80e7","partial",2,10,"right","left",0,0.491,"reversed","easy",7,"first-total",6,12,"partial-reversed"
"59ae8d282a78fd00010b80e7","partial",2,12,"left","right",0,0.423,"reversed","easy",7,"first-total",6,12,"partial-reversed"
"59ccd702faf42e00012b68f5","partial",1,2,"left","right",0,2.451,"reversed","easy",3,"first-partial",1,1,"partial-reversed"
"59ccd702faf42e00012b68f5","partial",1,1,"left","left",1,1.532,"nonreversed","easy",3,"first-partial",1,1,"partial-nonreversed"
"59ccd702faf42e00012b68f5","partial",1,3,"right","right",1,0.721,"nonreversed","easy",3,"first-partial",1,1,"partial-nonreversed"
"59ccd702faf42e00012b68f5","partial",1,4,"right","left",0,1.429,"reversed","easy",3,"first-partial",1,1,"partial-reversed"
"59ccd702faf42e00012b68f5","partial",1,3,"right","right",1,1.175,"nonreversed","easy",3,"first-partial",1,1,"partial-nonreversed"
"59ccd702faf42e00012b68f5","partial",1,4,"right","right",1,1.167,"reversed","easy",3,"first-partial",1,1,"partial-reversed"
"59ccd702faf42e00012b68f5","partial",1,1,"left","right",0,1.364,"nonreversed","easy",3,"first-partial",1,1,"partial-nonreversed"
"59ccd702faf42e00012b68f5","partial",1,2,"left","left",1,1.654,"reversed","easy",3,"first-partial",1,1,"partial-reversed"
"59ccd702faf42e00012b68f5","partial",1,3,"right","right",1,0.817,"nonreversed","easy",3,"first-partial",2,2,"partial-nonreversed"
"59ccd702faf42e00012b68f5","partial",1,2,"left","left",1,1.156,"reversed","easy",3,"first-partial",2,2,"partial-reversed"
"59ccd702faf42e00012b68f5","partial",1,1,"left","left",1,0.745,"nonreversed","easy",3,"first-partial",2,2,"partial-nonreversed"
"59ccd702faf42e00012b68f5","partial",1,3,"right","right",1,0.599,"nonreversed","easy",3,"first-partial",2,2,"partial-nonreversed"
"59ccd702faf42e00012b68f5","partial",1,4,"right","right",1,0.571,"reversed","easy",3,"first-partial",2,2,"partial-reversed"
"59ccd702faf42e00012b68f5","partial",1,2,"left","left",1,0.832,"reversed","easy",3,"first-partial",2,2,"partial-reversed"
"59ccd702faf42e00012b68f5","partial",1,4,"right","right",1,1.881,"reversed","easy",3,"first-partial",2,2,"partial-reversed"
"59ccd702faf42e00012b68f5","partial",1,1,"left","left",1,0.62,"nonreversed","easy",3,"first-partial",2,2,"partial-nonreversed"
"59ccd702faf42e00012b68f5","partial",1,3,"right","right",1,0.644,"nonreversed","easy",3,"first-partial",3,3,"partial-nonreversed"
"59ccd702faf42e00012b68f5","partial",1,2,"left","left",1,0.909,"reversed","easy",3,"first-partial",3,3,"partial-reversed"
"59ccd702faf42e00012b68f5","partial",1,1,"left","left",1,0.527,"nonreversed","easy",3,"first-partial",3,3,"partial-nonreversed"
"59ccd702faf42e00012b68f5","partial",1,4,"right","right",1,0.629,"reversed","easy",3,"first-partial",3,3,"partial-reversed"
"59ccd702faf42e00012b68f5","partial",1,3,"right","right",1,0.649,"nonreversed","easy",3,"first-partial",3,3,"partial-nonreversed"
"59ccd702faf42e00012b68f5","partial",1,4,"right","right",1,0.505,"reversed","easy",3,"first-partial",3,3,"partial-reversed"
"59ccd702faf42e00012b68f5","partial",1,1,"left","left",1,0.554,"nonreversed","easy",3,"first-partial",3,3,"partial-nonreversed"
"59ccd702faf42e00012b68f5","partial",1,2,"left","left",1,0.637,"reversed","easy",3,"first-partial",3,3,"partial-reversed"
"59ccd702faf42e00012b68f5","partial",1,3,"right","right",1,0.547,"nonreversed","easy",3,"first-partial",4,4,"partial-nonreversed"
"59ccd702faf42e00012b68f5","partial",1,2,"left","left",1,0.575,"reversed","easy",3,"first-partial",4,4,"partial-reversed"
"59ccd702faf42e00012b68f5","partial",1,4,"right","right",1,0.454,"reversed","easy",3,"first-partial",4,4,"partial-reversed"
"59ccd702faf42e00012b68f5","partial",1,3,"right","right",1,0.484,"nonreversed","easy",3,"first-partial",4,4,"partial-nonreversed"
"59ccd702faf42e00012b68f5","partial",1,1,"left","left",1,0.507,"nonreversed","easy",3,"first-partial",4,4,"partial-nonreversed"
"59ccd702faf42e00012b68f5","partial",1,4,"right","right",1,0.459,"reversed","easy",3,"first-partial",4,4,"partial-reversed"
"59ccd702faf42e00012b68f5","partial",1,2,"left","left",1,0.501,"reversed","easy",3,"first-partial",4,4,"partial-reversed"
"59ccd702faf42e00012b68f5","partial",1,1,"left","left",1,0.464,"nonreversed","easy",3,"first-partial",4,4,"partial-nonreversed"
"59ccd702faf42e00012b68f5","partial",1,4,"right","right",1,0.463,"reversed","easy",3,"first-partial",5,5,"partial-reversed"
"59ccd702faf42e00012b68f5","partial",1,2,"left","right",0,0.581,"reversed","easy",3,"first-partial",5,5,"partial-reversed"
"59ccd702faf42e00012b68f5","partial",1,3,"right","right",1,0.611,"nonreversed","easy",3,"first-partial",5,5,"partial-nonreversed"
"59ccd702faf42e00012b68f5","partial",1,3,"right","right",1,0.544,"nonreversed","easy",3,"first-partial",5,5,"partial-nonreversed"
"59ccd702faf42e00012b68f5","partial",1,1,"left","left",1,0.759,"nonreversed","easy",3,"first-partial",5,5,"partial-nonreversed"
"59ccd702faf42e00012b68f5","partial",1,2,"left","left",1,0.633,"reversed","easy",3,"first-partial",5,5,"partial-reversed"
"59ccd702faf42e00012b68f5","partial",1,4,"right","right",1,0.557,"reversed","easy",3,"first-partial",5,5,"partial-reversed"
"59ccd702faf42e00012b68f5","partial",1,1,"left","left",1,0.528,"nonreversed","easy",3,"first-partial",5,5,"partial-nonreversed"
"59ccd702faf42e00012b68f5","partial",1,3,"right","right",1,0.566,"nonreversed","easy",3,"first-partial",6,6,"partial-nonreversed"
"59ccd702faf42e00012b68f5","partial",1,2,"left","left",1,0.552,"reversed","easy",3,"first-partial",6,6,"partial-reversed"
"59ccd702faf42e00012b68f5","partial",1,1,"left","left",1,0.858,"nonreversed","easy",3,"first-partial",6,6,"partial-nonreversed"
"59ccd702faf42e00012b68f5","partial",1,4,"right","right",1,0.502,"reversed","easy",3,"first-partial",6,6,"partial-reversed"
"59ccd702faf42e00012b68f5","partial",1,1,"left","left",1,1.04,"nonreversed","easy",3,"first-partial",6,6,"partial-nonreversed"
"59ccd702faf42e00012b68f5","partial",1,2,"left","right",0,0.495,"reversed","easy",3,"first-partial",6,6,"partial-reversed"
"59ccd702faf42e00012b68f5","partial",1,4,"right","right",1,0.491,"reversed","easy",3,"first-partial",6,6,"partial-reversed"
"59ccd702faf42e00012b68f5","partial",1,3,"right","right",1,0.471,"nonreversed","easy",3,"first-partial",6,6,"partial-nonreversed"
"59ccd702faf42e00012b68f5","partial",2,4,"left","right",0,0.476,"reversed","easy",3,"first-partial",1,7,"partial-reversed"
"59ccd702faf42e00012b68f5","partial",2,3,"right","right",1,0.858,"nonreversed","easy",3,"first-partial",1,7,"partial-nonreversed"
"59ccd702faf42e00012b68f5","partial",2,1,"left","left",1,0.553,"nonreversed","easy",3,"first-partial",1,7,"partial-nonreversed"
"59ccd702faf42e00012b68f5","partial",2,1,"left","left",1,0.516,"nonreversed","easy",3,"first-partial",1,7,"partial-nonreversed"
"59ccd702faf42e00012b68f5","partial",2,2,"right","left",0,0.552,"reversed","easy",3,"first-partial",1,7,"partial-reversed"
"59ccd702faf42e00012b68f5","partial",2,2,"right","left",0,0.527,"reversed","easy",3,"first-partial",1,7,"partial-reversed"
"59ccd702faf42e00012b68f5","partial",2,4,"left","right",0,0.579,"reversed","easy",3,"first-partial",1,7,"partial-reversed"
"59ccd702faf42e00012b68f5","partial",2,3,"right","right",1,0.688,"nonreversed","easy",3,"first-partial",1,7,"partial-nonreversed"
"59ccd702faf42e00012b68f5","partial",2,1,"left","left",1,0.639,"nonreversed","easy",3,"first-partial",2,8,"partial-nonreversed"
"59ccd702faf42e00012b68f5","partial",2,4,"left","left",1,1.184,"reversed","easy",3,"first-partial",2,8,"partial-reversed"
"59ccd702faf42e00012b68f5","partial",2,1,"left","left",1,0.593,"nonreversed","easy",3,"first-partial",2,8,"partial-nonreversed"
"59ccd702faf42e00012b68f5","partial",2,2,"right","right",1,0.673,"reversed","easy",3,"first-partial",2,8,"partial-reversed"
"59ccd702faf42e00012b68f5","partial",2,3,"right","right",1,0.53,"nonreversed","easy",3,"first-partial",2,8,"partial-nonreversed"
"59ccd702faf42e00012b68f5","partial",2,3,"right","right",1,0.442,"nonreversed","easy",3,"first-partial",2,8,"partial-nonreversed"
"59ccd702faf42e00012b68f5","partial",2,2,"right","right",1,0.44,"reversed","easy",3,"first-partial",2,8,"partial-reversed"
"59ccd702faf42e00012b68f5","partial",2,4,"left","left",1,0.42,"reversed","easy",3,"first-partial",2,8,"partial-reversed"
"59ccd702faf42e00012b68f5","partial",2,3,"right","right",1,0.486,"nonreversed","easy",3,"first-partial",3,9,"partial-nonreversed"
"59ccd702faf42e00012b68f5","partial",2,3,"right","right",1,0.481,"nonreversed","easy",3,"first-partial",3,9,"partial-nonreversed"
"59ccd702faf42e00012b68f5","partial",2,1,"left","left",1,0.516,"nonreversed","easy",3,"first-partial",3,9,"partial-nonreversed"
"59ccd702faf42e00012b68f5","partial",2,2,"right","right",1,0.704,"reversed","easy",3,"first-partial",3,9,"partial-reversed"
"59ccd702faf42e00012b68f5","partial",2,4,"left","left",1,0.314,"reversed","easy",3,"first-partial",3,9,"partial-reversed"
"59ccd702faf42e00012b68f5","partial",2,1,"left","left",1,0.478,"nonreversed","easy",3,"first-partial",3,9,"partial-nonreversed"
"59ccd702faf42e00012b68f5","partial",2,4,"left","left",1,0.614,"reversed","easy",3,"first-partial",3,9,"partial-reversed"
"59ccd702faf42e00012b68f5","partial",2,2,"right","right",1,0.62,"reversed","easy",3,"first-partial",3,9,"partial-reversed"
"59ccd702faf42e00012b68f5","partial",2,1,"left","left",1,0.534,"nonreversed","easy",3,"first-partial",4,10,"partial-nonreversed"
"59ccd702faf42e00012b68f5","partial",2,3,"right","right",1,0.534,"nonreversed","easy",3,"first-partial",4,10,"partial-nonreversed"
"59ccd702faf42e00012b68f5","partial",2,2,"right","right",1,0.693,"reversed","easy",3,"first-partial",4,10,"partial-reversed"
"59ccd702faf42e00012b68f5","partial",2,4,"left","left",1,0.514,"reversed","easy",3,"first-partial",4,10,"partial-reversed"
"59ccd702faf42e00012b68f5","partial",2,4,"left","left",1,0.427,"reversed","easy",3,"first-partial",4,10,"partial-reversed"
"59ccd702faf42e00012b68f5","partial",2,2,"right","right",1,0.754,"reversed","easy",3,"first-partial",4,10,"partial-reversed"
"59ccd702faf42e00012b68f5","partial",2,1,"left","left",1,0.48,"nonreversed","easy",3,"first-partial",4,10,"partial-nonreversed"
"59ccd702faf42e00012b68f5","partial",2,3,"right","right",1,0.444,"nonreversed","easy",3,"first-partial",4,10,"partial-nonreversed"
"59ccd702faf42e00012b68f5","partial",2,4,"left","left",1,0.557,"reversed","easy",3,"first-partial",5,11,"partial-reversed"
"59ccd702faf42e00012b68f5","partial",2,2,"right","right",1,0.415,"reversed","easy",3,"first-partial",5,11,"partial-reversed"
"59ccd702faf42e00012b68f5","partial",2,3,"right","right",1,0.451,"nonreversed","easy",3,"first-partial",5,11,"partial-nonreversed"
"59ccd702faf42e00012b68f5","partial",2,3,"right","right",1,0.54,"nonreversed","easy",3,"first-partial",5,11,"partial-nonreversed"
"59ccd702faf42e00012b68f5","partial",2,2,"right","left",0,0.517,"reversed","easy",3,"first-partial",5,11,"partial-reversed"
"59ccd702faf42e00012b68f5","partial",2,1,"left","left",1,0.528,"nonreversed","easy",3,"first-partial",5,11,"partial-nonreversed"
"59ccd702faf42e00012b68f5","partial",2,1,"left","left",1,0.574,"nonreversed","easy",3,"first-partial",5,11,"partial-nonreversed"
"59ccd702faf42e00012b68f5","partial",2,4,"left","left",1,0.746,"reversed","easy",3,"first-partial",5,11,"partial-reversed"
"59ccd702faf42e00012b68f5","partial",2,3,"right","right",1,0.495,"nonreversed","easy",3,"first-partial",6,12,"partial-nonreversed"
"59ccd702faf42e00012b68f5","partial",2,4,"left","left",1,0.41,"reversed","easy",3,"first-partial",6,12,"partial-reversed"
"59ccd702faf42e00012b68f5","partial",2,2,"right","right",1,0.528,"reversed","easy",3,"first-partial",6,12,"partial-reversed"
"59ccd702faf42e00012b68f5","partial",2,1,"left","left",1,0.531,"nonreversed","easy",3,"first-partial",6,12,"partial-nonreversed"
"59ccd702faf42e00012b68f5","partial",2,3,"right","right",1,0.535,"nonreversed","easy",3,"first-partial",6,12,"partial-nonreversed"
"59ccd702faf42e00012b68f5","partial",2,1,"left","left",1,0.499,"nonreversed","easy",3,"first-partial",6,12,"partial-nonreversed"
"59ccd702faf42e00012b68f5","partial",2,4,"left","left",1,0.43,"reversed","easy",3,"first-partial",6,12,"partial-reversed"
"59ccd702faf42e00012b68f5","partial",2,2,"right","right",1,0.589,"reversed","easy",3,"first-partial",6,12,"partial-reversed"
"59ccd702faf42e00012b68f5","total",1,6,"left","right",0,1.053,"reversed","easy",3,"first-partial",1,1,"total-reversed"
"59ccd702faf42e00012b68f5","total",1,8,"right","right",1,1.532,"reversed","easy",3,"first-partial",1,1,"total-reversed"
"59ccd702faf42e00012b68f5","total",1,5,"left","left",1,0.646,"reversed","easy",3,"first-partial",1,1,"total-reversed"
"59ccd702faf42e00012b68f5","total",1,8,"right","right",1,0.936,"reversed","easy",3,"first-partial",1,1,"total-reversed"
"59ccd702faf42e00012b68f5","total",1,7,"right","left",0,1.058,"reversed","easy",3,"first-partial",1,1,"total-reversed"
"59ccd702faf42e00012b68f5","total",1,5,"left","right",0,1.256,"reversed","easy",3,"first-partial",1,1,"total-reversed"
"59ccd702faf42e00012b68f5","total",1,7,"right","right",1,1.295,"reversed","easy",3,"first-partial",1,1,"total-reversed"
"59ccd702faf42e00012b68f5","total",1,6,"left","left",1,1.621,"reversed","easy",3,"first-partial",1,1,"total-reversed"
"59ccd702faf42e00012b68f5","total",1,7,"right","right",1,0.846,"reversed","easy",3,"first-partial",2,2,"total-reversed"
"59ccd702faf42e00012b68f5","total",1,8,"right","right",1,1.008,"reversed","easy",3,"first-partial",2,2,"total-reversed"
"59ccd702faf42e00012b68f5","total",1,5,"left","left",1,0.351,"reversed","easy",3,"first-partial",2,2,"total-reversed"
"59ccd702faf42e00012b68f5","total",1,5,"left","left",1,0.522,"reversed","easy",3,"first-partial",2,2,"total-reversed"
"59ccd702faf42e00012b68f5","total",1,8,"right","right",1,0.596,"reversed","easy",3,"first-partial",2,2,"total-reversed"
"59ccd702faf42e00012b68f5","total",1,7,"right","right",1,0.587,"reversed","easy",3,"first-partial",2,2,"total-reversed"
"59ccd702faf42e00012b68f5","total",1,6,"left","left",1,0.465,"reversed","easy",3,"first-partial",2,2,"total-reversed"
"59ccd702faf42e00012b68f5","total",1,6,"left","left",1,0.362,"reversed","easy",3,"first-partial",2,2,"total-reversed"
"59ccd702faf42e00012b68f5","total",1,5,"left","left",1,0.526,"reversed","easy",3,"first-partial",3,3,"total-reversed"
"59ccd702faf42e00012b68f5","total",1,6,"left","left",1,0.488,"reversed","easy",3,"first-partial",3,3,"total-reversed"
"59ccd702faf42e00012b68f5","total",1,7,"right","right",1,0.526,"reversed","easy",3,"first-partial",3,3,"total-reversed"
"59ccd702faf42e00012b68f5","total",1,8,"right","right",1,0.575,"reversed","easy",3,"first-partial",3,3,"total-reversed"
"59ccd702faf42e00012b68f5","total",1,7,"right","right",1,0.484,"reversed","easy",3,"first-partial",3,3,"total-reversed"
"59ccd702faf42e00012b68f5","total",1,5,"left","left",1,0.552,"reversed","easy",3,"first-partial",3,3,"total-reversed"
"59ccd702faf42e00012b68f5","total",1,8,"right","right",1,0.553,"reversed","easy",3,"first-partial",3,3,"total-reversed"
"59ccd702faf42e00012b68f5","total",1,6,"left","left",1,0.44,"reversed","easy",3,"first-partial",3,3,"total-reversed"
"59ccd702faf42e00012b68f5","total",1,8,"right","right",1,0.517,"reversed","easy",3,"first-partial",4,4,"total-reversed"
"59ccd702faf42e00012b68f5","total",1,6,"left","left",1,0.463,"reversed","easy",3,"first-partial",4,4,"total-reversed"
"59ccd702faf42e00012b68f5","total",1,5,"left","left",1,0.464,"reversed","easy",3,"first-partial",4,4,"total-reversed"
"59ccd702faf42e00012b68f5","total",1,5,"left","left",1,0.414,"reversed","easy",3,"first-partial",4,4,"total-reversed"
"59ccd702faf42e00012b68f5","total",1,6,"left","right",0,0.438,"reversed","easy",3,"first-partial",4,4,"total-reversed"
"59ccd702faf42e00012b68f5","total",1,8,"right","right",1,0.311,"reversed","easy",3,"first-partial",4,4,"total-reversed"
"59ccd702faf42e00012b68f5","total",1,7,"right","right",1,0.48,"reversed","easy",3,"first-partial",4,4,"total-reversed"
"59ccd702faf42e00012b68f5","total",1,7,"right","left",0,0.318,"reversed","easy",3,"first-partial",4,4,"total-reversed"
"59ccd702faf42e00012b68f5","total",1,8,"right","right",1,0.553,"reversed","easy",3,"first-partial",5,5,"total-reversed"
"59ccd702faf42e00012b68f5","total",1,8,"right","right",1,0.544,"reversed","easy",3,"first-partial",5,5,"total-reversed"
"59ccd702faf42e00012b68f5","total",1,7,"right","right",1,0.319,"reversed","easy",3,"first-partial",5,5,"total-reversed"
"59ccd702faf42e00012b68f5","total",1,5,"left","left",1,0.462,"reversed","easy",3,"first-partial",5,5,"total-reversed"
"59ccd702faf42e00012b68f5","total",1,6,"left","left",1,0.503,"reversed","easy",3,"first-partial",5,5,"total-reversed"
"59ccd702faf42e00012b68f5","total",1,6,"left","left",1,0.34,"reversed","easy",3,"first-partial",5,5,"total-reversed"
"59ccd702faf42e00012b68f5","total",1,5,"left","left",1,0.563,"reversed","easy",3,"first-partial",5,5,"total-reversed"
"59ccd702faf42e00012b68f5","total",1,7,"right","right",1,0.431,"reversed","easy",3,"first-partial",5,5,"total-reversed"
"59ccd702faf42e00012b68f5","total",1,8,"right","right",1,0.534,"reversed","easy",3,"first-partial",6,6,"total-reversed"
"59ccd702faf42e00012b68f5","total",1,6,"left","left",1,0.45,"reversed","easy",3,"first-partial",6,6,"total-reversed"
"59ccd702faf42e00012b68f5","total",1,5,"left","left",1,0.501,"reversed","easy",3,"first-partial",6,6,"total-reversed"
"59ccd702faf42e00012b68f5","total",1,7,"right","right",1,0.444,"reversed","easy",3,"first-partial",6,6,"total-reversed"
"59ccd702faf42e00012b68f5","total",1,7,"right","right",1,0.313,"reversed","easy",3,"first-partial",6,6,"total-reversed"
"59ccd702faf42e00012b68f5","total",1,5,"left","left",1,0.44,"reversed","easy",3,"first-partial",6,6,"total-reversed"
"59ccd702faf42e00012b68f5","total",1,6,"left","left",1,0.439,"reversed","easy",3,"first-partial",6,6,"total-reversed"
"59ccd702faf42e00012b68f5","total",1,8,"right","right",1,0.444,"reversed","easy",3,"first-partial",6,6,"total-reversed"
"59ccd702faf42e00012b68f5","total",2,7,"left","right",0,0.466,"reversed","easy",3,"first-partial",1,7,"total-reversed"
"59ccd702faf42e00012b68f5","total",2,8,"left","right",0,0.575,"reversed","easy",3,"first-partial",1,7,"total-reversed"
"59ccd702faf42e00012b68f5","total",2,6,"right","left",0,0.749,"reversed","easy",3,"first-partial",1,7,"total-reversed"
"59ccd702faf42e00012b68f5","total",2,6,"right","right",1,0.622,"reversed","easy",3,"first-partial",1,7,"total-reversed"
"59ccd702faf42e00012b68f5","total",2,7,"left","left",1,0.8,"reversed","easy",3,"first-partial",1,7,"total-reversed"
"59ccd702faf42e00012b68f5","total",2,5,"right","left",0,0.81,"reversed","easy",3,"first-partial",1,7,"total-reversed"
"59ccd702faf42e00012b68f5","total",2,8,"left","left",1,0.695,"reversed","easy",3,"first-partial",1,7,"total-reversed"
"59ccd702faf42e00012b68f5","total",2,5,"right","right",1,0.632,"reversed","easy",3,"first-partial",1,7,"total-reversed"
"59ccd702faf42e00012b68f5","total",2,6,"right","right",1,0.626,"reversed","easy",3,"first-partial",2,8,"total-reversed"
"59ccd702faf42e00012b68f5","total",2,7,"left","left",1,0.514,"reversed","easy",3,"first-partial",2,8,"total-reversed"
"59ccd702faf42e00012b68f5","total",2,8,"left","left",1,0.647,"reversed","easy",3,"first-partial",2,8,"total-reversed"
"59ccd702faf42e00012b68f5","total",2,5,"right","right",1,0.578,"reversed","easy",3,"first-partial",2,8,"total-reversed"
"59ccd702faf42e00012b68f5","total",2,6,"right","right",1,0.592,"reversed","easy",3,"first-partial",2,8,"total-reversed"
"59ccd702faf42e00012b68f5","total",2,7,"left","left",1,0.569,"reversed","easy",3,"first-partial",2,8,"total-reversed"
"59ccd702faf42e00012b68f5","total",2,8,"left","left",1,0.517,"reversed","easy",3,"first-partial",2,8,"total-reversed"
"59ccd702faf42e00012b68f5","total",2,5,"right","right",1,0.555,"reversed","easy",3,"first-partial",2,8,"total-reversed"
"59ccd702faf42e00012b68f5","total",2,8,"left","left",1,0.682,"reversed","easy",3,"first-partial",3,9,"total-reversed"
"59ccd702faf42e00012b68f5","total",2,8,"left","left",1,0.432,"reversed","easy",3,"first-partial",3,9,"total-reversed"
"59ccd702faf42e00012b68f5","total",2,5,"right","right",1,0.601,"reversed","easy",3,"first-partial",3,9,"total-reversed"
"59ccd702faf42e00012b68f5","total",2,7,"left","left",1,0.448,"reversed","easy",3,"first-partial",3,9,"total-reversed"
"59ccd702faf42e00012b68f5","total",2,5,"right","left",0,0.451,"reversed","easy",3,"first-partial",3,9,"total-reversed"
"59ccd702faf42e00012b68f5","total",2,6,"right","right",1,0.636,"reversed","easy",3,"first-partial",3,9,"total-reversed"
"59ccd702faf42e00012b68f5","total",2,6,"right","right",1,0.503,"reversed","easy",3,"first-partial",3,9,"total-reversed"
"59ccd702faf42e00012b68f5","total",2,7,"left","left",1,0.543,"reversed","easy",3,"first-partial",3,9,"total-reversed"
"59ccd702faf42e00012b68f5","total",2,8,"left","right",0,0.531,"reversed","easy",3,"first-partial",4,10,"total-reversed"
"59ccd702faf42e00012b68f5","total",2,7,"left","left",1,0.589,"reversed","easy",3,"first-partial",4,10,"total-reversed"
"59ccd702faf42e00012b68f5","total",2,5,"right","left",0,0.466,"reversed","easy",3,"first-partial",4,10,"total-reversed"
"59ccd702faf42e00012b68f5","total",2,8,"left","left",1,0.656,"reversed","easy",3,"first-partial",4,10,"total-reversed"
"59ccd702faf42e00012b68f5","total",2,7,"left","left",1,0.537,"reversed","easy",3,"first-partial",4,10,"total-reversed"
"59ccd702faf42e00012b68f5","total",2,6,"right","right",1,0.54,"reversed","easy",3,"first-partial",4,10,"total-reversed"
"59ccd702faf42e00012b68f5","total",2,6,"right","right",1,0.528,"reversed","easy",3,"first-partial",4,10,"total-reversed"
"59ccd702faf42e00012b68f5","total",2,5,"right","right",1,0.541,"reversed","easy",3,"first-partial",4,10,"total-reversed"
"59ccd702faf42e00012b68f5","total",2,6,"right","right",1,0.51,"reversed","easy",3,"first-partial",5,11,"total-reversed"
"59ccd702faf42e00012b68f5","total",2,7,"left","left",1,0.534,"reversed","easy",3,"first-partial",5,11,"total-reversed"
"59ccd702faf42e00012b68f5","total",2,5,"right","right",1,0.497,"reversed","easy",3,"first-partial",5,11,"total-reversed"
"59ccd702faf42e00012b68f5","total",2,8,"left","right",0,0.526,"reversed","easy",3,"first-partial",5,11,"total-reversed"
"59ccd702faf42e00012b68f5","total",2,8,"left","left",1,0.442,"reversed","easy",3,"first-partial",5,11,"total-reversed"
"59ccd702faf42e00012b68f5","total",2,7,"left","left",1,0.543,"reversed","easy",3,"first-partial",5,11,"total-reversed"
"59ccd702faf42e00012b68f5","total",2,5,"right","right",1,0.632,"reversed","easy",3,"first-partial",5,11,"total-reversed"
"59ccd702faf42e00012b68f5","total",2,6,"right","right",1,0.682,"reversed","easy",3,"first-partial",5,11,"total-reversed"
"59ccd702faf42e00012b68f5","total",2,8,"left","left",1,0.632,"reversed","easy",3,"first-partial",6,12,"total-reversed"
"59ccd702faf42e00012b68f5","total",2,7,"left","left",1,0.977,"reversed","easy",3,"first-partial",6,12,"total-reversed"
"59ccd702faf42e00012b68f5","total",2,8,"left","left",1,0.571,"reversed","easy",3,"first-partial",6,12,"total-reversed"
"59ccd702faf42e00012b68f5","total",2,7,"left","left",1,0.672,"reversed","easy",3,"first-partial",6,12,"total-reversed"
"59ccd702faf42e00012b68f5","total",2,5,"right","left",0,0.518,"reversed","easy",3,"first-partial",6,12,"total-reversed"
"59ccd702faf42e00012b68f5","total",2,6,"right","right",1,0.714,"reversed","easy",3,"first-partial",6,12,"total-reversed"
"59ccd702faf42e00012b68f5","total",2,6,"right","right",1,0.574,"reversed","easy",3,"first-partial",6,12,"total-reversed"
"59ccd702faf42e00012b68f5","total",2,5,"right","right",1,0.673,"reversed","easy",3,"first-partial",6,12,"total-reversed"
"5c3d5129a9bfb4000168e299","total",1,3,"right","left",0,8.6724,"reversed","easy",1,"first-total",1,1,"total-reversed"
"5c3d5129a9bfb4000168e299","total",1,1,"left","right",0,0.7617,"reversed","easy",1,"first-total",1,1,"total-reversed"
"5c3d5129a9bfb4000168e299","total",1,4,"right","left",0,1.0992,"reversed","easy",1,"first-total",1,1,"total-reversed"
"5c3d5129a9bfb4000168e299","total",1,2,"left","right",0,1.4952,"reversed","easy",1,"first-total",1,1,"total-reversed"
"5c3d5129a9bfb4000168e299","total",1,4,"right","right",1,0.8231,"reversed","easy",1,"first-total",1,1,"total-reversed"
"5c3d5129a9bfb4000168e299","total",1,3,"right","left",0,0.5532,"reversed","easy",1,"first-total",1,1,"total-reversed"
"5c3d5129a9bfb4000168e299","total",1,2,"left","left",1,0.9975,"reversed","easy",1,"first-total",1,1,"total-reversed"
"5c3d5129a9bfb4000168e299","total",1,1,"left","right",0,0.7432,"reversed","easy",1,"first-total",1,1,"total-reversed"
"5c3d5129a9bfb4000168e299","total",1,2,"left","left",1,0.8159,"reversed","easy",1,"first-total",2,2,"total-reversed"
"5c3d5129a9bfb4000168e299","total",1,1,"left","left",1,0.4833,"reversed","easy",1,"first-total",2,2,"total-reversed"
"5c3d5129a9bfb4000168e299","total",1,4,"right","right",1,0.6081,"reversed","easy",1,"first-total",2,2,"total-reversed"
"5c3d5129a9bfb4000168e299","total",1,4,"right","right",1,0.5105,"reversed","easy",1,"first-total",2,2,"total-reversed"
"5c3d5129a9bfb4000168e299","total",1,3,"right","left",0,0.4916,"reversed","easy",1,"first-total",2,2,"total-reversed"
"5c3d5129a9bfb4000168e299","total",1,1,"left","left",1,0.4942,"reversed","easy",1,"first-total",2,2,"total-reversed"
"5c3d5129a9bfb4000168e299","total",1,3,"right","left",0,0.3087,"reversed","easy",1,"first-total",2,2,"total-reversed"
"5c3d5129a9bfb4000168e299","total",1,2,"left","left",1,0.3754,"reversed","easy",1,"first-total",2,2,"total-reversed"
"5c3d5129a9bfb4000168e299","total",1,4,"right","left",0,0.5961,"reversed","easy",1,"first-total",3,3,"total-reversed"
"5c3d5129a9bfb4000168e299","total",1,4,"right","left",0,0.388,"reversed","easy",1,"first-total",3,3,"total-reversed"
"5c3d5129a9bfb4000168e299","total",1,2,"left","left",1,0.537,"reversed","easy",1,"first-total",3,3,"total-reversed"
"5c3d5129a9bfb4000168e299","total",1,3,"right","right",1,0.7417,"reversed","easy",1,"first-total",3,3,"total-reversed"
"5c3d5129a9bfb4000168e299","total",1,1,"left","left",1,0.625,"reversed","easy",1,"first-total",3,3,"total-reversed"
"5c3d5129a9bfb4000168e299","total",1,3,"right","right",1,0.7217,"reversed","easy",1,"first-total",3,3,"total-reversed"
"5c3d5129a9bfb4000168e299","total",1,2,"left","left",1,0.6387,"reversed","easy",1,"first-total",3,3,"total-reversed"
"5c3d5129a9bfb4000168e299","total",1,1,"left","right",0,0.5634,"reversed","easy",1,"first-total",3,3,"total-reversed"
"5c3d5129a9bfb4000168e299","total",1,2,"left","left",1,0.5769,"reversed","easy",1,"first-total",4,4,"total-reversed"
"5c3d5129a9bfb4000168e299","total",1,3,"right","right",1,0.5836,"reversed","easy",1,"first-total",4,4,"total-reversed"
"5c3d5129a9bfb4000168e299","total",1,3,"right","right",1,0.5933,"reversed","easy",1,"first-total",4,4,"total-reversed"
"5c3d5129a9bfb4000168e299","total",1,1,"left","left",1,0.3707,"reversed","easy",1,"first-total",4,4,"total-reversed"
"5c3d5129a9bfb4000168e299","total",1,4,"right","right",1,0.4278,"reversed","easy",1,"first-total",4,4,"total-reversed"
"5c3d5129a9bfb4000168e299","total",1,2,"left","right",0,0.6447,"reversed","easy",1,"first-total",4,4,"total-reversed"
"5c3d5129a9bfb4000168e299","total",1,1,"left","left",1,0.5829,"reversed","easy",1,"first-total",4,4,"total-reversed"
"5c3d5129a9bfb4000168e299","total",1,4,"right","right",1,0.9146,"reversed","easy",1,"first-total",4,4,"total-reversed"
"5c3d5129a9bfb4000168e299","total",1,1,"left","left",1,0.5743,"reversed","easy",1,"first-total",5,5,"total-reversed"
"5c3d5129a9bfb4000168e299","total",1,4,"right","right",1,0.8791,"reversed","easy",1,"first-total",5,5,"total-reversed"
"5c3d5129a9bfb4000168e299","total",1,2,"left","left",1,0.6936,"reversed","easy",1,"first-total",5,5,"total-reversed"
"5c3d5129a9bfb4000168e299","total",1,4,"right","left",0,0.616,"reversed","easy",1,"first-total",5,5,"total-reversed"
"5c3d5129a9bfb4000168e299","total",1,1,"left","left",1,0.6156,"reversed","easy",1,"first-total",5,5,"total-reversed"
"5c3d5129a9bfb4000168e299","total",1,3,"right","left",0,1.1904,"reversed","easy",1,"first-total",5,5,"total-reversed"
"5c3d5129a9bfb4000168e299","total",1,3,"right","left",0,7.1073,"reversed","easy",1,"first-total",5,5,"total-reversed"
"5c3d5129a9bfb4000168e299","total",1,2,"left","left",1,0.971,"reversed","easy",1,"first-total",5,5,"total-reversed"
"5c3d5129a9bfb4000168e299","total",1,3,"right","right",1,0.8718,"reversed","easy",1,"first-total",6,6,"total-reversed"
"5c3d5129a9bfb4000168e299","total",1,2,"left","left",1,0.5048,"reversed","easy",1,"first-total",6,6,"total-reversed"
"5c3d5129a9bfb4000168e299","total",1,3,"right","right",1,0.5767,"reversed","easy",1,"first-total",6,6,"total-reversed"
"5c3d5129a9bfb4000168e299","total",1,4,"right","left",0,0.6396,"reversed","easy",1,"first-total",6,6,"total-reversed"
"5c3d5129a9bfb4000168e299","total",1,2,"left","left",1,0.6412,"reversed","easy",1,"first-total",6,6,"total-reversed"
"5c3d5129a9bfb4000168e299","total",1,1,"left","left",1,0.5552,"reversed","easy",1,"first-total",6,6,"total-reversed"
"5c3d5129a9bfb4000168e299","total",1,1,"left","left",1,0.654,"reversed","easy",1,"first-total",6,6,"total-reversed"
"5c3d5129a9bfb4000168e299","total",1,4,"right","left",0,0.7638,"reversed","easy",1,"first-total",6,6,"total-reversed"
