tasksRows,trialsRows,eachBlock,task,phase,Exemplars,r_correct,task.thisRepN,task.thisTrialN,task.thisN,task.thisIndex,phase.thisRepN,phase.thisTrialN,phase.thisN,phase.thisIndex,trials.thisRepN,trials.thisTrialN,trials.thisN,trials.thisIndex,thisRow.t,notes,infCons.started,informed_consent.started,resp_consent.started,infCons.stopped,resp_consent.keys,resp_consent.rt,resp_consent.duration,instructions.started,text_instructions.started,resp_instructions.started,instructions.stopped,resp_instructions.keys,resp_instructions.rt,resp_instructions.duration,nextTask.started,next_task_ready.started,ready_task.started,nextTask.stopped,ready_task.keys,ready_task.rt,ready_task.duration,fixation.started,ITI,text_fixation.started,text_fixation.stopped,fixation.stopped,stim.started,stimulus.started,response_northern_text.started,response_southern_text.started,response.started,stim.stopped,response.keys,response.corr,response.rt,response.duration,feedback.started,feedback_text.started,correct_tone.started,incorrect_tone.started,correct_tone.stopped,incorrect_tone.stopped,feedback.stopped,feedback_text.stopped,end.started,text_end.started,resp_end.started,end.stopped,resp_end.keys,resp_end.rt,resp_end.duration,participant,session,Age?,Gender?,Nationality?,date,expName,psychopyVersion,frameRate,expStart,
,,,,,,,,,,,,,,,,,,,,,0.009137500077486038,0.02284230012446642,0.02284230012446642,4.782325800042599,space,4.754631400108337,None,,,,,,,,,,,,,,,,,,,,,,,,,,,,,,,,,,,,,,,,,,,,,santTest,001,32,Masc,Mex,2024-02-18_12h51.39.739,CatRev1_within,2023.2.3,59.985627362177276,2024-02-18 12h52.15.989326 -0500,
,,,,,,,,,,,,,,,,,,,,,,,,,,,,4.782410100102425,4.801119900075719,4.801119900075719,8.275930100120604,space,3.4613568000495434,None,,,,,,,,,,,,,,,,,,,,,,,,,,,,,,,,,,,,,,santTest,001,32,Masc,Mex,2024-02-18_12h51.39.739,CatRev1_within,2023.2.3,59.985627362177276,2024-02-18 12h52.15.989326 -0500,
 2:4, 32:48,6,partial,1,images/Ex11.jpg,left,0,0,0,1,0,0,0,0,0,0,0,10,10.441892100032419,,,,,,,,,,,,,,,,8.28990270011127,8.30384170007892,8.30384170007892,10.391271100146696,space,2.0694532999768853,None,10.430014200042933,0.9,10.441892100032419,11.477012800052762,11.339830999961123,11.339886100031435,11.477012800052762,11.477012800052762,11.477012800052762,0.05815779999829829,12.49268290004693,right,0,1.092001099837944,None,12.49394810013473,12.516134500037879,12.507279750006273,12.507279750006273,12.730766300112009,12.730766300112009,13.505560199962929,,,,,,,,,santTest,001,32,Masc,Mex,2024-02-18_12h51.39.739,CatRev1_within,2023.2.3,59.985627362177276,2024-02-18 12h52.15.989326 -0500,
 2:4, 32:48,6,partial,1,images/Ex11.jpg,left,0,0,0,1,0,0,0,0,0,1,1,2,13.521721800090745,,,,,,,,,,,,,,,,,,,,,,,13.50661880010739,0.6,13.521721800090745,14.200382000068203,14.118566400138661,14.118634900078177,14.200382000068203,14.200382000068203,14.200382000068203,0.06202009995467961,17.355786900036037,right,0,3.1587002999149263,None,17.357209000037983,17.382605700055137,17.36939694993198,17.36939694993198,,,18.363574099959806,,,,,,,,,santTest,001,32,Masc,Mex,2024-02-18_12h51.39.739,CatRev1_within,2023.2.3,59.985627362177276,2024-02-18 12h52.15.989326 -0500,
 2:4, 32:48,6,partial,1,images/Ex13.jpg,right,0,0,0,1,0,0,0,0,0,2,2,12,18.382865600055084,,,,,,,,,,,,,,,,,,,,,,,18.364588800119236,1.2,18.382865600055084,21.095279900124297,20.990722400136292,20.990795799996704,21.095279900124297,21.095279900124297,21.095279900124297,0.06612490001134574,21.879698500037193,right,1,0.8094529001973569,None,21.880482899956405,21.916806400055066,21.909411100065334,21.909411100065334,22.14381769997999,22.14381769997999,22.88595169992186,,,,,,,,,santTest,001,32,Masc,Mex,2024-02-18_12h51.39.739,CatRev1_within,2023.2.3,59.985627362177276,2024-02-18 12h52.15.989326 -0500,
 2:4, 32:48,6,partial,1,images/Ex9.jpg,left,0,0,0,1,0,0,0,0,0,3,3,0,22.90226830006577,,,,,,,,,,,,,,,,,,,,,,,22.88706380012445,1.4,22.90226830006577,24.36843780009076,24.287111700046808,24.287186600035056,24.36843780009076,24.36843780009076,24.36843780009076,0.05785509990528226,25.189866200089455,right,0,0.8346621999517083,None,25.191279000137,25.22075799992308,25.2193908999674,25.2193908999674,25.49324270011857,25.49324270011857,26.202355799963698,,,,,,,,,santTest,001,32,Masc,Mex,2024-02-18_12h51.39.739,CatRev1_within,2023.2.3,59.985627362177276,2024-02-18 12h52.15.989326 -0500,
 2:4, 32:48,6,partial,1,images/Ex9.jpg,left,0,0,0,1,0,0,0,0,0,4,4,8,26.218816200038418,,,,,,,,,,,,,,,,,,,,,,,26.203438200056553,0.8,26.218816200038418,27.06683719996363,27.003944399999455,27.004016800085083,27.06683719996363,27.06683719996363,27.06683719996363,0.04139000014401972,28.070169599959627,left,1,1.0126736001111567,None,28.07096639997326,28.098842600127682,28.101081400038673,28.101081400038673,28.340208699926734,28.340208699926734,29.08574360003695,,,,,,,,,santTest,001,32,Masc,Mex,2024-02-18_12h51.39.739,CatRev1_within,2023.2.3,59.985627362177276,2024-02-18 12h52.15.989326 -0500,
 2:4, 32:48,6,partial,1,images/Ex14.jpg,right,0,0,0,1,0,0,0,0,0,5,5,5,29.102258200058714,,,,,,,,,,,,,,,,,,,,,,,29.086994900135323,1.5,29.102258200058714,30.680518300039694,30.58727869996801,30.587353199953213,30.680518300039694,30.680518300039694,30.680518300039694,0.07186899986118078,31.552164500113577,left,0,0.8864621999673545,None,31.55300740012899,31.5713089001365,31.566644049994647,31.566644049994647,31.838717699982226,31.838717699982226,32.56894399994053,,,,,,,,,santTest,001,32,Masc,Mex,2024-02-18_12h51.39.739,CatRev1_within,2023.2.3,59.985627362177276,2024-02-18 12h52.15.989326 -0500,
 2:4, 32:48,6,partial,1,images/Ex10.jpg,left,0,0,0,1,0,0,0,0,0,6,6,9,32.58504100004211,,,,,,,,,,,,,,,,,,,,,,,32.570100100012496,0.7,32.58504100004211,33.361992500023916,33.270309899933636,33.27038250002079,33.361992500023916,33.361992500023916,33.361992500023916,0.0704909001942724,34.239765000063926,left,1,0.8956536999903619,None,34.24057799996808,34.264559200033545,34.25428615002893,34.25428615002893,34.488703300012276,34.488703300012276,35.25241530011408,,,,,,,,,santTest,001,32,Masc,Mex,2024-02-18_12h51.39.739,CatRev1_within,2023.2.3,59.985627362177276,2024-02-18 12h52.15.989326 -0500,
 2:4, 32:48,6,partial,1,images/Ex13.jpg,right,0,0,0,1,0,0,0,0,0,7,7,4,35.268312599975616,,,,,,,,,,,,,,,,,,,,,,,35.2535640001297,1.5,35.268312599975616,36.82021289994009,36.75343189993873,36.75350930006243,36.82021289994009,36.82021289994009,36.82021289994009,0.04471080005168915,37.77035879995674,right,1,0.9604414999485016,None,37.771213199943304,37.79459180007689,37.78501174999401,37.78501174999401,37.98754910007119,37.98754910007119,38.7855762001127,,,,,,,,,santTest,001,32,Masc,Mex,2024-02-18_12h51.39.739,CatRev1_within,2023.2.3,59.985627362177276,2024-02-18 12h52.15.989326 -0500,
 2:4, 32:48,6,partial,1,images/Ex15.jpg,right,0,0,0,1,0,0,0,0,0,8,8,14,38.80189700005576,,,,,,,,,,,,,,,,,,,,,,,38.7866424000822,1.2,38.80189700005576,40.08609040011652,39.9864024000708,39.98646949999966,40.08609040011652,40.08609040011652,40.08609040011652,0.07928479998372495,40.90561140002683,right,1,0.8277274998836219,None,40.90657510003075,40.93227470014244,40.920007549971345,40.920007549971345,41.14524610014632,41.14524610014632,41.91834570001811,,,,,,,,,santTest,001,32,Masc,Mex,2024-02-18_12h51.39.739,CatRev1_within,2023.2.3,59.985627362177276,2024-02-18 12h52.15.989326 -0500,
 2:4, 32:48,6,partial,1,images/Ex10.jpg,left,0,0,0,1,0,0,0,0,0,9,9,1,41.934653900098056,,,,,,,,,,,,,,,,,,,,,,,41.91918239998631,0.7,41.934653900098056,42.6764889000915,42.61960590002127,42.61965900007635,42.6764889000915,42.6764889000915,42.6764889000915,0.035657300148159266,43.73252780013718,left,1,1.0703691998496652,None,43.73360330006108,43.764157800003886,43.7618169000838,43.7618169000838,43.98680810001679,43.98680810001679,44.73478540009819,,,,,,,,,santTest,001,32,Masc,Mex,2024-02-18_12h51.39.739,CatRev1_within,2023.2.3,59.985627362177276,2024-02-18 12h52.15.989326 -0500,
 2:4, 32:48,6,partial,1,images/Ex16.jpg,right,0,0,0,1,0,0,0,0,0,10,10,7,44.75129669997841,,,,,,,,,,,,,,,,,,,,,,,44.735637800069526,1.2,44.75129669997841,46.00981479999609,45.93574340012856,45.93579629994929,46.00981479999609,46.00981479999609,46.00981479999609,0.053076300071552396,47.36218850011937,right,1,1.3693548999726772,None,47.36303579993546,47.38457250013016,47.37680085008033,47.37680085008033,,,48.367674000095576,,,,,,,,,santTest,001,32,Masc,Mex,2024-02-18_12h51.39.739,CatRev1_within,2023.2.3,59.985627362177276,2024-02-18 12h52.15.989326 -0500,
 2:4, 32:48,6,partial,1,images/Ex14.jpg,right,0,0,0,1,0,0,0,0,0,11,11,13,48.38404899998568,,,,,,,,,,,,,,,,,,,,,,,48.36837960011326,0.8,48.38404899998568,49.20515890000388,49.16793889994733,49.16796649992466,49.20515890000388,49.20515890000388,49.20515890000388,0.020378899993374944,50.14513480011374,right,1,0.9538811999373138,None,50.14623549999669,50.17785320011899,50.174673199979594,50.174673199979594,50.413659600075334,50.413659600075334,51.15098119992763,,,,,,,,,santTest,001,32,Masc,Mex,2024-02-18_12h51.39.739,CatRev1_within,2023.2.3,59.985627362177276,2024-02-18 12h52.15.989326 -0500,
 2:4, 32:48,6,partial,1,images/Ex12.jpg,left,0,0,0,1,0,0,0,0,0,12,12,11,51.1675023001153,,,,,,,,,,,,,,,,,,,,,,,51.15182070014998,0.7,51.1675023001153,51.93302830005996,51.85172719997354,51.85178199992515,51.93302830005996,51.93302830005996,51.93302830005996,0.06019029999151826,53.15044440003112,left,1,1.231239200104028,None,53.15147139993496,53.17595950001851,53.16393644995988,53.16393644995988,53.413774400018156,53.413774400018156,54.15181350009516,,,,,,,,,santTest,001,32,Masc,Mex,2024-02-18_12h51.39.739,CatRev1_within,2023.2.3,59.985627362177276,2024-02-18 12h52.15.989326 -0500,
 2:4, 32:48,6,partial,1,images/Ex16.jpg,right,0,0,0,1,0,0,0,0,0,13,13,15,54.16750849992968,,,,,,,,,,,,,,,,,,,,,,,54.15301170013845,1.0,54.16750849992968,55.22452459996566,55.15206789993681,55.1521391000133,55.22452459996566,55.22452459996566,55.22452459996566,0.05256389989517629,56.26992870005779,right,1,1.044414000120014,None,56.27077900012955,56.29297220008448,56.284626649972054,56.284626649972054,,,57.28397150011733,,,,,,,,,santTest,001,32,Masc,Mex,2024-02-18_12h51.39.739,CatRev1_within,2023.2.3,59.985627362177276,2024-02-18 12h52.15.989326 -0500,
 2:4, 32:48,6,partial,1,images/Ex12.jpg,left,0,0,0,1,0,0,0,0,0,14,14,3,57.30076329992153,,,,,,,,,,,,,,,,,,,,,,,57.28487089998089,1.1,57.30076329992153,58.44749050005339,58.38489040010609,58.38494269992225,58.44749050005339,58.44749050005339,58.44749050005339,0.04293140000663698,59.30252499994822,left,1,0.8636024000588804,None,59.30356070003472,59.336429400136694,59.31674965010025,59.31674965010025,59.57243279996328,59.57243279996328,60.31732020014897,,,,,,,,,santTest,001,32,Masc,Mex,2024-02-18_12h51.39.739,CatRev1_within,2023.2.3,59.985627362177276,2024-02-18 12h52.15.989326 -0500,
 2:4, 32:48,6,partial,1,images/Ex15.jpg,right,0,0,0,1,0,0,0,0,0,15,15,6,60.33384159998968,,,,,,,,,,,,,,,,,,,,,,,60.31835710001178,0.6,60.33384159998968,60.988717400003225,60.91862379992381,60.91869470011443,60.988717400003225,60.988717400003225,60.988717400003225,0.051821500062942505,62.02959459996782,left,0,1.0464610001072288,None,62.03015360003337,62.044771400047466,62.04351205010899,62.04351205010899,62.32552840001881,62.32552840001881,63.03393630008213,,,,,,,,,santTest,001,32,Masc,Mex,2024-02-18_12h51.39.739,CatRev1_within,2023.2.3,59.985627362177276,2024-02-18 12h52.15.989326 -0500,
 2:4, 32:48,6,partial,1,images/Ex16.jpg,right,0,0,0,1,0,0,0,0,1,0,16,7,63.050199900055304,,,,,,,,,,,,,,,,,,,,,,,63.03499449999072,1.1,63.050199900055304,64.20481249992736,64.13526559993625,64.13533199997619,64.20481249992736,64.20481249992736,64.20481249992736,0.049827600130811334,64.97475569997914,right,1,0.782070100074634,None,64.97564740013331,64.99842840014026,64.98909855009988,64.98909855009988,65.23119399999268,65.23119399999268,65.98383990000002,,,,,,,,,santTest,001,32,Masc,Mex,2024-02-18_12h51.39.739,CatRev1_within,2023.2.3,59.985627362177276,2024-02-18 12h52.15.989326 -0500,
 2:4, 32:48,6,partial,1,images/Ex9.jpg,left,0,0,0,1,0,0,0,0,1,1,17,8,66.00023190001957,,,,,,,,,,,,,,,,,,,,,,,65.98494260013103,1.4,66.00023190001957,67.45530640007928,67.39767320011742,67.39773999992758,67.45530640007928,67.45530640007928,67.45530640007928,0.039893200155347586,68.399800500134,right,0,0.9536317999009043,None,68.40063080005348,68.4156573000364,68.41438625012525,68.41438625012525,68.63463310012594,68.63463310012594,69.41285550012253,,,,,,,,,santTest,001,32,Masc,Mex,2024-02-18_12h51.39.739,CatRev1_within,2023.2.3,59.985627362177276,2024-02-18 12h52.15.989326 -0500,
 2:4, 32:48,6,partial,1,images/Ex15.jpg,right,0,0,0,1,0,0,0,0,1,2,18,14,69.42955620004795,,,,,,,,,,,,,,,,,,,,,,,69.41370390006341,1.0,69.42955620004795,70.47509120008908,70.41426500002854,70.41431819996797,70.47509120008908,70.47509120008908,70.47509120008908,0.045302600134164095,71.21711169998161,right,1,0.7489201000425965,None,71.21816019993275,71.24086240003817,71.23119695000351,71.23119695000351,71.488308200147,71.488308200147,72.2297125000041,,,,,,,,,santTest,001,32,Masc,Mex,2024-02-18_12h51.39.739,CatRev1_within,2023.2.3,59.985627362177276,2024-02-18 12h52.15.989326 -0500,
 2:4, 32:48,6,partial,1,images/Ex13.jpg,right,0,0,0,1,0,0,0,0,1,3,19,12,72.24626099993475,,,,,,,,,,,,,,,,,,,,,,,72.23087040008977,1.0,72.24626099993475,73.28967060009018,73.2313425000757,73.23141580005176,73.28967060009018,73.28967060009018,73.28967060009018,0.04502759990282357,74.0162792999763,left,0,0.7281684998888522,None,74.01716329995543,74.03270739992149,74.03083744999022,74.03083744999022,,,75.02995930006728,,,,,,,,,santTest,001,32,Masc,Mex,2024-02-18_12h51.39.739,CatRev1_within,2023.2.3,59.985627362177276,2024-02-18 12h52.15.989326 -0500,
 2:4, 32:48,6,partial,1,images/Ex15.jpg,right,0,0,0,1,0,0,0,0,1,4,20,6,75.04608709993772,,,,,,,,,,,,,,,,,,,,,,,75.03081930009648,0.7,75.04608709993772,75.78785010008141,75.7308676999528,75.7310800999403,75.78785010008141,75.78785010008141,75.78785010008141,0.04128840006887913,76.53328080009669,right,1,0.7438077998813242,None,76.53431500005536,76.5585744001437,76.56379040014,76.56379040014,76.83761960011907,76.83761960011907,77.54605340003036,,,,,,,,,santTest,001,32,Masc,Mex,2024-02-18_12h51.39.739,CatRev1_within,2023.2.3,59.985627362177276,2024-02-18 12h52.15.989326 -0500,
 2:4, 32:48,6,partial,1,images/Ex11.jpg,left,0,0,0,1,0,0,0,0,1,5,21,10,77.56260140007362,,,,,,,,,,,,,,,,,,,,,,,77.54720550007187,0.9,77.56260140007362,78.50895750010386,78.44744569994509,78.4475197000429,78.50895750010386,78.50895750010386,78.50895750010386,0.04907929990440607,79.28408450004645,right,0,0.7808024000842124,None,79.28546939999796,79.31150509999134,79.29747405000963,79.29747405000963,,,80.29593140003271,,,,,,,,,santTest,001,32,Masc,Mex,2024-02-18_12h51.39.739,CatRev1_within,2023.2.3,59.985627362177276,2024-02-18 12h52.15.989326 -0500,
 2:4, 32:48,6,partial,1,images/Ex14.jpg,right,0,0,0,1,0,0,0,0,1,6,22,5,80.3122972000856,,,,,,,,,,,,,,,,,,,,,,,80.2971793001052,1.2,80.3122972000856,81.55871620005928,81.49732149997726,81.49739610007964,81.55871620005928,81.55871620005928,81.55871620005928,0.04840109986253083,82.3831565999426,right,1,0.8279144000262022,None,82.38403280009516,82.40374929993413,82.39770765001886,82.39770765001886,82.65375729999505,82.65375729999505,83.39575030002743,,,,,,,,,santTest,001,32,Masc,Mex,2024-02-18_12h51.39.739,CatRev1_within,2023.2.3,59.985627362177276,2024-02-18 12h52.15.989326 -0500,
 2:4, 32:48,6,partial,1,images/Ex13.jpg,right,0,0,0,1,0,0,0,0,1,7,23,4,83.41203729994595,,,,,,,,,,,,,,,,,,,,,,,83.39696240006015,1.3,83.41203729994595,84.73436260013841,84.69592870003544,84.69597190013155,84.73436260013841,84.73436260013841,84.73436260013841,0.024541700026020408,85.65451180003583,right,1,0.924085000064224,None,85.65589069994166,85.68518280005082,85.68409870015458,85.68409870015458,85.91378060006537,85.91378060006537,86.66265980014578,,,,,,,,,santTest,001,32,Masc,Mex,2024-02-18_12h51.39.739,CatRev1_within,2023.2.3,59.985627362177276,2024-02-18 12h52.15.989326 -0500,
 2:4, 32:48,6,partial,1,images/Ex10.jpg,left,0,0,0,1,0,0,0,0,1,8,24,1,86.67925769998692,,,,,,,,,,,,,,,,,,,,,,,86.66378709999844,0.5,86.67925769998692,87.22659430000931,87.16360800014809,87.16367479995824,87.22659430000931,87.22659430000931,87.22659430000931,0.048541400115936995,88.3154575000517,right,0,1.1005955999717116,None,88.31627930002287,88.3309494999703,88.33001214992255,88.33001214992255,88.56865010014735,88.56865010014735,89.32894819998182,,,,,,,,,santTest,001,32,Masc,Mex,2024-02-18_12h51.39.739,CatRev1_within,2023.2.3,59.985627362177276,2024-02-18 12h52.15.989326 -0500,
 2:4, 32:48,6,partial,1,images/Ex12.jpg,left,0,0,0,1,0,0,0,0,1,9,25,11,89.3454434000887,,,,,,,,,,,,,,,,,,,,,,,89.33006850001402,0.9,89.3454434000887,90.29964450001717,90.22970969998278,90.22977660014294,90.29964450001717,90.29964450001717,90.29964450001717,0.05725830001756549,91.18238010001369,right,0,0.8775214999914169,None,91.18361950013787,91.19504559994675,91.1969397499226,91.1969397499226,91.41151220002212,91.41151220002212,92.17968180007301,92.19465610012412,,,,,,,,santTest,001,32,Masc,Mex,2024-02-18_12h51.39.739,CatRev1_within,2023.2.3,59.985627362177276,2024-02-18 12h52.15.989326 -0500,
 2:4, 32:48,6,partial,1,images/Ex12.jpg,left,0,0,0,1,0,0,0,0,1,10,26,3,92.19465610012412,,,,,,,,,,,,,,,,,,,,,,,92.18049230007455,0.5,92.19465610012412,92.740885599982,92.67916980013251,92.67922289995477,92.740885599982,92.740885599982,92.740885599982,0.04523380007594824,93.515379199991,right,0,0.7823586000595242,None,93.51620370009914,93.52835820009932,93.52981054997072,93.52981054997072,,,94.51318380003795,94.52838629996404,,,,,,,,santTest,001,32,Masc,Mex,2024-02-18_12h51.39.739,CatRev1_within,2023.2.3,59.985627362177276,2024-02-18 12h52.15.989326 -0500,
 2:4, 32:48,6,partial,1,images/Ex14.jpg,right,0,0,0,1,0,0,0,0,1,11,27,13,94.52838629996404,,,,,,,,,,,,,,,,,,,,,,,94.5141847000923,1.0,94.52838629996404,95.57700629997998,95.51328620011918,95.51335439994,95.57700629997998,95.57700629997998,95.57700629997998,0.04944689990952611,96.83332150010392,right,1,1.2676886001136154,None,96.83419850002974,96.85159009997733,96.84651784999296,96.84651784999296,97.06130279996432,97.06130279996432,97.84493080014363,,,,,,,,,santTest,001,32,Masc,Mex,2024-02-18_12h51.39.739,CatRev1_within,2023.2.3,59.985627362177276,2024-02-18 12h52.15.989326 -0500,
 2:4, 32:48,6,partial,1,images/Ex16.jpg,right,0,0,0,1,0,0,0,0,1,12,28,15,97.86111130006611,,,,,,,,,,,,,,,,,,,,,,,97.84578340011649,1.1,97.86111130006611,99.00467770011164,98.9468134001363,98.94687040010467,99.00467770011164,99.00467770011164,99.00467770011164,0.04174999985843897,100.41565510001965,right,1,1.4221693999134004,None,100.41669420013204,100.43852320010774,100.42954834997654,100.42954834997654,100.65347680007108,100.65347680007108,101.42816330003552,,,,,,,,,santTest,001,32,Masc,Mex,2024-02-18_12h51.39.739,CatRev1_within,2023.2.3,59.985627362177276,2024-02-18 12h52.15.989326 -0500,
 2:4, 32:48,6,partial,1,images/Ex10.jpg,left,0,0,0,1,0,0,0,0,1,13,29,9,101.44442400010303,,,,,,,,,,,,,,,,,,,,,,,101.42941049998626,0.5,101.44442400010303,101.99287299998105,101.92969110002741,101.92979239998385,101.99287299998105,101.99287299998105,101.99287299998105,0.05028279987163842,104.36476309993304,left,1,2.372553500114009,None,104.36560830008239,104.3848840999417,104.379384249961,104.379384249961,104.63709249999374,104.63709249999374,105.37856870004907,,,,,,,,,santTest,001,32,Masc,Mex,2024-02-18_12h51.39.739,CatRev1_within,2023.2.3,59.985627362177276,2024-02-18 12h52.15.989326 -0500,
 2:4, 32:48,6,partial,1,images/Ex11.jpg,left,0,0,0,1,0,0,0,0,1,14,30,2,105.3943213999737,,,,,,,,,,,,,,,,,,,,,,,105.37977430014871,1.2,105.3943213999737,106.64350929995999,106.57969440007582,106.57977030007169,106.64350929995999,106.64350929995999,106.64350929995999,0.051364699844270945,107.51466530002654,left,1,0.87802439997904,None,107.51548169995658,107.53302339999937,107.5292489501182,107.5292489501182,,,108.52821970009245,,,,,,,,,santTest,001,32,Masc,Mex,2024-02-18_12h51.39.739,CatRev1_within,2023.2.3,59.985627362177276,2024-02-18 12h52.15.989326 -0500,
 2:4, 32:48,6,partial,1,images/Ex9.jpg,left,0,0,0,1,0,0,0,0,1,15,31,0,108.54385509993881,,,,,,,,,,,,,,,,,,,,,,,108.52975729992613,0.6,108.54385509993881,109.17522049997933,109.12833490013145,109.12838759995066,109.17522049997933,109.17522049997933,109.17522049997933,0.030588200083002448,111.16579060000367,right,0,1.9952391998376697,None,111.1670045000501,111.19010989996605,111.17902734996751,111.17902734996751,,,112.17754830000922,,,,,,,,,santTest,001,32,Masc,Mex,2024-02-18_12h51.39.739,CatRev1_within,2023.2.3,59.985627362177276,2024-02-18 12h52.15.989326 -0500,
 2:4, 32:48,6,partial,1,images/Ex10.jpg,left,0,0,0,1,0,0,0,0,2,0,32,1,112.19511580001563,,,,,,,,,,,,,,,,,,,,,,,112.17902379995212,1.0,112.19511580001563,113.25648540002294,113.1956309999805,113.19570369995199,113.25648540002294,113.25648540002294,113.25648540002294,0.048387999879196286,114.2144386,right,0,0.9622291999403387,None,114.21527389995754,114.22740110009909,114.22883285004646,114.22883285004646,114.49178909999318,114.49178909999318,115.2122142999433,115.22710050013848,,,,,,,,santTest,001,32,Masc,Mex,2024-02-18_12h51.39.739,CatRev1_within,2023.2.3,59.985627362177276,2024-02-18 12h52.15.989326 -0500,
 2:4, 32:48,6,partial,1,images/Ex14.jpg,right,0,0,0,1,0,0,0,0,2,1,33,5,115.22710050013848,,,,,,,,,,,,,,,,,,,,,,,115.21335510001518,1.3,115.22710050013848,116.57555459998548,116.51232570013963,116.51240020012483,116.57555459998548,116.57555459998548,116.57555459998548,0.05026190006174147,117.3979162001051,left,0,0.8229112001135945,None,117.39873720007017,117.41027100011706,117.41223905007355,117.41223905007355,117.64859539992176,117.64859539992176,118.39533830014989,118.41053969995119,,,,,,,,santTest,001,32,Masc,Mex,2024-02-18_12h51.39.739,CatRev1_within,2023.2.3,59.985627362177276,2024-02-18 12h52.15.989326 -0500,
 2:4, 32:48,6,partial,1,images/Ex9.jpg,left,0,0,0,1,0,0,0,0,2,2,34,0,118.41053969995119,,,,,,,,,,,,,,,,,,,,,,,118.39653260004707,1.4,118.41053969995119,119.85341989994049,119.79620159999467,119.7962748000864,119.85341989994049,119.85341989994049,119.85341989994049,0.04287309991195798,121.01404449995607,right,0,1.162810199894011,None,121.01487569999881,121.02671130001545,121.02858514995314,121.02858514995314,,,122.01151999994181,122.02667109994218,,,,,,,,santTest,001,32,Masc,Mex,2024-02-18_12h51.39.739,CatRev1_within,2023.2.3,59.985627362177276,2024-02-18 12h52.15.989326 -0500,
 2:4, 32:48,6,partial,1,images/Ex16.jpg,right,0,0,0,1,0,0,0,0,2,3,35,15,122.02667109994218,,,,,,,,,,,,,,,,,,,,,,,122.01237770006992,1.0,122.02667109994218,123.06977370008826,123.01106430008076,123.01111560012214,123.06977370008826,123.06977370008826,123.06977370008826,0.04336169990710914,123.81467740004882,right,1,0.7576678001787513,None,123.81571380002424,123.83798580011353,123.82825265014544,123.82825265014544,124.07547000003979,124.07547000003979,124.82717330008745,,,,,,,,,santTest,001,32,Masc,Mex,2024-02-18_12h51.39.739,CatRev1_within,2023.2.3,59.985627362177276,2024-02-18 12h52.15.989326 -0500,
 2:4, 32:48,6,partial,1,images/Ex11.jpg,left,0,0,0,1,0,0,0,0,2,4,36,10,124.84345280006528,,,,,,,,,,,,,,,,,,,,,,,124.82835500012152,1.2,124.84345280006528,126.09293440007605,126.02849030005746,126.028564899927,126.09293440007605,126.09293440007605,126.09293440007605,0.05178950005210936,126.84040000010282,left,1,0.752268600044772,None,126.84146880009212,126.86353700002655,126.85441145002842,126.85441145002842,127.06225390010513,127.06225390010513,127.8434508999344,,,,,,,,,santTest,001,32,Masc,Mex,2024-02-18_12h51.39.739,CatRev1_within,2023.2.3,59.985627362177276,2024-02-18 12h52.15.989326 -0500,
 2:4, 32:48,6,partial,1,images/Ex16.jpg,right,0,0,0,1,0,0,0,0,2,5,37,7,127.8597790999338,,,,,,,,,,,,,,,,,,,,,,,127.84456530003808,0.7,127.8597790999338,128.59872230002657,128.54409410012886,128.54414670006372,128.59872230002657,128.59872230002657,128.59872230002657,0.03946119989268482,129.51389469997957,right,1,0.9273112998344004,None,129.5147756000515,129.53280739998445,129.52838595006614,129.52838595006614,,,130.52685229992494,,,,,,,,,santTest,001,32,Masc,Mex,2024-02-18_12h51.39.739,CatRev1_within,2023.2.3,59.985627362177276,2024-02-18 12h52.15.989326 -0500,
 2:4, 32:48,6,partial,1,images/Ex13.jpg,right,0,0,0,1,0,0,0,0,2,6,38,4,130.54350159992464,,,,,,,,,,,,,,,,,,,,,,,130.5276647999417,0.6,130.54350159992464,131.19175520003773,131.14410770009272,131.14416040014476,131.19175520003773,131.19175520003773,131.19175520003773,0.032378099858760834,132.06371459993534,right,1,0.883763900026679,None,132.06475970009342,132.08620460005477,132.07783915014005,132.07783915014005,132.33651740010828,132.33651740010828,133.07679120008834,,,,,,,,,santTest,001,32,Masc,Mex,2024-02-18_12h51.39.739,CatRev1_within,2023.2.3,59.985627362177276,2024-02-18 12h52.15.989326 -0500,
 2:4, 32:48,6,partial,1,images/Ex12.jpg,left,0,0,0,1,0,0,0,0,2,7,39,3,133.09310820000246,,,,,,,,,,,,,,,,,,,,,,,133.07804520009086,0.9,133.09310820000246,134.04803179996088,133.9777581000235,133.9778318000026,134.04803179996088,134.04803179996088,134.04803179996088,0.056684100069105625,134.79689450003207,right,0,0.751599800074473,None,134.79777120007202,134.81599349994212,134.81129435012116,134.81129435012116,,,135.8095839000307,,,,,,,,,santTest,001,32,Masc,Mex,2024-02-18_12h51.39.739,CatRev1_within,2023.2.3,59.985627362177276,2024-02-18 12h52.15.989326 -0500,
 2:4, 32:48,6,partial,1,images/Ex13.jpg,right,0,0,0,1,0,0,0,0,2,8,40,12,135.82581269997172,,,,,,,,,,,,,,,,,,,,,,,135.81045829993673,0.9,135.82581269997172,136.7585320000071,136.71038189996034,136.71043520001695,136.7585320000071,136.7585320000071,136.7585320000071,0.03264610003679991,138.00034040003084,left,0,1.2528840000741184,None,138.00143690011464,138.0125502999872,138.0112710500136,138.0112710500136,,,139.00966670014895,,,,,,,,,santTest,001,32,Masc,Mex,2024-02-18_12h51.39.739,CatRev1_within,2023.2.3,59.985627362177276,2024-02-18 12h52.15.989326 -0500,
 2:4, 32:48,6,partial,1,images/Ex15.jpg,right,0,0,0,1,0,0,0,0,2,9,41,6,139.0256088001188,,,,,,,,,,,,,,,,,,,,,,,139.01053890003823,0.6,139.0256088001188,139.66757620009594,139.61014230013825,139.61019519995898,139.66757620009594,139.66757620009594,139.66757620009594,0.042219100054353476,140.74779940000735,left,0,1.0870318000670522,None,140.7492136999499,140.76236940012313,140.76094745011068,140.76094745011068,140.98229219997302,140.98229219997302,141.75914750015363,,,,,,,,,santTest,001,32,Masc,Mex,2024-02-18_12h51.39.739,CatRev1_within,2023.2.3,59.985627362177276,2024-02-18 12h52.15.989326 -0500,
 2:4, 32:48,6,partial,1,images/Ex11.jpg,left,0,0,0,1,0,0,0,0,2,10,42,2,141.77554480009712,,,,,,,,,,,,,,,,,,,,,,,141.75998360011727,1.0,141.77554480009712,142.81635630014353,142.76078240014613,142.7608374999836,142.81635630014353,142.81635630014353,142.81635630014353,0.03791539999656379,144.28113240003586,left,1,1.4794449999462813,None,144.2822195000481,144.3034674001392,144.31030999994834,144.31030999994834,,,145.29240610008128,,,,,,,,,santTest,001,32,Masc,Mex,2024-02-18_12h51.39.739,CatRev1_within,2023.2.3,59.985627362177276,2024-02-18 12h52.15.989326 -0500,
 2:4, 32:48,6,partial,1,images/Ex10.jpg,left,0,0,0,1,0,0,0,0,2,11,43,9,145.308645500103,,,,,,,,,,,,,,,,,,,,,,,145.2932686000131,1.4,145.308645500103,146.75744930002838,146.694019400049,146.69409510004334,146.75744930002838,146.75744930002838,146.75744930002838,0.049972400069236755,147.77922070003115,right,0,1.0234303001780063,None,147.78005590010434,147.79450960014947,147.79382664994336,147.79382664994336,,,148.79239680012688,,,,,,,,,santTest,001,32,Masc,Mex,2024-02-18_12h51.39.739,CatRev1_within,2023.2.3,59.985627362177276,2024-02-18 12h52.15.989326 -0500,
 2:4, 32:48,6,partial,1,images/Ex14.jpg,right,0,0,0,1,0,0,0,0,2,12,44,13,148.80855770013295,,,,,,,,,,,,,,,,,,,,,,,148.79347890010104,0.6,148.80855770013295,149.45515740010887,149.39355419995263,149.39362230012193,149.45515740010887,149.45515740010887,149.45515740010887,0.04598909988999367,150.41236210009083,right,1,0.9640975999645889,None,150.41321950010024,150.43206120003015,150.42695625014602,150.42695625014602,150.64675770001486,150.64675770001486,151.42597240000032,,,,,,,,,santTest,001,32,Masc,Mex,2024-02-18_12h51.39.739,CatRev1_within,2023.2.3,59.985627362177276,2024-02-18 12h52.15.989326 -0500,
 2:4, 32:48,6,partial,1,images/Ex15.jpg,right,0,0,0,1,0,0,0,0,2,13,45,14,151.44155440013856,,,,,,,,,,,,,,,,,,,,,,,151.4268180001527,1.4,151.44155440013856,152.88660040008835,152.82635450013913,152.8264067999553,152.88660040008835,152.88660040008835,152.88660040008835,0.043972999788820744,153.88178050005808,left,0,1.005707799922675,None,153.8828183999285,153.90096290013753,153.89421155005692,153.89421155005692,154.1410924999509,154.1410924999509,154.8921312999446,,,,,,,,,santTest,001,32,Masc,Mex,2024-02-18_12h51.39.739,CatRev1_within,2023.2.3,59.985627362177276,2024-02-18 12h52.15.989326 -0500,
 2:4, 32:48,6,partial,1,images/Ex12.jpg,left,0,0,0,1,0,0,0,0,2,14,46,11,154.90842510014772,,,,,,,,,,,,,,,,,,,,,,,154.89304300001822,0.5,154.90842510014772,155.45144620002247,155.392635300057,155.39268800010905,155.45144620002247,155.45144620002247,155.45144620002247,0.04372940002940595,156.4802771001123,right,0,1.032092599896714,None,156.48218449996784,156.49371289997362,156.49327134997583,156.49327134997583,156.718994300114,156.718994300114,157.49201299995184,,,,,,,,,santTest,001,32,Masc,Mex,2024-02-18_12h51.39.739,CatRev1_within,2023.2.3,59.985627362177276,2024-02-18 12h52.15.989326 -0500,
 2:4, 32:48,6,partial,1,images/Ex9.jpg,left,0,0,0,1,0,0,0,0,2,15,47,8,157.5081527000293,,,,,,,,,,,,,,,,,,,,,,,157.4927306000609,0.7,157.5081527000293,158.24263940006495,158.19267110014334,158.19277289998718,158.24263940006495,158.24263940006495,158.24263940006495,0.03109459998086095,159.39584650006145,right,0,1.1674051999580115,None,159.39688299992122,159.40775429992937,159.40973245007916,159.40973245007916,159.65116919996217,159.65116919996217,160.39355490007438,160.40809429995716,,,,,,,,santTest,001,32,Masc,Mex,2024-02-18_12h51.39.739,CatRev1_within,2023.2.3,59.985627362177276,2024-02-18 12h52.15.989326 -0500,
 2:4, 32:48,6,partial,1,images/Ex14.jpg,right,0,0,0,1,0,0,0,0,3,0,48,5,160.40809429995716,,,,,,,,,,,,,,,,,,,,,,,160.39539840002544,1.2,160.40809429995716,161.65707019995898,161.59330830001272,161.593382100109,161.65707019995898,161.65707019995898,161.65707019995898,0.0506933000870049,162.42864560009912,right,1,0.7763313001487404,None,162.4295250000432,162.44764239992946,162.44315734999253,162.44315734999253,,,163.44125239993446,,,,,,,,,santTest,001,32,Masc,Mex,2024-02-18_12h51.39.739,CatRev1_within,2023.2.3,59.985627362177276,2024-02-18 12h52.15.989326 -0500,
 2:4, 32:48,6,partial,1,images/Ex11.jpg,left,0,0,0,1,0,0,0,0,3,1,49,10,163.45801750011742,,,,,,,,,,,,,,,,,,,,,,,163.44215340004303,1.1,163.45801750011742,164.5883587000426,164.541661700001,164.5417049000971,164.5883587000426,164.5883587000426,164.5883587000426,0.0335041000507772,165.37810930004343,left,1,0.7924133001361042,None,165.3789324001409,165.39983920007944,165.39263435015454,165.39263435015454,165.63744079996832,165.63744079996832,166.39129419997334,,,,,,,,,santTest,001,32,Masc,Mex,2024-02-18_12h51.39.739,CatRev1_within,2023.2.3,59.985627362177276,2024-02-18 12h52.15.989326 -0500,
 2:4, 32:48,6,partial,1,images/Ex10.jpg,left,0,0,0,1,0,0,0,0,3,2,50,9,166.407627500128,,,,,,,,,,,,,,,,,,,,,,,166.39194640005007,0.9,166.407627500128,167.34513960010372,167.29180700005963,167.2918607001193,167.34513960010372,167.34513960010372,167.34513960010372,0.03817209997214377,168.64454660005867,right,0,1.3021310998592526,None,168.64538320014253,168.66041769995354,168.65912434998899,168.65912434998899,,,169.6574236000888,,,,,,,,,santTest,001,32,Masc,Mex,2024-02-18_12h51.39.739,CatRev1_within,2023.2.3,59.985627362177276,2024-02-18 12h52.15.989326 -0500,
 2:4, 32:48,6,partial,1,images/Ex16.jpg,right,0,0,0,1,0,0,0,0,3,3,51,7,169.67400480015203,,,,,,,,,,,,,,,,,,,,,,,169.65830689994618,1.2,169.67400480015203,170.90621490008198,170.85869230004027,170.85873500001617,170.90621490008198,170.90621490008198,170.90621490008198,0.034165999852120876,172.72849630005658,right,1,1.8325825000647455,None,172.729324700078,172.74700430012308,172.74229825013316,172.74229825013316,172.98474720004015,172.98474720004015,173.74085339996964,,,,,,,,,santTest,001,32,Masc,Mex,2024-02-18_12h51.39.739,CatRev1_within,2023.2.3,59.985627362177276,2024-02-18 12h52.15.989326 -0500,
 2:4, 32:48,6,partial,1,images/Ex15.jpg,right,0,0,0,1,0,0,0,0,3,4,52,14,173.7576427999884,,,,,,,,,,,,,,,,,,,,,,,173.74167180014774,0.9,173.7576427999884,174.6996087001171,174.64220190001652,174.6422546999529,174.6996087001171,174.6996087001171,174.6996087001171,0.03968479996547103,176.17816990008578,left,0,1.489066599868238,None,176.1792182000354,176.1991256000474,176.1922123500146,176.1922123500146,176.4815787000116,176.4815787000116,177.19080310012214,,,,,,,,,santTest,001,32,Masc,Mex,2024-02-18_12h51.39.739,CatRev1_within,2023.2.3,59.985627362177276,2024-02-18 12h52.15.989326 -0500,
 2:4, 32:48,6,partial,1,images/Ex13.jpg,right,0,0,0,1,0,0,0,0,3,5,53,4,177.20723169995472,,,,,,,,,,,,,,,,,,,,,,,177.19204190000892,1.2,177.20723169995472,178.43901670002379,178.3917396001052,178.39179130014963,178.43901670002379,178.43901670002379,178.43901670002379,0.03128270013257861,180.59455280005932,right,1,2.160898899892345,None,180.5956051000394,180.61865690001287,180.60861525014042,180.60861525014042,180.8380037001334,180.8380037001334,181.6074951000046,,,,,,,,,santTest,001,32,Masc,Mex,2024-02-18_12h51.39.739,CatRev1_within,2023.2.3,59.985627362177276,2024-02-18 12h52.15.989326 -0500,
 2:4, 32:48,6,partial,1,images/Ex9.jpg,left,0,0,0,1,0,0,0,0,3,6,54,8,181.6235307001043,,,,,,,,,,,,,,,,,,,,,,,181.60836930014193,0.5,181.6235307001043,182.15307460003532,182.10848430008627,182.1085401000455,182.15307460003532,182.15307460003532,182.15307460003532,0.029453200055286288,182.87778050010093,right,0,0.7348968998994678,None,182.87881999998353,182.8987543999683,182.89192865001968,182.89192865001968,183.14537489996292,183.14537489996292,183.89053030009381,,,,,,,,,santTest,001,32,Masc,Mex,2024-02-18_12h51.39.739,CatRev1_within,2023.2.3,59.985627362177276,2024-02-18 12h52.15.989326 -0500,
 2:4, 32:48,6,partial,1,images/Ex12.jpg,left,0,0,0,1,0,0,0,0,3,7,55,11,183.90700430003926,,,,,,,,,,,,,,,,,,,,,,,183.8915373000782,1.0,183.90700430003926,184.96405500010587,184.89158109994605,184.89164820010774,184.96405500010587,184.96405500010587,184.96405500010587,0.058742000022903085,186.02723970008083,right,0,1.0654071001335979,None,186.028048499953,186.04306149994954,186.04192795003763,186.04192795003763,,,187.03992970008403,,,,,,,,,santTest,001,32,Masc,Mex,2024-02-18_12h51.39.739,CatRev1_within,2023.2.3,59.985627362177276,2024-02-18 12h52.15.989326 -0500,
 2:4, 32:48,6,partial,1,images/Ex12.jpg,left,0,0,0,1,0,0,0,0,3,8,56,3,187.0564187001437,,,,,,,,,,,,,,,,,,,,,,,187.040816700086,1.1,187.0564187001437,188.20190330012701,188.14103449997492,188.1410884000361,188.20190330012701,188.20190330012701,188.20190330012701,0.045914100017398596,189.12722710007802,right,0,0.9317317001987249,None,189.1280432001222,189.1399562000297,189.14157565012573,189.14157565012573,189.40327699994668,189.40327699994668,190.1253224001266,190.13996509998105,,,,,,,,santTest,001,32,Masc,Mex,2024-02-18_12h51.39.739,CatRev1_within,2023.2.3,59.985627362177276,2024-02-18 12h52.15.989326 -0500,
 2:4, 32:48,6,partial,1,images/Ex9.jpg,left,0,0,0,1,0,0,0,0,3,9,57,0,190.13996509998105,,,,,,,,,,,,,,,,,,,,,,,190.12660630000755,1.2,190.13996509998105,191.38503509992734,191.3247919001151,191.32486420008354,191.38503509992734,191.38503509992734,191.38503509992734,0.04263709997758269,192.22751430002972,left,1,0.8552567998412997,None,192.22885009995662,192.2477680000011,192.24139375011436,192.24139375011436,192.48891940014437,192.48891940014437,193.24090590002015,,,,,,,,,santTest,001,32,Masc,Mex,2024-02-18_12h51.39.739,CatRev1_within,2023.2.3,59.985627362177276,2024-02-18 12h52.15.989326 -0500,
 2:4, 32:48,6,partial,1,images/Ex16.jpg,right,0,0,0,1,0,0,0,0,3,10,58,15,193.25628360011615,,,,,,,,,,,,,,,,,,,,,,,193.24212140007876,1.0,193.25628360011615,194.31203030003235,194.24150449992158,194.24157710000873,194.31203030003235,194.31203030003235,194.31203030003235,0.05673180008307099,195.10991120012477,left,0,0.8043931000865996,None,195.1107419000473,195.12776200007647,195.12446004995144,195.12446004995144,,,196.1231048000045,,,,,,,,,santTest,001,32,Masc,Mex,2024-02-18_12h51.39.739,CatRev1_within,2023.2.3,59.985627362177276,2024-02-18 12h52.15.989326 -0500,
 2:4, 32:48,6,partial,1,images/Ex11.jpg,left,0,0,0,1,0,0,0,0,3,11,59,2,196.13932920014486,,,,,,,,,,,,,,,,,,,,,,,196.12393470015377,0.6,196.13932920014486,196.7767992001027,196.72393129998818,196.72398489993066,196.7767992001027,196.7767992001027,196.7767992001027,0.0378751999232918,197.74375970009714,left,1,0.9741653001401573,None,197.74485919997096,197.76876710006036,197.75781415011733,197.75781415011733,197.99708090000786,197.99708090000786,198.7567181000486,,,,,,,,,santTest,001,32,Masc,Mex,2024-02-18_12h51.39.739,CatRev1_within,2023.2.3,59.985627362177276,2024-02-18 12h52.15.989326 -0500,
 2:4, 32:48,6,partial,1,images/Ex10.jpg,left,0,0,0,1,0,0,0,0,3,12,60,1,198.77295759995468,,,,,,,,,,,,,,,,,,,,,,,198.75792680005543,1.3,198.77295759995468,200.11993560008705,200.058245500084,200.05832100007683,200.11993560008705,200.11993560008705,200.11993560008705,0.048494100105017424,201.15984650002792,left,1,1.0495565000455827,None,201.16070899995975,201.17876060004346,201.17424444998613,201.17424444998613,201.40903450013138,201.40903450013138,202.1731191999279,,,,,,,,,santTest,001,32,Masc,Mex,2024-02-18_12h51.39.739,CatRev1_within,2023.2.3,59.985627362177276,2024-02-18 12h52.15.989326 -0500,
 2:4, 32:48,6,partial,1,images/Ex14.jpg,right,0,0,0,1,0,0,0,0,3,13,61,13,202.18933330010623,,,,,,,,,,,,,,,,,,,,,,,202.1742734001018,0.8,202.18933330010623,203.04079660004936,202.97490560007282,202.97498079994693,203.04079660004936,203.04079660004936,203.04079660004936,0.05016600014641881,203.94294580002315,right,1,0.9055803001392633,None,203.94376310007647,203.96358050010167,203.9575974499341,203.9575974499341,204.21572889992967,204.21572889992967,204.9561878000386,,,,,,,,,santTest,001,32,Masc,Mex,2024-02-18_12h51.39.739,CatRev1_within,2023.2.3,59.985627362177276,2024-02-18 12h52.15.989326 -0500,
 2:4, 32:48,6,partial,1,images/Ex13.jpg,right,0,0,0,1,0,0,0,0,3,14,62,12,204.97256599995308,,,,,,,,,,,,,,,,,,,,,,,204.957426100038,1.1,204.97256599995308,206.1186196000781,206.05800139997154,206.0580750000663,206.1186196000781,206.1186196000781,206.1186196000781,0.046420899918302894,208.11071770009585,right,1,1.9943560999818146,None,208.11209900001995,208.14314329996705,208.14018450011497,208.14018450011497,208.41249489993788,208.41249489993788,209.12257070001215,,,,,,,,,santTest,001,32,Masc,Mex,2024-02-18_12h51.39.739,CatRev1_within,2023.2.3,59.985627362177276,2024-02-18 12h52.15.989326 -0500,
 2:4, 32:48,6,partial,1,images/Ex15.jpg,right,0,0,0,1,0,0,0,0,3,15,63,6,209.13892040005885,,,,,,,,,,,,,,,,,,,,,,,209.1237788000144,0.5,209.13892040005885,209.68896550009958,209.6238575000316,209.62393220001832,209.68896550009958,209.68896550009958,209.68896550009958,0.0525970000308007,211.02633360004984,right,1,1.345682900166139,None,211.02736059995368,211.0518545000814,211.056699599931,211.056699599931,211.33273759996518,211.33273759996518,212.03903189999983,,,,,,,,,santTest,001,32,Masc,Mex,2024-02-18_12h51.39.739,CatRev1_within,2023.2.3,59.985627362177276,2024-02-18 12h52.15.989326 -0500,
 2:4, 32:48,6,partial,1,images/Ex14.jpg,right,0,0,0,1,0,0,0,0,4,0,64,5,212.05527719995007,,,,,,,,,,,,,,,,,,,,,,,212.0401717000641,1.3,212.05527719995007,213.40234420006163,213.34039700007997,213.340469900053,213.40234420006163,213.40234420006163,213.40234420006163,0.049307200126349926,215.0928617999889,right,1,1.6956932998728007,None,215.0937374001369,215.11755269998685,215.10708835003896,215.10708835003896,215.33489320008084,215.33489320008084,216.10514040011913,,,,,,,,,santTest,001,32,Masc,Mex,2024-02-18_12h51.39.739,CatRev1_within,2023.2.3,59.985627362177276,2024-02-18 12h52.15.989326 -0500,
 2:4, 32:48,6,partial,1,images/Ex15.jpg,right,0,0,0,1,0,0,0,0,4,1,65,14,216.1218143000733,,,,,,,,,,,,,,,,,,,,,,,216.10607460001484,0.8,216.1218143000733,217.87811499997042,217.75908530014567,217.7591556000989,217.87811499997042,217.87811499997042,217.87811499997042,0.08578550000675023,221.22224320005625,right,1,3.3738510999828577,None,221.22308590007015,221.24438480008394,221.23494265000335,221.23494265000335,221.48126789997332,221.48126789997332,222.231928500114,,,,,,,,,santTest,001,32,Masc,Mex,2024-02-18_12h51.39.739,CatRev1_within,2023.2.3,59.985627362177276,2024-02-18 12h52.15.989326 -0500,
 2:4, 32:48,6,partial,1,images/Ex16.jpg,right,0,0,0,1,0,0,0,0,4,2,66,15,222.2470694000367,,,,,,,,,,,,,,,,,,,,,,,222.23259299993515,1.0,222.2470694000367,224.1261406999547,224.0534165999852,224.05346320010722,224.1261406999547,224.1261406999547,224.1261406999547,0.058736100094392896,225.59083410003223,right,1,1.4611303000710905,None,225.59166670008563,225.60920780012384,225.6050758499652,225.6050758499652,225.82619190006517,225.82619190006517,226.60392080014572,,,,,,,,,santTest,001,32,Masc,Mex,2024-02-18_12h51.39.739,CatRev1_within,2023.2.3,59.985627362177276,2024-02-18 12h52.15.989326 -0500,
 2:4, 32:48,6,partial,1,images/Ex14.jpg,right,0,0,0,1,0,0,0,0,4,3,67,13,226.61996249994263,,,,,,,,,,,,,,,,,,,,,,,226.60476980009116,0.8,226.61996249994263,227.4561503001023,227.40450740000233,227.40456119994633,227.4561503001023,227.4561503001023,227.4561503001023,0.036488299956545234,228.99131359998137,right,1,1.5460999000351876,None,228.99263270013034,229.01548910001293,229.0052274500951,229.0052274500951,229.22156199999154,229.22156199999154,230.0043470999226,,,,,,,,,santTest,001,32,Masc,Mex,2024-02-18_12h51.39.739,CatRev1_within,2023.2.3,59.985627362177276,2024-02-18 12h52.15.989326 -0500,
 2:4, 32:48,6,partial,1,images/Ex15.jpg,right,0,0,0,1,0,0,0,0,4,4,68,6,230.02004309999757,,,,,,,,,,,,,,,,,,,,,,,230.00548160006292,1.0,230.02004309999757,231.05526800011285,231.00399460014887,231.0040367001202,231.05526800011285,231.05526800011285,231.05526800011285,0.03631659992970526,232.60727329994552,right,1,1.5618181999307126,None,232.60811879998073,232.63005440006964,232.62165264999493,232.62165264999493,232.83929080003873,232.83929080003873,233.61965720006265,,,,,,,,,santTest,001,32,Masc,Mex,2024-02-18_12h51.39.739,CatRev1_within,2023.2.3,59.985627362177276,2024-02-18 12h52.15.989326 -0500,
 2:4, 32:48,6,partial,1,images/Ex9.jpg,left,0,0,0,1,0,0,0,0,4,5,69,8,233.63614160008729,,,,,,,,,,,,,,,,,,,,,,,233.62031410005875,1.5,233.63614160008729,235.15742140007205,235.12047250010073,235.12051380006596,235.15742140007205,235.15742140007205,235.15742140007205,0.02280790009535849,236.54005119996145,right,0,1.3836911998223513,None,236.5408805999905,236.55722740013152,236.5545528501272,236.5545528501272,236.82634559995495,236.82634559995495,237.55271720001474,,,,,,,,,santTest,001,32,Masc,Mex,2024-02-18_12h51.39.739,CatRev1_within,2023.2.3,59.985627362177276,2024-02-18 12h52.15.989326 -0500,
 2:4, 32:48,6,partial,1,images/Ex16.jpg,right,0,0,0,1,0,0,0,0,4,6,70,7,237.5692308000289,,,,,,,,,,,,,,,,,,,,,,,237.55338960001245,0.8,237.5692308000289,238.40207700012252,238.35377730010077,238.3538190999534,238.40207700012252,238.40207700012252,238.40207700012252,0.03492950019426644,239.5564586999826,left,0,1.1531668999232352,None,239.5572880001273,239.56911009992473,239.5709954500664,239.5709954500664,239.83639640011825,239.83639640011825,240.5532305999659,240.56894519994967,,,,,,,,santTest,001,32,Masc,Mex,2024-02-18_12h51.39.739,CatRev1_within,2023.2.3,59.985627362177276,2024-02-18 12h52.15.989326 -0500,
 2:4, 32:48,6,partial,1,images/Ex12.jpg,left,0,0,0,1,0,0,0,0,4,7,71,11,240.56894519994967,,,,,,,,,,,,,,,,,,,,,,,240.55385050014593,0.6,240.56894519994967,241.20340589992702,241.15338969998993,241.15343190007843,241.20340589992702,241.20340589992702,241.20340589992702,0.036630299873650074,242.3731998000294,left,1,1.170836400007829,None,242.37397970003076,242.39441279997118,242.38790815002284,242.38790815002284,242.64182050013915,242.64182050013915,243.38580769998953,,,,,,,,,santTest,001,32,Masc,Mex,2024-02-18_12h51.39.739,CatRev1_within,2023.2.3,59.985627362177276,2024-02-18 12h52.15.989326 -0500,
 2:4, 32:48,6,partial,1,images/Ex9.jpg,left,0,0,0,1,0,0,0,0,4,8,72,0,243.40218869992532,,,,,,,,,,,,,,,,,,,,,,,243.38648560014553,1.4,243.40218869992532,244.82720350008458,244.78677499992773,244.78685809997842,244.82720350008458,244.82720350008458,244.82720350008458,0.025728599866852164,245.8065770000685,left,1,0.9819698999635875,None,245.80738750007004,245.82668670010753,245.82105485005303,245.82105485005303,246.05900990008377,246.05900990008377,246.81894350005314,,,,,,,,,santTest,001,32,Masc,Mex,2024-02-18_12h51.39.739,CatRev1_within,2023.2.3,59.985627362177276,2024-02-18 12h52.15.989326 -0500,
 2:4, 32:48,6,partial,1,images/Ex13.jpg,right,0,0,0,1,0,0,0,0,4,9,73,12,246.8353132000193,,,,,,,,,,,,,,,,,,,,,,,246.81985420011915,1.1,246.8353132000193,247.9676781001035,247.92001640005037,247.9200687999837,247.9676781001035,247.9676781001035,247.9676781001035,0.030173700070008636,249.340145500144,left,0,1.3801654998678714,None,249.3408588001039,249.3556711000856,249.3549519500695,249.3549519500695,,,250.35224919999018,,,,,,,,,santTest,001,32,Masc,Mex,2024-02-18_12h51.39.739,CatRev1_within,2023.2.3,59.985627362177276,2024-02-18 12h52.15.989326 -0500,
 2:4, 32:48,6,partial,1,images/Ex12.jpg,left,0,0,0,1,0,0,0,0,4,10,74,3,250.3689013000112,,,,,,,,,,,,,,,,,,,,,,,250.35269220010377,0.9,250.3689013000112,251.30242229998112,251.2529816001188,251.25302439997904,251.30242229998112,251.30242229998112,251.30242229998112,0.03586870012804866,252.20587670011446,left,1,0.8995032000821084,None,252.20669859996997,252.22314479993656,252.2204290500842,252.2204290500842,,,253.21861819992773,,,,,,,,,santTest,001,32,Masc,Mex,2024-02-18_12h51.39.739,CatRev1_within,2023.2.3,59.985627362177276,2024-02-18 12h52.15.989326 -0500,
 2:4, 32:48,6,partial,1,images/Ex11.jpg,left,0,0,0,1,0,0,0,0,4,11,75,10,253.23502680007368,,,,,,,,,,,,,,,,,,,,,,,253.219298500102,1.1,253.23502680007368,254.3830459001474,254.32039720006287,254.32046540011652,254.3830459001474,254.3830459001474,254.3830459001474,0.04935169988311827,255.30572309996933,left,1,0.9241080000065267,None,255.30717710009776,255.32709240005352,255.32035874999127,255.32035874999127,255.5712701000739,255.5712701000739,256.31881280010566,,,,,,,,,santTest,001,32,Masc,Mex,2024-02-18_12h51.39.739,CatRev1_within,2023.2.3,59.985627362177276,2024-02-18 12h52.15.989326 -0500,
 2:4, 32:48,6,partial,1,images/Ex11.jpg,left,0,0,0,1,0,0,0,0,4,12,76,2,256.3350847000256,,,,,,,,,,,,,,,,,,,,,,,256.3199356999248,1.0,256.3350847000256,257.3644169000909,257.3191347999964,257.319177800091,257.3644169000909,257.3644169000909,257.3644169000909,0.030597500037401915,258.08918030001223,left,1,0.7347987000830472,None,258.0901711001061,258.108237599954,258.10370635013095,258.10370635013095,258.3393669000361,258.3393669000361,259.10227830009535,,,,,,,,,santTest,001,32,Masc,Mex,2024-02-18_12h51.39.739,CatRev1_within,2023.2.3,59.985627362177276,2024-02-18 12h52.15.989326 -0500,
 2:4, 32:48,6,partial,1,images/Ex10.jpg,left,0,0,0,1,0,0,0,0,4,13,77,9,259.11828600009903,,,,,,,,,,,,,,,,,,,,,,,259.10341410012916,0.6,259.11828600009903,259.7295389000792,259.701796800131,259.7018196999561,259.7295389000792,259.7295389000792,259.7295389000792,0.017553300131112337,260.65585350012407,right,0,0.9345889000687748,None,260.65673790010624,260.67196900001727,260.66988105005584,260.66988105005584,260.90011760010384,260.90011760010384,261.66826850012876,,,,,,,,,santTest,001,32,Masc,Mex,2024-02-18_12h51.39.739,CatRev1_within,2023.2.3,59.985627362177276,2024-02-18 12h52.15.989326 -0500,
 2:4, 32:48,6,partial,1,images/Ex13.jpg,right,0,0,0,1,0,0,0,0,4,14,78,4,261.68457340006717,,,,,,,,,,,,,,,,,,,,,,,261.66889919992536,1.3,261.68457340006717,263.00748870009556,262.9688013999257,262.9688434000127,263.00748870009556,263.00748870009556,263.00748870009556,0.025095900055021048,264.1232056999579,right,1,1.1226588999852538,None,264.1242251000367,264.14436969999224,264.13700485001317,264.13700485001317,264.41270670015365,264.41270670015365,265.1350490001496,,,,,,,,,santTest,001,32,Masc,Mex,2024-02-18_12h51.39.739,CatRev1_within,2023.2.3,59.985627362177276,2024-02-18 12h52.15.989326 -0500,
 2:4, 32:48,6,partial,1,images/Ex10.jpg,left,0,0,0,1,0,0,0,0,4,15,79,1,265.1513441000134,,,,,,,,,,,,,,,,,,,,,,,265.13610620005056,1.1,265.1513441000134,266.27751490008086,266.23566210013814,266.2357032999862,266.27751490008086,266.27751490008086,266.27751490008086,0.02846619999036193,267.2050988001283,left,1,0.930477499961853,None,267.2060356999282,267.22505560005084,267.2195801500231,267.2195801500231,267.4783063000068,267.4783063000068,268.2178877000697,,,,,,,,,santTest,001,32,Masc,Mex,2024-02-18_12h51.39.739,CatRev1_within,2023.2.3,59.985627362177276,2024-02-18 12h52.15.989326 -0500,
 2:4, 32:48,6,partial,1,images/Ex14.jpg,right,0,0,0,1,0,0,0,0,5,0,80,13,268.234175800113,,,,,,,,,,,,,,,,,,,,,,,268.21854160004295,1.0,268.234175800113,269.2666472001001,269.219192400109,269.2192574001383,269.2666472001001,269.2666472001001,269.2666472001001,0.03389000007882714,270.12324799993075,right,1,0.8676357998047024,None,270.1247400001157,270.1454408999998,270.1365718499757,270.1365718499757,270.4062665000092,270.4062665000092,271.13423720002174,,,,,,,,,santTest,001,32,Masc,Mex,2024-02-18_12h51.39.739,CatRev1_within,2023.2.3,59.985627362177276,2024-02-18 12h52.15.989326 -0500,
 2:4, 32:48,6,partial,1,images/Ex11.jpg,left,0,0,0,1,0,0,0,0,5,1,81,2,271.15076950006187,,,,,,,,,,,,,,,,,,,,,,,271.1349550001323,0.9,271.15076950006187,272.09837849996984,272.03585290000774,272.0359201000538,272.09837849996984,272.09837849996984,272.09837849996984,0.04958690004423261,273.1218157999683,left,1,1.027619400061667,None,273.12270530010574,273.1434192999732,273.13635624996385,273.13635624996385,273.4048415001016,273.4048415001016,274.13472390011884,,,,,,,,,santTest,001,32,Masc,Mex,2024-02-18_12h51.39.739,CatRev1_within,2023.2.3,59.985627362177276,2024-02-18 12h52.15.989326 -0500,
 2:4, 32:48,6,partial,1,images/Ex10.jpg,left,0,0,0,1,0,0,0,0,5,2,82,9,274.1510012000799,,,,,,,,,,,,,,,,,,,,,,,274.1356115001254,0.9,274.1510012000799,275.0865831000265,275.0350769001525,275.0351361001376,275.0865831000265,275.0865831000265,275.0865831000265,0.03493930003605783,276.43902559997514,left,1,1.3586452000308782,None,276.4405521999579,276.4652683001477,276.4525540499482,276.4525540499482,,,277.4510707000736,,,,,,,,,santTest,001,32,Masc,Mex,2024-02-18_12h51.39.739,CatRev1_within,2023.2.3,59.985627362177276,2024-02-18 12h52.15.989326 -0500,
 2:4, 32:48,6,partial,1,images/Ex9.jpg,left,0,0,0,1,0,0,0,0,5,3,83,0,277.46739390003495,,,,,,,,,,,,,,,,,,,,,,,277.4521149999928,1.0,277.46739390003495,278.4972516000271,278.45352380000986,278.453600600129,278.4972516000271,278.4972516000271,278.4972516000271,0.03011769987642765,279.855084199924,right,0,1.360572800040245,None,279.8559189001098,279.87439080001786,279.86905264998785,279.86905264998785,,,280.8673441000283,,,,,,,,,santTest,001,32,Masc,Mex,2024-02-18_12h51.39.739,CatRev1_within,2023.2.3,59.985627362177276,2024-02-18 12h52.15.989326 -0500,
 2:4, 32:48,6,partial,1,images/Ex16.jpg,right,0,0,0,1,0,0,0,0,5,4,84,15,280.8836954999715,,,,,,,,,,,,,,,,,,,,,,,280.86828780011274,1.2,280.8836954999715,282.1208301000297,282.06816160003655,282.068210599944,282.1208301000297,282.1208301000297,282.1208301000297,0.03819099999964237,283.3208526999224,left,0,1.2130131998565048,None,283.32149040000513,283.33329320000485,283.33552094995974,283.33552094995974,283.5650152999442,283.5650152999442,284.3180160999764,284.33336440008134,,,,,,,,santTest,001,32,Masc,Mex,2024-02-18_12h51.39.739,CatRev1_within,2023.2.3,59.985627362177276,2024-02-18 12h52.15.989326 -0500,
 2:4, 32:48,6,partial,1,images/Ex10.jpg,left,0,0,0,1,0,0,0,0,5,5,85,1,284.33336440008134,,,,,,,,,,,,,,,,,,,,,,,284.3189090001397,0.6,284.33336440008134,284.95913839992136,284.9176386001054,284.9176897001453,284.95913839992136,284.95913839992136,284.95913839992136,0.024687299970537424,285.83421320002526,left,1,0.883323899935931,None,285.8365637001116,285.85917589999735,285.86365940012035,285.86365940012035,,,286.8503561001271,,,,,,,,,santTest,001,32,Masc,Mex,2024-02-18_12h51.39.739,CatRev1_within,2023.2.3,59.985627362177276,2024-02-18 12h52.15.989326 -0500,
 2:4, 32:48,6,partial,1,images/Ex16.jpg,right,0,0,0,1,0,0,0,0,5,6,86,7,286.8665779000148,,,,,,,,,,,,,,,,,,,,,,,286.8510195000563,1.3,286.8665779000148,288.22698880010284,288.1518173001241,288.15188520005904,288.22698880010284,288.22698880010284,288.22698880010284,0.057064499938860536,289.1058686999604,right,1,0.8881440998520702,None,289.1072982000187,289.12577100005,289.1185712500475,289.1185712500475,289.33785740006715,289.33785740006715,290.1170864999294,,,,,,,,,santTest,001,32,Masc,Mex,2024-02-18_12h51.39.739,CatRev1_within,2023.2.3,59.985627362177276,2024-02-18 12h52.15.989326 -0500,
 2:4, 32:48,6,partial,1,images/Ex11.jpg,left,0,0,0,1,0,0,0,0,5,7,87,10,290.13350340002216,,,,,,,,,,,,,,,,,,,,,,,290.11821709992364,0.9,290.13350340002216,291.1023123001214,291.0184329999611,291.01850420003757,291.1023123001214,291.1023123001214,291.1023123001214,0.06355009996332228,291.8419381000567,left,1,0.7537394999526441,None,291.8434437001124,291.8663505001459,291.8560582499951,291.8560582499951,292.0689789999742,292.0689789999742,292.85029849992134,,,,,,,,,santTest,001,32,Masc,Mex,2024-02-18_12h51.39.739,CatRev1_within,2023.2.3,59.985627362177276,2024-02-18 12h52.15.989326 -0500,
 2:4, 32:48,6,partial,1,images/Ex15.jpg,right,0,0,0,1,0,0,0,0,5,8,88,6,292.8665778001305,,,,,,,,,,,,,,,,,,,,,,,292.8513617001008,0.6,292.8665778001305,293.4998021000065,293.45098530012183,293.45102869998664,293.4998021000065,293.4998021000065,293.4998021000065,0.0350451001431793,295.004288099939,left,0,1.5123656000941992,None,295.0051933999639,295.02226490015164,295.01856205011717,295.01856205011717,,,296.01648050011136,,,,,,,,,santTest,001,32,Masc,Mex,2024-02-18_12h51.39.739,CatRev1_within,2023.2.3,59.985627362177276,2024-02-18 12h52.15.989326 -0500,
 2:4, 32:48,6,partial,1,images/Ex9.jpg,left,0,0,0,1,0,0,0,0,5,9,89,8,296.0328750000335,,,,,,,,,,,,,,,,,,,,,,,296.0172040001489,1.3,296.0328750000335,297.36319179995917,297.3176003000699,297.3176496999804,297.36319179995917,297.36319179995917,297.36319179995917,0.027730499859899282,299.3371486000251,right,0,1.982128799892962,None,299.3379755001515,299.34950060001574,299.3515869500581,299.3515869500581,,,300.3342701001093,300.3496598000638,,,,,,,,santTest,001,32,Masc,Mex,2024-02-18_12h51.39.739,CatRev1_within,2023.2.3,59.985627362177276,2024-02-18 12h52.15.989326 -0500,
 2:4, 32:48,6,partial,1,images/Ex14.jpg,right,0,0,0,1,0,0,0,0,5,10,90,5,300.3496598000638,,,,,,,,,,,,,,,,,,,,,,,300.33509450010024,1.4,300.3496598000638,301.7854852001183,301.733970399946,301.7340218999889,301.7854852001183,301.7854852001183,301.7854852001183,0.03604919998906553,303.02055960008875,right,1,1.243502999888733,None,303.0215952000581,303.0462156001013,303.0508830001112,303.0508830001112,303.3258601000998,303.3258601000998,304.032993900124,,,,,,,,,santTest,001,32,Masc,Mex,2024-02-18_12h51.39.739,CatRev1_within,2023.2.3,59.985627362177276,2024-02-18 12h52.15.989326 -0500,
 2:4, 32:48,6,partial,1,images/Ex15.jpg,right,0,0,0,1,0,0,0,0,5,11,91,14,304.04943519993685,,,,,,,,,,,,,,,,,,,,,,,304.0341938000638,1.3,304.04943519993685,305.4039205999579,305.33490759995766,305.334981800057,305.4039205999579,305.4039205999579,305.4039205999579,0.056924200151115656,306.7029073999729,right,1,1.299705500015989,None,306.70374560006894,306.721701500006,306.7175076499581,306.7175076499581,306.9898232000414,306.9898232000414,307.71649249992333,,,,,,,,,santTest,001,32,Masc,Mex,2024-02-18_12h51.39.739,CatRev1_within,2023.2.3,59.985627362177276,2024-02-18 12h52.15.989326 -0500,
 2:4, 32:48,6,partial,1,images/Ex12.jpg,left,0,0,0,1,0,0,0,0,5,12,92,3,307.73250590008684,,,,,,,,,,,,,,,,,,,,,,,307.71771010011435,1.1,307.73250590008684,308.8897731001489,308.8174314000644,308.81753140012734,308.8897731001489,308.8897731001489,308.8897731001489,0.058562399819493294,309.9697946999222,left,1,1.0756105999462306,None,309.97067290009,309.98923610011116,309.9844370501116,309.9844370501116,310.2313171001151,310.2313171001151,310.98303270014003,,,,,,,,,santTest,001,32,Masc,Mex,2024-02-18_12h51.39.739,CatRev1_within,2023.2.3,59.985627362177276,2024-02-18 12h52.15.989326 -0500,
 2:4, 32:48,6,partial,1,images/Ex13.jpg,right,0,0,0,1,0,0,0,0,5,13,93,12,310.9988975999877,,,,,,,,,,,,,,,,,,,,,,,310.984143699985,1.0,310.9988975999877,312.04664800013416,311.98425690014847,311.98432960011996,312.04664800013416,312.04664800013416,312.04664800013416,0.04607790010049939,313.85296420007944,right,1,1.8135736000258476,None,313.85383239993826,313.8725815000944,313.86746685002,313.86746685002,,,314.86601150012575,,,,,,,,,santTest,001,32,Masc,Mex,2024-02-18_12h51.39.739,CatRev1_within,2023.2.3,59.985627362177276,2024-02-18 12h52.15.989326 -0500,
 2:4, 32:48,6,partial,1,images/Ex12.jpg,left,0,0,0,1,0,0,0,0,5,14,94,11,314.882419800153,,,,,,,,,,,,,,,,,,,,,,,314.8671371000819,0.9,314.882419800153,315.8413889000658,315.76726049999706,315.76733330008574,315.8413889000658,315.8413889000658,315.8413889000658,0.0619983000215143,317.18755890009925,right,0,1.3473567999899387,None,317.1883903001435,317.2036244000774,317.20025705015286,317.20025705015286,317.48222250002436,317.48222250002436,318.20003650011495,,,,,,,,,santTest,001,32,Masc,Mex,2024-02-18_12h51.39.739,CatRev1_within,2023.2.3,59.985627362177276,2024-02-18 12h52.15.989326 -0500,
 2:4, 32:48,6,partial,1,images/Ex13.jpg,right,0,0,0,1,0,0,0,0,5,15,95,4,318.2153924999293,,,,,,,,,,,,,,,,,,,,,,,318.2011607000604,1.4,318.2153924999293,319.6490402999334,319.59968670015223,319.59973959997296,319.6490402999334,319.6490402999334,319.6490402999334,0.03378330008126795,320.63617610000074,right,1,0.9981474000960588,None,320.63721509999596,320.6574174000416,320.6499977501109,320.6499977501109,320.9072158001363,320.9072158001363,321.6483744001016,,,,,,,,,santTest,001,32,Masc,Mex,2024-02-18_12h51.39.739,CatRev1_within,2023.2.3,59.985627362177276,2024-02-18 12h52.15.989326 -0500,
 2:4, 48:64,6,partial,2,images/Ex13.jpg,left,0,0,0,1,0,1,1,1,0,0,0,4,321.66475430014543,,,,,,,,,,,,,,,,,,,,,,,321.65786490007304,1.2,321.66475430014543,322.9082564001437,322.84946619998664,322.84953469992615,322.9082564001437,322.9082564001437,322.9082564001437,0.04232320003211498,323.58581790002063,right,0,0.6761413000058383,None,323.587418399984,323.6036400999874,323.6001393499784,323.6001393499784,323.8262044999283,323.8262044999283,324.5982456000056,,,,,,,,,santTest,001,32,Masc,Mex,2024-02-18_12h51.39.739,CatRev1_within,2023.2.3,59.985627362177276,2024-02-18 12h52.15.989326 -0500,
 2:4, 48:64,6,partial,2,images/Ex15.jpg,right,0,0,0,1,0,1,1,1,0,1,1,14,324.61478230007924,,,,,,,,,,,,,,,,,,,,,,,324.59910250012763,0.8,324.61478230007924,325.468233600026,325.3995453999378,325.3996091999579,325.468233600026,325.468233600026,325.468233600026,0.050447999965399504,327.7020215000957,right,1,2.2461459999904037,None,327.7029065999668,327.72196430014446,327.71646135002374,327.71646135002374,327.98591800010763,327.98591800010763,328.715541300131,,,,,,,,,santTest,001,32,Masc,Mex,2024-02-18_12h51.39.739,CatRev1_within,2023.2.3,59.985627362177276,2024-02-18 12h52.15.989326 -0500,
 2:4, 48:64,6,partial,2,images/Ex11.jpg,right,0,0,0,1,0,1,1,1,0,2,2,10,328.73168960004114,,,,,,,,,,,,,,,,,,,,,,,328.71679079998285,1.2,328.73168960004114,329.9814663999714,329.9167637999635,329.916836499935,329.9814663999714,329.9814663999714,329.9814663999714,0.05193939991295338,331.3351968000643,left,0,1.3624313999898732,None,331.3360065999441,331.3507177999709,331.3498834500089,331.3498834500089,331.57371080014855,331.57371080014855,332.3482578000985,,,,,,,,,santTest,001,32,Masc,Mex,2024-02-18_12h51.39.739,CatRev1_within,2023.2.3,59.985627362177276,2024-02-18 12h52.15.989326 -0500,
 2:4, 48:64,6,partial,2,images/Ex10.jpg,left,0,0,0,1,0,1,1,1,0,3,3,9,332.36449300008826,,,,,,,,,,,,,,,,,,,,,,,332.34910889994353,1.5,332.36449300008826,333.90347660006955,333.8490514999721,333.84910729993135,333.90347660006955,333.90347660006955,333.90347660006955,0.03896110015921295,335.268681100104,left,1,1.3709694999270141,None,335.26974899997003,335.2928740000352,335.2827853500377,335.2827853500377,,,336.28151590004563,,,,,,,,,santTest,001,32,Masc,Mex,2024-02-18_12h51.39.739,CatRev1_within,2023.2.3,59.985627362177276,2024-02-18 12h52.15.989326 -0500,
 2:4, 48:64,6,partial,2,images/Ex9.jpg,left,0,0,0,1,0,1,1,1,0,4,4,0,336.2977144001052,,,,,,,,,,,,,,,,,,,,,,,336.28268059995025,1.0,336.2977144001052,337.3412168000359,337.28284880006686,337.2829249999486,337.3412168000359,337.3412168000359,337.3412168000359,0.04448019992560148,338.26864990009926,left,1,0.9304839000105858,None,338.26948629994877,338.28750670002773,338.2831238499377,338.2831238499377,,,339.28126720013097,,,,,,,,,santTest,001,32,Masc,Mex,2024-02-18_12h51.39.739,CatRev1_within,2023.2.3,59.985627362177276,2024-02-18 12h52.15.989326 -0500,
 2:4, 48:64,6,partial,2,images/Ex16.jpg,right,0,0,0,1,0,1,1,1,0,5,5,15,339.29737740010023,,,,,,,,,,,,,,,,,,,,,,,339.28215100010857,1.3,339.29737740010023,340.64035789994523,340.5820190999657,340.58207620005123,340.64035789994523,340.64035789994523,340.64035789994523,0.04313710005953908,341.78506040014327,right,1,1.152722799917683,None,341.7861017000396,341.80788370012306,341.7990695499349,341.7990695499349,,,342.79746380005963,,,,,,,,,santTest,001,32,Masc,Mex,2024-02-18_12h51.39.739,CatRev1_within,2023.2.3,59.985627362177276,2024-02-18 12h52.15.989326 -0500,
 2:4, 48:64,6,partial,2,images/Ex12.jpg,right,0,0,0,1,0,1,1,1,0,6,6,11,342.813704600092,,,,,,,,,,,,,,,,,,,,,,,342.7983407001011,0.8,342.813704600092,343.65905630006455,343.5985228000209,343.5985960001126,343.65905630006455,343.65905630006455,343.65905630006455,0.04546729987487197,345.1516297000926,right,1,1.5052134001161903,None,345.1524561000988,345.1714355000295,345.1654336499516,345.1654336499516,,,346.16463489993475,,,,,,,,,santTest,001,32,Masc,Mex,2024-02-18_12h51.39.739,CatRev1_within,2023.2.3,59.985627362177276,2024-02-18 12h52.15.989326 -0500,
 2:4, 48:64,6,partial,2,images/Ex9.jpg,left,0,0,0,1,0,1,1,1,0,7,7,8,346.18051810003817,,,,,,,,,,,,,,,,,,,,,,,346.1655303000007,1.3,346.18051810003817,347.5092531000264,347.46510539995506,347.46515960013494,347.5092531000264,347.5092531000264,347.5092531000264,0.029099600156769156,349.66853290004656,left,1,2.1665399000048637,None,349.6696266999934,349.69245680002496,349.68237284994683,349.68237284994683,349.91427449998446,349.91427449998446,350.68107550009154,,,,,,,,,santTest,001,32,Masc,Mex,2024-02-18_12h51.39.739,CatRev1_within,2023.2.3,59.985627362177276,2024-02-18 12h52.15.989326 -0500,
 2:4, 48:64,6,partial,2,images/Ex13.jpg,left,0,0,0,1,0,1,1,1,0,8,8,12,350.69682259997353,,,,,,,,,,,,,,,,,,,,,,,350.68223579996265,0.6,350.69682259997353,351.34344330010936,351.281953800004,351.28202729998156,351.34344330010936,351.34344330010936,351.34344330010936,0.046566199976950884,353.1839604000561,right,0,1.8494478999637067,None,353.18483599997126,353.2032012999989,353.1983516500797,353.1983516500797,,353.41353249992244,354.1990006000269,,,,,,,,,santTest,001,32,Masc,Mex,2024-02-18_12h51.39.739,CatRev1_within,2023.2.3,59.985627362177276,2024-02-18 12h52.15.989326 -0500,
 2:4, 48:64,6,partial,2,images/Ex15.jpg,right,0,0,0,1,0,1,1,1,0,9,9,6,354.2137651001103,,,,,,,,,,,,,,,,,,,,,,,354.1998513001017,0.7,354.2137651001103,354.957213900052,354.89820350008085,354.8982564001344,354.957213900052,354.957213900052,354.957213900052,0.04354749992489815,356.31783329998143,left,0,1.3670426001772285,None,356.318869800074,356.3347032000311,356.3318347500637,356.3318347500637,356.56991650001146,356.56991650001146,357.3304449999705,,,,,,,,,santTest,001,32,Masc,Mex,2024-02-18_12h51.39.739,CatRev1_within,2023.2.3,59.985627362177276,2024-02-18 12h52.15.989326 -0500,
 2:4, 48:64,6,partial,2,images/Ex16.jpg,right,0,0,0,1,0,1,1,1,0,10,10,7,357.3464736000169,,,,,,,,,,,,,,,,,,,,,,,357.3312603000086,0.7,357.3464736000169,358.08742330013774,358.0310188999865,358.0310722999275,358.08742330013774,358.08742330013774,358.08742330013774,0.04101709998212755,360.05006420006976,right,1,1.9723064999561757,None,360.0508731000591,360.0690983000677,360.0646579501219,360.0646579501219,,,361.063089299947,,,,,,,,,santTest,001,32,Masc,Mex,2024-02-18_12h51.39.739,CatRev1_within,2023.2.3,59.985627362177276,2024-02-18 12h52.15.989326 -0500,
 2:4, 48:64,6,partial,2,images/Ex11.jpg,right,0,0,0,1,0,1,1,1,0,11,11,2,361.0795038000215,,,,,,,,,,,,,,,,,,,,,,,361.0639482999686,1.2,361.0795038000215,362.32019310002215,362.2642030999996,362.26425620005466,362.32019310002215,362.32019310002215,362.32019310002215,0.040682199876755476,363.11759250005707,left,0,0.8079207001719624,None,363.1186305000447,363.13633130001836,363.1315960500389,363.1315960500389,363.41088220011443,363.41088220011443,364.1300256000832,,,,,,,,,santTest,001,32,Masc,Mex,2024-02-18_12h51.39.739,CatRev1_within,2023.2.3,59.985627362177276,2024-02-18 12h52.15.989326 -0500,
 2:4, 48:64,6,partial,2,images/Ex14.jpg,left,0,0,0,1,0,1,1,1,0,12,12,5,364.14633799996227,,,,,,,,,,,,,,,,,,,,,,,364.13119839993306,0.6,364.14633799996227,364.7943142999429,364.73107280000113,364.7311484001111,364.7943142999429,364.7943142999429,364.7943142999429,0.05004390003159642,366.43333959998563,right,0,1.640338100027293,None,366.43415120011196,366.4463669001125,366.4480468500871,366.4480468500871,,,367.43131610006094,367.4459603000432,,,,,,,,santTest,001,32,Masc,Mex,2024-02-18_12h51.39.739,CatRev1_within,2023.2.3,59.985627362177276,2024-02-18 12h52.15.989326 -0500,
 2:4, 48:64,6,partial,2,images/Ex14.jpg,left,0,0,0,1,0,1,1,1,0,13,13,13,367.4459603000432,,,,,,,,,,,,,,,,,,,,,,,367.4323796001263,1.4,367.4459603000432,368.8810732001439,368.83024669997394,368.8302999001462,368.8810732001439,368.8810732001439,368.8810732001439,0.0350536999758333,369.7004519000184,right,0,0.8287640998605639,None,369.70148629997857,369.7124566999264,369.7143592499662,369.7143592499662,369.98335859994404,369.98335859994404,370.69821369997226,370.71288920007646,,,,,,,,santTest,001,32,Masc,Mex,2024-02-18_12h51.39.739,CatRev1_within,2023.2.3,59.985627362177276,2024-02-18 12h52.15.989326 -0500,
 2:4, 48:64,6,partial,2,images/Ex10.jpg,left,0,0,0,1,0,1,1,1,0,14,14,1,370.71288920007646,,,,,,,,,,,,,,,,,,,,,,,370.69934309995733,0.6,370.71288920007646,371.36268940009177,371.2998571000062,371.29993039998226,371.36268940009177,371.36268940009177,371.36268940009177,0.04912859993055463,373.3496223001275,right,0,1.9966710000298917,None,373.35044780001044,373.3624088000506,373.36406855010426,373.36406855010426,,,374.3470471999608,374.36241440009326,,,,,,,,santTest,001,32,Masc,Mex,2024-02-18_12h51.39.739,CatRev1_within,2023.2.3,59.985627362177276,2024-02-18 12h52.15.989326 -0500,
 2:4, 48:64,6,partial,2,images/Ex12.jpg,right,0,0,0,1,0,1,1,1,0,15,15,3,374.36241440009326,,,,,,,,,,,,,,,,,,,,,,,374.34789910004474,0.7,374.36241440009326,375.10964290006086,375.0468288001139,375.0468824999407,375.10964290006086,375.10964290006086,375.10964290006086,0.04748680000193417,380.43250639992766,left,0,5.330106199951842,None,380.4333337000571,380.47679610014893,380.4796226500999,380.4796226500999,380.71742240013555,380.71742240013555,381.4457805000711,,,,,,,,,santTest,001,32,Masc,Mex,2024-02-18_12h51.39.739,CatRev1_within,2023.2.3,59.985627362177276,2024-02-18 12h52.15.989326 -0500,
 2:4, 48:64,6,partial,2,images/Ex16.jpg,right,0,0,0,1,0,1,1,1,1,0,16,15,381.46197720011696,,,,,,,,,,,,,,,,,,,,,,,381.44684999994934,1.1,381.46197720011696,382.6104240999557,382.5474523999728,382.5475198000204,382.6104240999557,382.6104240999557,382.6104240999557,0.049828700022771955,384.1153679001145,left,0,1.5065609999001026,None,384.11617449996993,384.1311896000989,384.1299782500602,384.1299782500602,384.4110334001016,384.4110334001016,385.12910200003535,,,,,,,,,santTest,001,32,Masc,Mex,2024-02-18_12h51.39.739,CatRev1_within,2023.2.3,59.985627362177276,2024-02-18 12h52.15.989326 -0500,
 2:4, 48:64,6,partial,2,images/Ex14.jpg,left,0,0,0,1,0,1,1,1,1,1,17,5,385.14530270011164,,,,,,,,,,,,,,,,,,,,,,,385.13033360010013,0.8,385.14530270011164,385.9980448000133,385.93037610012107,385.930492100073,385.9980448000133,385.9980448000133,385.9980448000133,0.054345399839803576,387.06543019996025,left,1,1.068835699930787,None,387.066267499933,387.08433230011724,387.0800686500035,387.0800686500035,,,388.078651299933,,,,,,,,,santTest,001,32,Masc,Mex,2024-02-18_12h51.39.739,CatRev1_within,2023.2.3,59.985627362177276,2024-02-18 12h52.15.989326 -0500,
 2:4, 48:64,6,partial,2,images/Ex11.jpg,right,0,0,0,1,0,1,1,1,1,2,18,2,388.0950194001198,,,,,,,,,,,,,,,,,,,,,,,388.07952690008096,1.2,388.0950194001198,389.33878340013325,389.2794580999762,389.27951180003583,389.33878340013325,389.33878340013325,389.33878340013325,0.04376400006003678,390.39998330012895,right,1,1.0740328999236226,None,390.4011828000657,390.4236387000419,390.4296448001172,390.4296448001172,390.6522041999269,390.6522041999269,391.4118787001353,,,,,,,,,santTest,001,32,Masc,Mex,2024-02-18_12h51.39.739,CatRev1_within,2023.2.3,59.985627362177276,2024-02-18 12h52.15.989326 -0500,
 2:4, 48:64,6,partial,2,images/Ex13.jpg,left,0,0,0,1,0,1,1,1,1,3,19,12,391.4280992001295,,,,,,,,,,,,,,,,,,,,,,,391.41309790010564,1.3,391.4280992001295,392.77278589992784,392.7132047000341,392.7132808000315,392.77278589992784,392.77278589992784,392.77278589992784,0.04566280008293688,393.9011901000049,left,1,1.1245661999564618,None,393.90245199995115,393.92313620005734,393.9154501499608,393.9154501499608,394.15429270011373,394.15429270011373,394.91256780014373,,,,,,,,,santTest,001,32,Masc,Mex,2024-02-18_12h51.39.739,CatRev1_within,2023.2.3,59.985627362177276,2024-02-18 12h52.15.989326 -0500,
 2:4, 48:64,6,partial,2,images/Ex15.jpg,right,0,0,0,1,0,1,1,1,1,4,20,6,394.92829730012454,,,,,,,,,,,,,,,,,,,,,,,394.9137580001261,0.8,394.92829730012454,395.7801028001122,395.7134163000155,395.71349030011334,395.7801028001122,395.7801028001122,395.7801028001122,0.05445470008999109,398.9489218001254,left,0,3.176825299859047,None,398.94979840004817,398.9651645999402,398.96289444998837,398.96289444998837,,,399.96112049999647,,,,,,,,,santTest,001,32,Masc,Mex,2024-02-18_12h51.39.739,CatRev1_within,2023.2.3,59.985627362177276,2024-02-18 12h52.15.989326 -0500,
 2:4, 48:64,6,partial,2,images/Ex14.jpg,left,0,0,0,1,0,1,1,1,1,5,21,13,399.97744620009325,,,,,,,,,,,,,,,,,,,,,,,399.96194349997677,1.3,399.97744620009325,401.31620709993877,401.2621977000963,401.2622515000403,401.31620709993877,401.31620709993877,401.31620709993877,0.036379999946802855,402.53210519999266,left,1,1.2224985999055207,None,402.53315020003356,402.55563329998404,402.5461519500706,402.5461519500706,402.7614236001391,402.7614236001391,403.5448867001105,,,,,,,,,santTest,001,32,Masc,Mex,2024-02-18_12h51.39.739,CatRev1_within,2023.2.3,59.985627362177276,2024-02-18 12h52.15.989326 -0500,
 2:4, 48:64,6,partial,2,images/Ex9.jpg,left,0,0,0,1,0,1,1,1,1,6,22,0,403.5610499000177,,,,,,,,,,,,,,,,,,,,,,,403.54605580004863,0.7,403.5610499000177,404.28207359998487,404.24467430007644,404.2447168000508,404.28207359998487,404.28207359998487,404.28207359998487,0.024223600048571825,406.8321108999662,right,0,2.5568042998202145,None,406.83294140012003,406.8479381999932,406.8463441499509,406.8463441499509,407.0603914000094,407.0603914000094,407.8440084999893,,,,,,,,,santTest,001,32,Masc,Mex,2024-02-18_12h51.39.739,CatRev1_within,2023.2.3,59.985627362177276,2024-02-18 12h52.15.989326 -0500,
 2:4, 48:64,6,partial,2,images/Ex10.jpg,left,0,0,0,1,0,1,1,1,1,7,23,9,407.86055910005234,,,,,,,,,,,,,,,,,,,,,,,407.84488550014794,0.7,407.86055910005234,408.5974421999417,408.5453103000764,408.5453644001391,408.5974421999417,408.5974421999417,408.5974421999417,0.03654530015774071,410.69891800009646,right,0,2.1058297001291066,None,410.69997750013135,410.71157280006446,410.71249555009416,410.71249555009416,410.9911420000717,410.9911420000717,411.7106918999925,,,,,,,,,santTest,001,32,Masc,Mex,2024-02-18_12h51.39.739,CatRev1_within,2023.2.3,59.985627362177276,2024-02-18 12h52.15.989326 -0500,
 2:4, 48:64,6,partial,2,images/Ex12.jpg,right,0,0,0,1,0,1,1,1,1,8,24,3,411.7273623000365,,,,,,,,,,,,,,,,,,,,,,,411.7118094000034,1.5,411.7273623000365,413.2824939999264,413.2120751000475,413.2121496000327,413.2824939999264,413.2824939999264,413.2824939999264,0.05890269996598363,414.5310221000109,left,0,1.2484768000431359,None,414.53188419993967,414.54401080007665,414.54558265004306,414.54558265004306,,,415.52896400005557,415.5434246000368,,,,,,,,santTest,001,32,Masc,Mex,2024-02-18_12h51.39.739,CatRev1_within,2023.2.3,59.985627362177276,2024-02-18 12h52.15.989326 -0500,
 2:4, 48:64,6,partial,2,images/Ex9.jpg,left,0,0,0,1,0,1,1,1,1,9,25,8,415.5434246000368,,,,,,,,,,,,,,,,,,,,,,,415.53010760014877,0.7,415.5434246000368,416.28758449992165,416.22852020012215,416.22859390010126,416.28758449992165,416.28758449992165,416.28758449992165,0.04391319979913533,417.3136190001387,left,1,1.030676000053063,None,417.3144352999516,417.33239650004543,417.32823934992774,417.32823934992774,417.56492909998633,417.56492909998633,418.32789220009,,,,,,,,,santTest,001,32,Masc,Mex,2024-02-18_12h51.39.739,CatRev1_within,2023.2.3,59.985627362177276,2024-02-18 12h52.15.989326 -0500,
 2:4, 48:64,6,partial,2,images/Ex12.jpg,right,0,0,0,1,0,1,1,1,1,10,26,11,418.34375560004264,,,,,,,,,,,,,,,,,,,,,,,418.3289969000034,1.1,418.34375560004264,419.49695620010607,419.4284064001404,419.4284791999962,419.49695620010607,419.49695620010607,419.49695620010607,0.056820200057700276,421.4469757999759,left,0,1.9521250000689179,None,421.4478486001026,421.4670419001486,421.46150515000335,421.46150515000335,421.7132234000601,421.7132234000601,422.46052270010114,,,,,,,,,santTest,001,32,Masc,Mex,2024-02-18_12h51.39.739,CatRev1_within,2023.2.3,59.985627362177276,2024-02-18 12h52.15.989326 -0500,
 2:4, 48:64,6,partial,2,images/Ex16.jpg,right,0,0,0,1,0,1,1,1,1,11,27,7,422.4769927000161,,,,,,,,,,,,,,,,,,,,,,,422.46162840002216,0.6,422.4769927000161,423.1270282000769,423.0615207001101,423.0615948999766,423.1270282000769,423.1270282000769,423.1270282000769,0.0531997000798583,424.1467001999263,left,0,1.0218726000748575,None,424.14750540000387,424.15975230000913,424.16137905004433,424.16137905004433,424.4039954999462,424.4039954999462,425.1453235000372,425.16003690008074,,,,,,,,santTest,001,32,Masc,Mex,2024-02-18_12h51.39.739,CatRev1_within,2023.2.3,59.985627362177276,2024-02-18 12h52.15.989326 -0500,
 2:4, 48:64,6,partial,2,images/Ex11.jpg,right,0,0,0,1,0,1,1,1,1,12,28,10,425.16003690008074,,,,,,,,,,,,,,,,,,,,,,,425.1464458000846,1.0,425.16003690008074,426.213950100122,426.14492600015365,426.1450282000005,426.213950100122,426.213950100122,426.213950100122,0.05568929994478822,428.53022610000335,right,1,2.3213720999192446,None,428.5311265999917,428.5515040999744,428.5443786499556,428.5443786499556,,,429.5443575999234,,,,,,,,,santTest,001,32,Masc,Mex,2024-02-18_12h51.39.739,CatRev1_within,2023.2.3,59.985627362177276,2024-02-18 12h52.15.989326 -0500,
 2:4, 48:64,6,partial,2,images/Ex13.jpg,left,0,0,0,1,0,1,1,1,1,13,29,4,429.5597743000835,,,,,,,,,,,,,,,,,,,,,,,429.5452106001321,1.3,429.5597743000835,430.89484290010296,430.84384150011465,430.84389430005103,430.89484290010296,430.89484290010296,430.89484290010296,0.032533999998122454,432.89722270006314,left,1,2.014113400131464,None,432.89832410006784,432.92127800011076,432.9111493500415,432.9111493500415,433.13819700013846,433.13819700013846,433.9095920000691,,,,,,,,,santTest,001,32,Masc,Mex,2024-02-18_12h51.39.739,CatRev1_within,2023.2.3,59.985627362177276,2024-02-18 12h52.15.989326 -0500,
 2:4, 48:64,6,partial,2,images/Ex15.jpg,right,0,0,0,1,0,1,1,1,1,14,30,14,433.9261283001397,,,,,,,,,,,,,,,,,,,,,,,433.91046430007555,1.4,433.9261283001397,435.36779820011,435.31045490014367,435.3105101999827,435.36779820011,435.36779820011,435.36779820011,0.04216179996728897,436.69690670003183,left,0,1.3409558001440018,None,436.6977775001433,436.7137237000279,436.71074295002035,436.71074295002035,436.9774090999272,436.9774090999272,437.7092762000393,,,,,,,,,santTest,001,32,Masc,Mex,2024-02-18_12h51.39.739,CatRev1_within,2023.2.3,59.985627362177276,2024-02-18 12h52.15.989326 -0500,
 2:4, 48:64,6,partial,2,images/Ex10.jpg,left,0,0,0,1,0,1,1,1,1,15,31,1,437.7260420001112,,,,,,,,,,,,,,,,,,,,,,,437.71015840000473,1.1,437.7260420001112,438.865546700079,438.81070900009945,438.81076130014844,438.865546700079,438.865546700079,438.865546700079,0.0387789998203516,442.4005748000927,right,0,3.5370998000726104,None,442.4014054001309,442.4238122999668,442.41515045012346,442.41515045012346,442.64331230008975,442.64331230008975,443.40915770013817,,,,,,,,,santTest,001,32,Masc,Mex,2024-02-18_12h51.39.739,CatRev1_within,2023.2.3,59.985627362177276,2024-02-18 12h52.15.989326 -0500,
 2:4, 48:64,6,partial,2,images/Ex16.jpg,right,0,0,0,1,0,1,1,1,2,0,32,15,443.42529699997976,,,,,,,,,,,,,,,,,,,,,,,443.4102513000835,1.1,443.42529699997976,444.57602089992724,444.5106701999903,444.5107380999252,444.57602089992724,444.57602089992724,444.57602089992724,0.052882600110024214,445.7789161999244,left,0,1.2038353001698852,None,445.7797383000143,445.79487899993546,445.7936177500989,445.7936177500989,,,446.79182610008866,,,,,,,,,santTest,001,32,Masc,Mex,2024-02-18_12h51.39.739,CatRev1_within,2023.2.3,59.985627362177276,2024-02-18 12h52.15.989326 -0500,
 2:4, 48:64,6,partial,2,images/Ex12.jpg,right,0,0,0,1,0,1,1,1,2,1,33,3,446.80830299993977,,,,,,,,,,,,,,,,,,,,,,,446.792901000008,0.7,446.80830299993977,447.5545163000934,447.4931218000129,447.4931743000634,447.5545163000934,447.5545163000934,447.5545163000934,0.04659839998930693,450.87923570000567,right,1,3.328875800129026,None,450.88028050004505,450.9050128001254,450.9097128001507,450.9097128001507,451.14674250013195,451.14674250013195,451.8918833001517,,,,,,,,,santTest,001,32,Masc,Mex,2024-02-18_12h51.39.739,CatRev1_within,2023.2.3,59.985627362177276,2024-02-18 12h52.15.989326 -0500,
 2:4, 48:64,6,partial,2,images/Ex12.jpg,right,0,0,0,1,0,1,1,1,2,2,34,11,451.9081371999346,,,,,,,,,,,,,,,,,,,,,,,451.89274980011396,0.7,451.9081371999346,452.65357490000315,452.5928148000967,452.59286760003306,452.65357490000315,452.65357490000315,452.65357490000315,0.04577569989487529,453.44674149993807,right,1,0.8054714000318199,None,453.447844899958,453.4743854000699,453.476493000146,453.476493000146,453.7232306001242,453.7232306001242,454.4587743000593,,,,,,,,,santTest,001,32,Masc,Mex,2024-02-18_12h51.39.739,CatRev1_within,2023.2.3,59.985627362177276,2024-02-18 12h52.15.989326 -0500,
 2:4, 48:64,6,partial,2,images/Ex13.jpg,left,0,0,0,1,0,1,1,1,2,3,35,4,454.47520689992234,,,,,,,,,,,,,,,,,,,,,,,454.45992629998364,0.8,454.47520689992234,455.32130299997516,455.26017250004224,455.2602443001233,455.32130299997516,455.32130299997516,455.32130299997516,0.04715289990417659,456.49554769997485,left,1,1.17491149995476,None,456.49644730007276,456.5141927001532,456.5098550499417,456.5098550499417,,,457.50844489992596,,,,,,,,,santTest,001,32,Masc,Mex,2024-02-18_12h51.39.739,CatRev1_within,2023.2.3,59.985627362177276,2024-02-18 12h52.15.989326 -0500,
 2:4, 48:64,6,partial,2,images/Ex14.jpg,left,0,0,0,1,0,1,1,1,2,4,36,13,457.5248110999819,,,,,,,,,,,,,,,,,,,,,,,457.5092997001484,0.8,457.5248110999819,458.36136250011623,458.3092428999953,458.309297000058,458.36136250011623,458.36136250011623,458.36136250011623,0.036179899936541915,459.76232740003616,left,1,1.412534900009632,None,459.7633678999264,459.78583450010046,459.77642915006726,459.77642915006726,,,460.7746916001197,,,,,,,,,santTest,001,32,Masc,Mex,2024-02-18_12h51.39.739,CatRev1_within,2023.2.3,59.985627362177276,2024-02-18 12h52.15.989326 -0500,
 2:4, 48:64,6,partial,2,images/Ex9.jpg,left,0,0,0,1,0,1,1,1,2,5,37,8,460.7912630001083,,,,,,,,,,,,,,,,,,,,,,,460.7755152999889,0.9,460.7912630001083,461.72195599996485,461.6759973000735,461.6760506001301,461.72195599996485,461.72195599996485,461.72195599996485,0.03016539989039302,463.02870710007846,left,1,1.3131299999076873,None,463.02981960005127,463.05376969999634,463.0428126501385,463.0428126501385,,,464.0412707000505,,,,,,,,,santTest,001,32,Masc,Mex,2024-02-18_12h51.39.739,CatRev1_within,2023.2.3,59.985627362177276,2024-02-18 12h52.15.989326 -0500,
 2:4, 48:64,6,partial,2,images/Ex9.jpg,left,0,0,0,1,0,1,1,1,2,6,38,0,464.0575858000666,,,,,,,,,,,,,,,,,,,,,,,464.0425571000669,1.1,464.0575858000666,465.1971055001486,465.14257750008255,465.1426454000175,465.1971055001486,465.1971055001486,465.1971055001486,0.03581050015054643,465.9615200001281,left,1,0.7657854000572115,None,465.9623958999291,465.98181809997186,465.9761474500876,465.9761474500876,466.2264024000615,466.2264024000615,466.97480050008744,,,,,,,,,santTest,001,32,Masc,Mex,2024-02-18_12h51.39.739,CatRev1_within,2023.2.3,59.985627362177276,2024-02-18 12h52.15.989326 -0500,
 2:4, 48:64,6,partial,2,images/Ex15.jpg,right,0,0,0,1,0,1,1,1,2,7,39,6,466.99074420006946,,,,,,,,,,,,,,,,,,,,,,,466.97600660007447,1.2,466.99074420006946,468.23614479997195,468.17504499992356,468.1751319000032,468.23614479997195,468.23614479997195,468.23614479997195,0.04567899997346103,469.1961094001308,right,1,0.9658488999120891,None,469.196908300044,469.2130177000072,469.20903944997116,469.20903944997116,469.48862600000575,469.48862600000575,470.2082467,,,,,,,,,santTest,001,32,Masc,Mex,2024-02-18_12h51.39.739,CatRev1_within,2023.2.3,59.985627362177276,2024-02-18 12h52.15.989326 -0500,
 2:4, 48:64,6,partial,2,images/Ex10.jpg,left,0,0,0,1,0,1,1,1,2,8,40,1,470.22423689998686,,,,,,,,,,,,,,,,,,,,,,,470.2094690001104,1.4,470.22423689998686,471.6720082000829,471.60875959997065,471.60883360006846,471.6720082000829,471.6720082000829,471.6720082000829,0.050861400086432695,472.63133989996277,left,1,0.9640955000650138,None,472.6327657001093,472.6610769999679,472.66112239994106,472.66112239994106,472.9226518000942,472.9226518000942,473.6412587000523,,,,,,,,,santTest,001,32,Masc,Mex,2024-02-18_12h51.39.739,CatRev1_within,2023.2.3,59.985627362177276,2024-02-18 12h52.15.989326 -0500,
 2:4, 48:64,6,partial,2,images/Ex14.jpg,left,0,0,0,1,0,1,1,1,2,9,41,5,473.657304600114,,,,,,,,,,,,,,,,,,,,,,,473.64246909995563,1.0,473.657304600114,474.70343820005655,474.64258110010996,474.64265540009364,474.70343820005655,474.70343820005655,474.70343820005655,0.04766579996794462,475.91061200015247,right,0,1.2034815000370145,None,475.91143660014495,475.9258556999266,475.9253674499225,475.9253674499225,476.14975919993594,476.14975919993594,476.92404610011727,,,,,,,,,santTest,001,32,Masc,Mex,2024-02-18_12h51.39.739,CatRev1_within,2023.2.3,59.985627362177276,2024-02-18 12h52.15.989326 -0500,
 2:4, 48:64,6,partial,2,images/Ex16.jpg,right,0,0,0,1,0,1,1,1,2,10,42,7,476.94039939995855,,,,,,,,,,,,,,,,,,,,,,,476.92487560003065,0.8,476.94039939995855,477.7806400000118,477.7247445001267,477.724796500057,477.7806400000118,477.7806400000118,477.7806400000118,0.04021769994869828,478.81102639995515,right,1,1.035929599776864,None,478.8118827000726,478.8314857000951,478.8255877499934,478.8255877499934,479.0581253001001,479.0581253001001,479.82413089997135,,,,,,,,,santTest,001,32,Masc,Mex,2024-02-18_12h51.39.739,CatRev1_within,2023.2.3,59.985627362177276,2024-02-18 12h52.15.989326 -0500,
 2:4, 48:64,6,partial,2,images/Ex11.jpg,right,0,0,0,1,0,1,1,1,2,11,43,2,479.8401266001165,,,,,,,,,,,,,,,,,,,,,,,479.8253415999934,1.5,479.8401266001165,481.3914475000929,481.32498369994573,481.3250558001455,481.3914475000929,481.3914475000929,481.3914475000929,0.05367829999886453,482.46096689999104,right,1,1.0712452998850495,None,482.4618420000188,482.4800744999666,482.4756138499826,482.4756138499826,482.71834859997034,482.71834859997034,483.474223600002,,,,,,,,,santTest,001,32,Masc,Mex,2024-02-18_12h51.39.739,CatRev1_within,2023.2.3,59.985627362177276,2024-02-18 12h52.15.989326 -0500,
 2:4, 48:64,6,partial,2,images/Ex11.jpg,right,0,0,0,1,0,1,1,1,2,12,44,10,483.48993979999796,,,,,,,,,,,,,,,,,,,,,,,483.4753179999534,1.0,483.48993979999796,484.5388974000234,484.47485300013795,484.4749195999466,484.5388974000234,484.5388974000234,484.5388974000234,0.0484199000056833,485.12701750011183,right,1,0.5935347999911755,None,485.12788860010915,485.14567350014113,485.14153365003875,485.14153365003875,485.40339739993215,485.40339739993215,486.14097469998524,,,,,,,,,santTest,001,32,Masc,Mex,2024-02-18_12h51.39.739,CatRev1_within,2023.2.3,59.985627362177276,2024-02-18 12h52.15.989326 -0500,
 2:4, 48:64,6,partial,2,images/Ex13.jpg,left,0,0,0,1,0,1,1,1,2,13,45,12,486.15697819995694,,,,,,,,,,,,,,,,,,,,,,,486.1421672999859,1.1,486.15697819995694,487.3015106001403,487.2414258001372,487.24149859999306,487.3015106001403,487.3015106001403,487.3015106001403,0.04636389994993806,488.6934953001328,right,0,1.4031014000065625,None,488.69436700013466,488.71024399995804,488.70802195002324,488.70802195002324,,,489.70664570014924,,,,,,,,,santTest,001,32,Masc,Mex,2024-02-18_12h51.39.739,CatRev1_within,2023.2.3,59.985627362177276,2024-02-18 12h52.15.989326 -0500,
 2:4, 48:64,6,partial,2,images/Ex10.jpg,left,0,0,0,1,0,1,1,1,2,14,46,9,489.72325280006044,,,,,,,,,,,,,,,,,,,,,,,489.70751129998825,1.2,489.72325280006044,490.9612368999515,490.90747909992933,490.9075333001092,490.9612368999515,490.9612368999515,490.9612368999515,0.03816760005429387,492.0603366999421,right,0,1.1116455998271704,None,492.06137240002863,492.07276070001535,492.07446045014075,492.07446045014075,492.3363207001239,492.3363207001239,493.0582467999775,493.0731449001469,,,,,,,,santTest,001,32,Masc,Mex,2024-02-18_12h51.39.739,CatRev1_within,2023.2.3,59.985627362177276,2024-02-18 12h52.15.989326 -0500,
 2:4, 48:64,6,partial,2,images/Ex15.jpg,right,0,0,0,1,0,1,1,1,2,15,47,14,493.0731449001469,,,,,,,,,,,,,,,,,,,,,,,493.059345100075,1.1,493.0731449001469,494.2310405999888,494.1584006000776,494.1584729999304,494.2310405999888,494.2310405999888,494.2310405999888,0.05979950004257262,496.1932880000677,right,1,1.9628632999956608,None,496.19412499992177,496.21375819994137,496.20793984998016,496.20793984998016,496.48071880009957,496.48071880009957,497.20789920003153,,,,,,,,,santTest,001,32,Masc,Mex,2024-02-18_12h51.39.739,CatRev1_within,2023.2.3,59.985627362177276,2024-02-18 12h52.15.989326 -0500,
 2:4, 48:64,6,partial,2,images/Ex13.jpg,left,0,0,0,1,0,1,1,1,3,0,48,12,497.2226478999946,,,,,,,,,,,,,,,,,,,,,,,497.2091409000568,1.5,497.2226478999946,498.7670783000067,498.70832740003243,498.7084020001348,498.7670783000067,498.7670783000067,498.7670783000067,0.044774399837478995,499.77795940008946,left,1,1.0216347000095993,None,499.77872760011815,499.79670329997316,499.79087974997236,499.79087974997236,,,500.7896883999929,,,,,,,,,santTest,001,32,Masc,Mex,2024-02-18_12h51.39.739,CatRev1_within,2023.2.3,59.985627362177276,2024-02-18 12h52.15.989326 -0500,
 2:4, 48:64,6,partial,2,images/Ex10.jpg,left,0,0,0,1,0,1,1,1,3,1,49,1,500.8057502999436,,,,,,,,,,,,,,,,,,,,,,,500.79075210005976,1.1,500.8057502999436,501.9539044999983,501.89116380014457,501.8912305000704,501.9539044999983,501.9539044999983,501.9539044999983,0.04851069999858737,503.84288830007426,right,0,1.891768000088632,None,503.84371030004695,503.85904840007424,503.8575053499546,503.8575053499546,,,504.85593670001253,,,,,,,,,santTest,001,32,Masc,Mex,2024-02-18_12h51.39.739,CatRev1_within,2023.2.3,59.985627362177276,2024-02-18 12h52.15.989326 -0500,
 2:4, 48:64,6,partial,2,images/Ex16.jpg,right,0,0,0,1,0,1,1,1,3,2,50,15,504.87251579994336,,,,,,,,,,,,,,,,,,,,,,,504.8570141000673,0.9,504.87251579994336,505.82633289997466,505.7575896999333,505.7576566999778,505.82633289997466,505.82633289997466,505.82633289997466,0.055712200002744794,507.0593131999485,right,1,1.241312000202015,None,507.06011810014024,507.07768250000663,507.073716250062,507.073716250062,507.3298621000722,507.3298621000722,508.0724907000549,,,,,,,,,santTest,001,32,Masc,Mex,2024-02-18_12h51.39.739,CatRev1_within,2023.2.3,59.985627362177276,2024-02-18 12h52.15.989326 -0500,
 2:4, 48:64,6,partial,2,images/Ex10.jpg,left,0,0,0,1,0,1,1,1,3,3,51,9,508.08885610010475,,,,,,,,,,,,,,,,,,,,,,,508.0737310999539,0.5,508.08885610010475,508.63853360014036,508.5737978001125,508.57387059996836,508.63853360014036,508.63853360014036,508.63853360014036,0.05137470015324652,509.4924519001506,left,1,0.8558224998414516,None,509.4932713001035,509.5122205999214,509.506909450097,509.506909450097,509.72448249999434,509.72448249999434,510.50600860011764,,,,,,,,,santTest,001,32,Masc,Mex,2024-02-18_12h51.39.739,CatRev1_within,2023.2.3,59.985627362177276,2024-02-18 12h52.15.989326 -0500,
 2:4, 48:64,6,partial,2,images/Ex12.jpg,right,0,0,0,1,0,1,1,1,3,4,52,3,510.5221248001326,,,,,,,,,,,,,,,,,,,,,,,510.50688560004346,1.3,510.5221248001326,511.86955630010925,511.80821050005034,511.8082638999913,511.86955630010925,511.86955630010925,511.86955630010925,0.04533390002325177,513.0763457999565,left,0,1.2121943000238389,None,513.0773802001495,513.0959052001126,513.0902888500598,513.0902888500598,513.3233139000367,513.3233139000367,514.0886391999666,,,,,,,,,santTest,001,32,Masc,Mex,2024-02-18_12h51.39.739,CatRev1_within,2023.2.3,59.985627362177276,2024-02-18 12h52.15.989326 -0500,
 2:4, 48:64,6,partial,2,images/Ex16.jpg,right,0,0,0,1,0,1,1,1,3,5,53,7,514.1051875001285,,,,,,,,,,,,,,,,,,,,,,,514.0894923000596,1.0,514.1051875001285,515.146392100025,515.0894220999908,515.0894750000443,515.146392100025,515.146392100025,515.146392100025,0.041469299932941794,516.8094850000925,right,1,1.6709219000767916,None,516.8105256000999,516.8325132001191,516.8233196500689,516.8233196500689,517.0600916000549,517.0600916000549,517.8218565999996,,,,,,,,,santTest,001,32,Masc,Mex,2024-02-18_12h51.39.739,CatRev1_within,2023.2.3,59.985627362177276,2024-02-18 12h52.15.989326 -0500,
 2:4, 48:64,6,partial,2,images/Ex11.jpg,right,0,0,0,1,0,1,1,1,3,6,54,2,517.8380921999924,,,,,,,,,,,,,,,,,,,,,,,517.8227142000105,0.5,517.8380921999924,518.3819884001277,518.3231981000863,518.3232493000105,518.3819884001277,518.3819884001277,518.3819884001277,0.04337620013393462,519.9926883999724,right,1,1.6210158001631498,None,519.993724900065,520.016657799948,520.0065412500874,520.0065412500874,,,521.0051084000152,,,,,,,,,santTest,001,32,Masc,Mex,2024-02-18_12h51.39.739,CatRev1_within,2023.2.3,59.985627362177276,2024-02-18 12h52.15.989326 -0500,
 2:4, 48:64,6,partial,2,images/Ex14.jpg,left,0,0,0,1,0,1,1,1,3,7,55,13,521.0215990999714,,,,,,,,,,,,,,,,,,,,,,,521.0059404999483,1.3,521.0215990999714,522.3608351000585,522.3062957001384,522.3063489999622,522.3608351000585,522.3608351000585,522.3608351000585,0.03850220004096627,523.3101739999838,right,0,0.9533675001002848,None,523.3112093999516,523.3299630000256,523.3233023500536,523.3233023500536,523.5705099001061,523.5705099001061,524.3208757999819,,,,,,,,,santTest,001,32,Masc,Mex,2024-02-18_12h51.39.739,CatRev1_within,2023.2.3,59.985627362177276,2024-02-18 12h52.15.989326 -0500,
 2:4, 48:64,6,partial,2,images/Ex12.jpg,right,0,0,0,1,0,1,1,1,3,8,56,11,524.337374499999,,,,,,,,,,,,,,,,,,,,,,,524.3215757999569,1.4,524.337374499999,525.7922104001045,525.723286600085,525.7233607000671,525.7922104001045,525.7922104001045,525.7922104001045,0.05667180009186268,526.8747296000365,right,1,1.0827516000717878,None,526.875549999997,526.8961473000236,526.8893093499821,526.8893093499821,527.1436890000477,527.1436890000477,527.8884572000243,,,,,,,,,santTest,001,32,Masc,Mex,2024-02-18_12h51.39.739,CatRev1_within,2023.2.3,59.985627362177276,2024-02-18 12h52.15.989326 -0500,
 2:4, 48:64,6,partial,2,images/Ex15.jpg,right,0,0,0,1,0,1,1,1,3,9,57,14,527.9043002999388,,,,,,,,,,,,,,,,,,,,,,,527.8896033000201,0.6,527.9043002999388,528.56077680015,528.4896353001241,528.4897356000729,528.56077680015,528.56077680015,528.56077680015,0.05819610017351806,529.8412151001394,right,1,1.2841040000785142,None,529.8421444999985,529.8603962000925,529.8558579499834,529.8558579499834,530.0732847999316,530.0732847999316,530.8551507000811,,,,,,,,,santTest,001,32,Masc,Mex,2024-02-18_12h51.39.739,CatRev1_within,2023.2.3,59.985627362177276,2024-02-18 12h52.15.989326 -0500,
 2:4, 48:64,6,partial,2,images/Ex9.jpg,left,0,0,0,1,0,1,1,1,3,10,58,8,530.8711421000771,,,,,,,,,,,,,,,,,,,,,,,530.8560021000449,1.4,530.8711421000771,532.3018044999335,532.2552829999477,532.2553398001473,532.3018044999335,532.3018044999335,532.3018044999335,0.030903599923476577,533.8083534000907,left,1,1.5146296999882907,None,533.8091826001182,533.8277451000176,533.8228685500101,533.8228685500101,534.0623670001514,534.0623670001514,534.8214134001173,,,,,,,,,santTest,001,32,Masc,Mex,2024-02-18_12h51.39.739,CatRev1_within,2023.2.3,59.985627362177276,2024-02-18 12h52.15.989326 -0500,
 2:4, 48:64,6,partial,2,images/Ex14.jpg,left,0,0,0,1,0,1,1,1,3,11,59,5,534.8377986999694,,,,,,,,,,,,,,,,,,,,,,,534.8222797000781,1.1,534.8377986999694,535.9773226999678,535.9218178000301,535.9218705999665,535.9773226999678,535.9773226999678,535.9773226999678,0.0393072001170367,537.0084975000937,right,0,1.03964879992418,None,537.0094922999851,537.0280251000077,537.0224786501378,537.0224786501378,,,538.021255900152,,,,,,,,,santTest,001,32,Masc,Mex,2024-02-18_12h51.39.739,CatRev1_within,2023.2.3,59.985627362177276,2024-02-18 12h52.15.989326 -0500,
 2:4, 48:64,6,partial,2,images/Ex15.jpg,right,0,0,0,1,0,1,1,1,3,12,60,6,538.0371825001203,,,,,,,,,,,,,,,,,,,,,,,538.0221394000109,1.3,538.0371825001203,539.3779937999789,539.3218334999401,539.3218859999906,539.3779937999789,539.3779937999789,539.3779937999789,0.040976200019940734,540.5745888999663,right,1,1.2010664001572877,None,540.5756564999465,540.5974332999904,540.5887046501041,540.5887046501041,540.8287160999607,540.8287160999607,541.5873255999759,,,,,,,,,santTest,001,32,Masc,Mex,2024-02-18_12h51.39.739,CatRev1_within,2023.2.3,59.985627362177276,2024-02-18 12h52.15.989326 -0500,
 2:4, 48:64,6,partial,2,images/Ex11.jpg,right,0,0,0,1,0,1,1,1,3,13,61,10,541.6038832999766,,,,,,,,,,,,,,,,,,,,,,,541.5885209999979,1.5,541.6038832999766,543.1531964000314,543.088561499957,543.0886349000502,543.1531964000314,543.1531964000314,543.1531964000314,0.051899899961426854,545.6738424999639,right,1,2.529670199844986,None,545.6746628000401,545.693528899923,545.6883688499686,545.6883688499686,545.9087942999322,545.9087942999322,546.6869751000777,,,,,,,,,santTest,001,32,Masc,Mex,2024-02-18_12h51.39.739,CatRev1_within,2023.2.3,59.985627362177276,2024-02-18 12h52.15.989326 -0500,
 2:4, 48:64,6,partial,2,images/Ex9.jpg,left,0,0,0,1,0,1,1,1,3,14,62,0,546.7033484000713,,,,,,,,,,,,,,,,,,,,,,,546.6876201999839,1.1,546.7033484000713,547.8350750999525,547.7876625000499,547.7877156999893,547.8350750999525,547.8350750999525,547.8350750999525,0.03128380002453923,548.7236425001174,right,0,0.8990550998132676,None,548.7244880001526,548.740258899983,548.7382230500691,548.7382230500691,548.9851249000058,548.9851249000058,549.736576900119,,,,,,,,,santTest,001,32,Masc,Mex,2024-02-18_12h51.39.739,CatRev1_within,2023.2.3,59.985627362177276,2024-02-18 12h52.15.989326 -0500,
 2:4, 48:64,6,partial,2,images/Ex13.jpg,left,0,0,0,1,0,1,1,1,3,15,63,4,549.7528480000328,,,,,,,,,,,,,,,,,,,,,,,549.7372542999219,1.2,549.7528480000328,550.9765334001277,550.9375951001421,550.9376374999993,550.9765334001277,550.9765334001277,550.9765334001277,0.02554870001040399,551.8405857000034,right,0,0.8741194999311119,None,551.8414525999688,551.8527599999215,551.8549041499384,551.8549041499384,,,552.8371165001299,552.8527108000126,,,,,,,,santTest,001,32,Masc,Mex,2024-02-18_12h51.39.739,CatRev1_within,2023.2.3,59.985627362177276,2024-02-18 12h52.15.989326 -0500,
 2:4, 48:64,6,partial,2,images/Ex10.jpg,left,0,0,0,1,0,1,1,1,4,0,64,9,552.8527108000126,,,,,,,,,,,,,,,,,,,,,,,552.83778790012,1.0,552.8527108000126,553.8806163999252,553.8369033001363,553.836945899995,553.8806163999252,553.8806163999252,553.8806163999252,0.030274900142103434,555.0085545999464,right,0,1.1382999999914318,None,555.0098892999813,555.0229293000884,555.0214036501013,555.0214036501013,,,556.0193801000714,,,,,,,,,santTest,001,32,Masc,Mex,2024-02-18_12h51.39.739,CatRev1_within,2023.2.3,59.985627362177276,2024-02-18 12h52.15.989326 -0500,
 2:4, 48:64,6,partial,2,images/Ex16.jpg,right,0,0,0,1,0,1,1,1,4,1,65,7,556.0359478001483,,,,,,,,,,,,,,,,,,,,,,,556.0198759001214,1.0,556.0359478001483,557.0609641999472,557.0204032999463,557.0204561999999,557.0609641999472,557.0609641999472,557.0609641999472,0.030040699988603592,558.7408807000611,right,1,1.682487600017339,None,558.7417349000461,558.7611529999413,558.7551903499291,558.7551903499291,558.9906206000596,558.9906206000596,559.7532864001114,,,,,,,,,santTest,001,32,Masc,Mex,2024-02-18_12h51.39.739,CatRev1_within,2023.2.3,59.985627362177276,2024-02-18 12h52.15.989326 -0500,
 2:4, 48:64,6,partial,2,images/Ex13.jpg,left,0,0,0,1,0,1,1,1,4,2,66,12,559.7691772999242,,,,,,,,,,,,,,,,,,,,,,,559.754355299985,1.1,559.7691772999242,560.9135714999866,560.8544477000833,560.8545148000121,560.9135714999866,560.9135714999866,560.9135714999866,0.04320519999600947,562.4233659000602,left,1,1.5145731999073178,None,562.4243364001159,562.4478778000921,562.4376711501275,562.4376711501275,,,563.436061100103,,,,,,,,,santTest,001,32,Masc,Mex,2024-02-18_12h51.39.739,CatRev1_within,2023.2.3,59.985627362177276,2024-02-18 12h52.15.989326 -0500,
 2:4, 48:64,6,partial,2,images/Ex12.jpg,right,0,0,0,1,0,1,1,1,4,3,67,3,563.452493699966,,,,,,,,,,,,,,,,,,,,,,,563.4368364999536,0.7,563.452493699966,564.2041104000527,564.1373081000056,564.1373720001429,564.2041104000527,564.2041104000527,564.2041104000527,0.05252219992689788,565.1227269999217,left,0,0.9201880998443812,None,565.1235265999567,565.1383932000026,565.1374138501008,565.1374138501008,565.4098195000552,565.4098195000552,566.1364237000234,,,,,,,,,santTest,001,32,Masc,Mex,2024-02-18_12h51.39.739,CatRev1_within,2023.2.3,59.985627362177276,2024-02-18 12h52.15.989326 -0500,
 2:4, 48:64,6,partial,2,images/Ex15.jpg,right,0,0,0,1,0,1,1,1,4,4,68,6,566.1525711000431,,,,,,,,,,,,,,,,,,,,,,,566.1375677001197,1.2,566.1525711000431,567.4004295000341,567.3372901999392,567.33736460004,567.4004295000341,567.4004295000341,567.4004295000341,0.05152179999276996,568.4059950001538,right,1,1.009622400160879,None,568.4068180001341,568.4234088000376,568.4204793500714,568.4204793500714,568.6480151999276,568.6480151999276,569.4189549000002,,,,,,,,,santTest,001,32,Masc,Mex,2024-02-18_12h51.39.739,CatRev1_within,2023.2.3,59.985627362177276,2024-02-18 12h52.15.989326 -0500,
 2:4, 48:64,6,partial,2,images/Ex14.jpg,left,0,0,0,1,0,1,1,1,4,5,69,5,569.4354020999745,,,,,,,,,,,,,,,,,,,,,,,569.4198032000568,0.9,569.4354020999745,570.3718733000569,570.3202092000283,570.3202623000834,570.3718733000569,570.3718733000569,570.3718733000569,0.03578260005451739,571.5103142999578,left,1,1.1473026000894606,None,571.511717800051,571.5390401000623,571.5400868000929,571.5400868000929,,,572.5187151001301,,,,,,,,,santTest,001,32,Masc,Mex,2024-02-18_12h51.39.739,CatRev1_within,2023.2.3,59.985627362177276,2024-02-18 12h52.15.989326 -0500,
 2:4, 48:64,6,partial,2,images/Ex13.jpg,left,0,0,0,1,0,1,1,1,4,6,70,4,572.5354158000555,,,,,,,,,,,,,,,,,,,,,,,572.5195991999935,1.4,572.5354158000555,573.9676975000184,573.9198545000982,573.9199087999295,573.9676975000184,573.9676975000184,573.9676975000184,0.031700999941676855,574.8900842999574,left,1,0.920472800033167,None,574.8911121001001,574.9132413000334,574.904313350143,574.904313350143,575.1502731000073,575.1502731000073,575.9026794999372,,,,,,,,,santTest,001,32,Masc,Mex,2024-02-18_12h51.39.739,CatRev1_within,2023.2.3,59.985627362177276,2024-02-18 12h52.15.989326 -0500,
