infCons.started,infCons.stopped,resp_consent.keys,resp_consent.rt,resp_consent.duration,participant,session,Age?,Gender?,Nationality?,date,expName,psychopyVersion,OS,frameRate,instructions.started,instructions.stopped,resp_instructions.keys,resp_instructions.rt,resp_instructions.duration,nextTask.started,nextTask.stopped,ready_task.keys,ready_task.rt,ready_task.duration,fixation.started,ITI,fixation.stopped,stim.started,stim.stopped,response.keys,response.corr,response.rt,response.duration,feedback.started,feedback.stopped,trials.thisRepN,trials.thisTrialN,trials.thisN,trials.thisIndex,trials.ran,task,phase,Exemplars,r_correct,end.started,end.stopped,resp_end.keys,resp_end.rt,resp_end.duration
0.0003,2.0886,space,2.0656,,847649,001,26,Male,Caucasian,2024-02-21_22h44.30.145,CategoryRev1_within,2023.2.3,MacIntel,59.88023952,,,,,,,,,,,,,,,,,,,,,,,,,,,,,,,,,,,
,,,,,847649,001,26,Male,Caucasian,2024-02-21_22h44.30.145,CategoryRev1_within,2023.2.3,MacIntel,59.88023952,2.0889,27.7569,space,25.6449,,,,,,,,,,,,,,,,,,,,,,,,,,,,,,,
,,,,,847649,001,26,Male,Caucasian,2024-02-21_22h44.30.145,CategoryRev1_within,2023.2.3,MacIntel,59.88023952,,,,,,27.7617,32.2246,space,4.4416,,32.2291,1.2,33.4246,33.4247,35.1573,right,1,1.726,,35.1576,36.1582,0,0,0,5,1,partial,1,images/Ex14.jpg,right,,,,,
,,,,,847649,001,26,Male,Caucasian,2024-02-21_22h44.30.145,CategoryRev1_within,2023.2.3,MacIntel,59.88023952,,,,,,,,,,,36.1588,1.1,37.2577,37.2578,38.5418,right,0,1.2715,,38.542,39.5411,0,1,1,2,1,partial,1,images/Ex11.jpg,left,,,,,
,,,,,847649,001,26,Male,Caucasian,2024-02-21_22h44.30.145,CategoryRev1_within,2023.2.3,MacIntel,59.88023952,,,,,,,,,,,39.5416,1.4,40.9445,40.9445,41.9256,left,1,0.9748,,41.9256,42.9253,0,2,2,11,1,partial,1,images/Ex12.jpg,left,,,,,
,,,,,847649,001,26,Male,Caucasian,2024-02-21_22h44.30.145,CategoryRev1_within,2023.2.3,MacIntel,59.88023952,,,,,,,,,,,42.9256,1,43.9252,43.9253,45.2585,right,0,1.3299,,45.2585,46.2581,0,3,3,8,1,partial,1,images/Ex9.jpg,left,,,,,
,,,,,847649,001,26,Male,Caucasian,2024-02-21_22h44.30.145,CategoryRev1_within,2023.2.3,MacIntel,59.88023952,,,,,,,,,,,46.2584,1.4,47.6577,47.6578,49.0263,right,0,1.356,,49.0263,50.0251,0,4,4,3,1,partial,1,images/Ex12.jpg,left,,,,,
,,,,,847649,001,26,Male,Caucasian,2024-02-21_22h44.30.145,CategoryRev1_within,2023.2.3,MacIntel,59.88023952,,,,,,,,,,,50.0254,1.3,51.3253,51.3254,52.5932,left,0,1.2593,,52.5932,53.592,0,5,5,6,1,partial,1,images/Ex15.jpg,right,,,,,
,,,,,847649,001,26,Male,Caucasian,2024-02-21_22h44.30.145,CategoryRev1_within,2023.2.3,MacIntel,59.88023952,,,,,,,,,,,53.5923,1.1,54.6924,54.6924,56.0601,right,0,1.3638,,56.0602,57.0603,0,6,6,10,1,partial,1,images/Ex11.jpg,left,,,,,
,,,,,847649,001,26,Male,Caucasian,2024-02-21_22h44.30.145,CategoryRev1_within,2023.2.3,MacIntel,59.88023952,,,,,,,,,,,57.0605,1.3,58.3603,58.3604,59.5432,left,0,1.1787,,59.5433,60.5438,0,7,7,4,1,partial,1,images/Ex13.jpg,right,,,,,
,,,,,847649,001,26,Male,Caucasian,2024-02-21_22h44.30.145,CategoryRev1_within,2023.2.3,MacIntel,59.88023952,,,,,,,,,,,60.544,1.4,61.9425,61.9425,66.2427,right,0,4.2956,,66.2427,67.2432,0,8,8,1,1,partial,1,images/Ex10.jpg,left,,,,,
,,,,,847649,001,26,Male,Caucasian,2024-02-21_22h44.30.145,CategoryRev1_within,2023.2.3,MacIntel,59.88023952,,,,,,,,,,,67.2552,1.1,68.3439,68.344,69.7281,left,0,1.3722,,69.7282,70.7274,0,9,9,15,1,partial,1,images/Ex16.jpg,right,,,,,
,,,,,847649,001,26,Male,Caucasian,2024-02-21_22h44.30.145,CategoryRev1_within,2023.2.3,MacIntel,59.88023952,,,,,,,,,,,70.7427,1.3,72.0436,72.0436,73.8108,left,1,1.7604,,73.8108,74.8111,0,10,10,9,1,partial,1,images/Ex10.jpg,left,,,,,
,,,,,847649,001,26,Male,Caucasian,2024-02-21_22h44.30.145,CategoryRev1_within,2023.2.3,MacIntel,59.88023952,,,,,,,,,,,74.8266,0.9,75.7278,75.7279,76.9118,right,1,1.1783,,76.9118,77.9115,0,11,11,14,1,partial,1,images/Ex15.jpg,right,,,,,
,,,,,847649,001,26,Male,Caucasian,2024-02-21_22h44.30.145,CategoryRev1_within,2023.2.3,MacIntel,59.88023952,,,,,,,,,,,77.9119,0.7,78.6109,78.6109,79.7953,left,0,1.1747,,79.7954,80.7955,0,12,12,13,1,partial,1,images/Ex14.jpg,right,,,,,
,,,,,847649,001,26,Male,Caucasian,2024-02-21_22h44.30.145,CategoryRev1_within,2023.2.3,MacIntel,59.88023952,,,,,,,,,,,80.808,0.9,81.7103,81.7104,83.0291,left,1,1.3156,,83.0292,84.0283,0,13,13,0,1,partial,1,images/Ex9.jpg,left,,,,,
,,,,,847649,001,26,Male,Caucasian,2024-02-21_22h44.30.145,CategoryRev1_within,2023.2.3,MacIntel,59.88023952,,,,,,,,,,,84.0288,1.3,85.3289,85.3291,86.6628,right,1,1.3304,,86.6629,87.6619,0,14,14,12,1,partial,1,images/Ex13.jpg,right,,,,,
,,,,,847649,001,26,Male,Caucasian,2024-02-21_22h44.30.145,CategoryRev1_within,2023.2.3,MacIntel,59.88023952,,,,,,,,,,,87.6626,0.9,88.5625,88.5625,89.4292,left,0,0.8638,,89.4293,90.428,0,15,15,7,1,partial,1,images/Ex16.jpg,right,,,,,
,,,,,847649,001,26,Male,Caucasian,2024-02-21_22h44.30.145,CategoryRev1_within,2023.2.3,MacIntel,59.88023952,,,,,,,,,,,90.4288,1.3,91.7282,91.7283,92.8643,right,0,1.1326,,92.8643,93.8624,1,0,16,8,1,partial,1,images/Ex9.jpg,left,,,,,
,,,,,847649,001,26,Male,Caucasian,2024-02-21_22h44.30.145,CategoryRev1_within,2023.2.3,MacIntel,59.88023952,,,,,,,,,,,93.863,1.3,95.1624,95.1624,96.2953,right,0,1.1241,,96.2953,97.2953,1,1,17,1,1,partial,1,images/Ex10.jpg,left,,,,,
,,,,,847649,001,26,Male,Caucasian,2024-02-21_22h44.30.145,CategoryRev1_within,2023.2.3,MacIntel,59.88023952,,,,,,,,,,,97.296,1,98.296,98.2961,99.5963,right,1,1.2968,,99.5964,100.5962,1,2,18,7,1,partial,1,images/Ex16.jpg,right,,,,,
,,,,,847649,001,26,Male,Caucasian,2024-02-21_22h44.30.145,CategoryRev1_within,2023.2.3,MacIntel,59.88023952,,,,,,,,,,,100.5968,0.9,101.4963,101.4963,102.3302,left,1,0.8284,,102.3302,103.3295,1,3,19,10,1,partial,1,images/Ex11.jpg,left,,,,,
,,,,,847649,001,26,Male,Caucasian,2024-02-21_22h44.30.145,CategoryRev1_within,2023.2.3,MacIntel,59.88023952,,,,,,,,,,,103.3299,1.5,104.8302,104.8303,105.8133,left,0,0.9783,,105.8134,106.8126,1,4,20,4,1,partial,1,images/Ex13.jpg,right,,,,,
,,,,,847649,001,26,Male,Caucasian,2024-02-21_22h44.30.145,CategoryRev1_within,2023.2.3,MacIntel,59.88023952,,,,,,,,,,,106.8132,1.3,108.1133,108.1133,109.5637,right,0,1.4447,,109.5637,110.5635,1,5,21,2,1,partial,1,images/Ex11.jpg,left,,,,,
,,,,,847649,001,26,Male,Caucasian,2024-02-21_22h44.30.145,CategoryRev1_within,2023.2.3,MacIntel,59.88023952,,,,,,,,,,,110.5641,1.2,111.7635,111.7636,113.3465,right,0,1.577,,113.3465,114.3472,1,6,22,11,1,partial,1,images/Ex12.jpg,left,,,,,
,,,,,847649,001,26,Male,Caucasian,2024-02-21_22h44.30.145,CategoryRev1_within,2023.2.3,MacIntel,59.88023952,,,,,,,,,,,114.3477,0.6,114.9475,114.9475,116.7808,right,1,1.8268,,116.7809,117.7809,1,7,23,5,1,partial,1,images/Ex14.jpg,right,,,,,
,,,,,847649,001,26,Male,Caucasian,2024-02-21_22h44.30.145,CategoryRev1_within,2023.2.3,MacIntel,59.88023952,,,,,,,,,,,117.7813,0.8,118.5803,118.5804,119.7473,left,0,1.1611,,119.7474,120.7475,1,8,24,12,1,partial,1,images/Ex13.jpg,right,,,,,
,,,,,847649,001,26,Male,Caucasian,2024-02-21_22h44.30.145,CategoryRev1_within,2023.2.3,MacIntel,59.88023952,,,,,,,,,,,120.7626,1.1,121.8642,121.8643,122.9309,left,1,1.0555,,122.9309,123.931,1,9,25,3,1,partial,1,images/Ex12.jpg,left,,,,,
,,,,,847649,001,26,Male,Caucasian,2024-02-21_22h44.30.145,CategoryRev1_within,2023.2.3,MacIntel,59.88023952,,,,,,,,,,,123.9314,1.2,125.1304,125.1304,127.2647,left,0,2.1331,,127.2647,128.2647,1,10,26,13,1,partial,1,images/Ex14.jpg,right,,,,,
,,,,,847649,001,26,Male,Caucasian,2024-02-21_22h44.30.145,CategoryRev1_within,2023.2.3,MacIntel,59.88023952,,,,,,,,,,,128.2652,0.5,128.7641,128.7641,130.0827,right,1,1.3145,,130.0827,131.0815,1,11,27,14,1,partial,1,images/Ex15.jpg,right,,,,,
,,,,,847649,001,26,Male,Caucasian,2024-02-21_22h44.30.145,CategoryRev1_within,2023.2.3,MacIntel,59.88023952,,,,,,,,,,,131.082,0.8,131.8815,131.8815,132.8143,right,1,0.9246,,132.8144,133.8144,1,12,28,6,1,partial,1,images/Ex15.jpg,right,,,,,
,,,,,847649,001,26,Male,Caucasian,2024-02-21_22h44.30.145,CategoryRev1_within,2023.2.3,MacIntel,59.88023952,,,,,,,,,,,133.8146,1,134.8138,134.8138,135.7819,right,1,0.962,,135.7819,136.7817,1,13,29,15,1,partial,1,images/Ex16.jpg,right,,,,,
,,,,,847649,001,26,Male,Caucasian,2024-02-21_22h44.30.145,CategoryRev1_within,2023.2.3,MacIntel,59.88023952,,,,,,,,,,,136.7821,1.5,138.2819,138.2819,139.7317,left,1,1.4473,,139.7318,140.7321,1,14,30,9,1,partial,1,images/Ex10.jpg,left,,,,,
,,,,,847649,001,26,Male,Caucasian,2024-02-21_22h44.30.145,CategoryRev1_within,2023.2.3,MacIntel,59.88023952,,,,,,,,,,,140.7326,1.1,141.8322,141.8323,142.7149,right,0,0.8707,,142.7149,143.7154,1,15,31,0,1,partial,1,images/Ex9.jpg,left,,,,,
,,,,,847649,001,26,Male,Caucasian,2024-02-21_22h44.30.145,CategoryRev1_within,2023.2.3,MacIntel,59.88023952,,,,,,,,,,,143.7159,1.2,144.9146,144.9146,146.1329,right,0,1.2099,,146.1329,147.132,2,0,32,2,1,partial,1,images/Ex11.jpg,left,,,,,
,,,,,847649,001,26,Male,Caucasian,2024-02-21_22h44.30.145,CategoryRev1_within,2023.2.3,MacIntel,59.88023952,,,,,,,,,,,147.1323,1.4,148.5317,148.5317,149.55,right,1,1.0122,,149.5501,150.5483,2,1,33,13,1,partial,1,images/Ex14.jpg,right,,,,,
,,,,,847649,001,26,Male,Caucasian,2024-02-21_22h44.30.145,CategoryRev1_within,2023.2.3,MacIntel,59.88023952,,,,,,,,,,,150.5488,0.9,151.4488,151.4488,152.4187,left,1,0.9674,,152.4187,153.4153,2,2,34,3,1,partial,1,images/Ex12.jpg,left,,,,,
,,,,,847649,001,26,Male,Caucasian,2024-02-21_22h44.30.145,CategoryRev1_within,2023.2.3,MacIntel,59.88023952,,,,,,,,,,,153.4157,1.2,154.6157,154.6158,156.1155,right,0,1.4894,,156.1155,157.1164,2,3,35,0,1,partial,1,images/Ex9.jpg,left,,,,,
,,,,,847649,001,26,Male,Caucasian,2024-02-21_22h44.30.145,CategoryRev1_within,2023.2.3,MacIntel,59.88023952,,,,,,,,,,,157.1277,0.9,158.0159,158.016,159.784,right,0,1.7575,,159.7841,160.7829,2,4,36,8,1,partial,1,images/Ex9.jpg,left,,,,,
,,,,,847649,001,26,Male,Caucasian,2024-02-21_22h44.30.145,CategoryRev1_within,2023.2.3,MacIntel,59.88023952,,,,,,,,,,,160.7944,1.2,161.9842,161.9842,162.8339,left,0,0.8439,,162.8339,163.8335,2,5,37,5,1,partial,1,images/Ex14.jpg,right,,,,,
,,,,,847649,001,26,Male,Caucasian,2024-02-21_22h44.30.145,CategoryRev1_within,2023.2.3,MacIntel,59.88023952,,,,,,,,,,,163.8339,1.2,165.0326,165.0327,166.5998,left,0,1.5619,,166.5999,167.5996,2,6,38,14,1,partial,1,images/Ex15.jpg,right,,,,,
,,,,,847649,001,26,Male,Caucasian,2024-02-21_22h44.30.145,CategoryRev1_within,2023.2.3,MacIntel,59.88023952,,,,,,,,,,,167.5999,1,168.6008,168.6008,170.0669,right,1,1.4607,,170.067,171.0674,2,7,39,15,1,partial,1,images/Ex16.jpg,right,,,,,
,,,,,847649,001,26,Male,Caucasian,2024-02-21_22h44.30.145,CategoryRev1_within,2023.2.3,MacIntel,59.88023952,,,,,,,,,,,171.0792,0.7,171.767,171.767,174.0515,right,1,2.2782,,174.0516,175.05,2,8,40,6,1,partial,1,images/Ex15.jpg,right,,,,,
,,,,,847649,001,26,Male,Caucasian,2024-02-21_22h44.30.145,CategoryRev1_within,2023.2.3,MacIntel,59.88023952,,,,,,,,,,,175.0607,1.4,176.4506,176.4506,178.2849,left,0,1.8221,,178.2849,179.2852,2,9,41,4,1,partial,1,images/Ex13.jpg,right,,,,,
,,,,,847649,001,26,Male,Caucasian,2024-02-21_22h44.30.145,CategoryRev1_within,2023.2.3,MacIntel,59.88023952,,,,,,,,,,,179.2973,1.3,180.6016,180.6017,182.0017,right,0,1.3936,,182.0017,183.0015,2,10,42,9,1,partial,1,images/Ex10.jpg,left,,,,,
,,,,,847649,001,26,Male,Caucasian,2024-02-21_22h44.30.145,CategoryRev1_within,2023.2.3,MacIntel,59.88023952,,,,,,,,,,,183.0123,0.9,183.9014,183.9015,185.502,left,0,1.5977,,185.502,186.5019,2,11,43,12,1,partial,1,images/Ex13.jpg,right,,,,,
,,,,,847649,001,26,Male,Caucasian,2024-02-21_22h44.30.145,CategoryRev1_within,2023.2.3,MacIntel,59.88023952,,,,,,,,,,,186.5022,0.9,187.4016,187.4017,189.1195,left,0,1.7077,,189.1196,190.1196,2,12,44,7,1,partial,1,images/Ex16.jpg,right,,,,,
,,,,,847649,001,26,Male,Caucasian,2024-02-21_22h44.30.145,CategoryRev1_within,2023.2.3,MacIntel,59.88023952,,,,,,,,,,,190.12,1,191.1192,191.1192,195.1353,right,0,4.0118,,195.1353,196.1355,2,13,45,1,1,partial,1,images/Ex10.jpg,left,,,,,
,,,,,847649,001,26,Male,Caucasian,2024-02-21_22h44.30.145,CategoryRev1_within,2023.2.3,MacIntel,59.88023952,,,,,,,,,,,196.1479,1.3,197.4364,197.4364,198.6857,left,1,1.239,,198.6857,199.6857,2,14,46,10,1,partial,1,images/Ex11.jpg,left,,,,,
,,,,,847649,001,26,Male,Caucasian,2024-02-21_22h44.30.145,CategoryRev1_within,2023.2.3,MacIntel,59.88023952,,,,,,,,,,,199.686,1,200.6868,200.687,203.5859,left,1,2.8878,,203.5859,204.5869,2,15,47,11,1,partial,1,images/Ex12.jpg,left,,,,,
,,,,,847649,001,26,Male,Caucasian,2024-02-21_22h44.30.145,CategoryRev1_within,2023.2.3,MacIntel,59.88023952,,,,,,,,,,,204.5983,1,205.587,205.587,206.3708,right,0,0.7726,,206.3709,207.3691,3,0,48,1,1,partial,1,images/Ex10.jpg,left,,,,,
,,,,,847649,001,26,Male,Caucasian,2024-02-21_22h44.30.145,CategoryRev1_within,2023.2.3,MacIntel,59.88023952,,,,,,,,,,,207.3696,1.2,208.5706,208.5707,209.8547,left,0,1.2743,,209.8547,210.8535,3,1,49,13,1,partial,1,images/Ex14.jpg,right,,,,,
,,,,,847649,001,26,Male,Caucasian,2024-02-21_22h44.30.145,CategoryRev1_within,2023.2.3,MacIntel,59.88023952,,,,,,,,,,,210.8645,0.8,211.6531,211.6532,213.0702,left,0,1.4109,,213.0702,214.0704,3,2,50,12,1,partial,1,images/Ex13.jpg,right,,,,,
,,,,,847649,001,26,Male,Caucasian,2024-02-21_22h44.30.145,CategoryRev1_within,2023.2.3,MacIntel,59.88023952,,,,,,,,,,,214.0707,0.9,214.9707,214.9707,217.7876,right,0,2.8039,,217.7876,218.7877,3,3,51,10,1,partial,1,images/Ex11.jpg,left,,,,,
,,,,,847649,001,26,Male,Caucasian,2024-02-21_22h44.30.145,CategoryRev1_within,2023.2.3,MacIntel,59.88023952,,,,,,,,,,,218.7884,0.8,219.5877,219.5877,221.4702,left,0,1.8727,,221.4703,222.4711,3,4,52,15,1,partial,1,images/Ex16.jpg,right,,,,,
,,,,,847649,001,26,Male,Caucasian,2024-02-21_22h44.30.145,CategoryRev1_within,2023.2.3,MacIntel,59.88023952,,,,,,,,,,,222.4715,0.9,223.3711,223.3711,224.4207,right,0,1.0441,,224.4207,225.4213,3,5,53,9,1,partial,1,images/Ex10.jpg,left,,,,,
,,,,,847649,001,26,Male,Caucasian,2024-02-21_22h44.30.145,CategoryRev1_within,2023.2.3,MacIntel,59.88023952,,,,,,,,,,,225.4216,0.8,226.2213,226.2213,227.4382,right,1,1.2134,,227.4383,228.4382,3,6,54,14,1,partial,1,images/Ex15.jpg,right,,,,,
,,,,,847649,001,26,Male,Caucasian,2024-02-21_22h44.30.145,CategoryRev1_within,2023.2.3,MacIntel,59.88023952,,,,,,,,,,,228.4386,0.8,229.2383,229.2383,230.0221,right,1,0.7821,,230.0221,231.0219,3,7,55,6,1,partial,1,images/Ex15.jpg,right,,,,,
,,,,,847649,001,26,Male,Caucasian,2024-02-21_22h44.30.145,CategoryRev1_within,2023.2.3,MacIntel,59.88023952,,,,,,,,,,,231.0225,1.2,232.2205,232.2205,233.3731,right,0,1.1503,,233.3731,234.3721,3,8,56,2,1,partial,1,images/Ex11.jpg,left,,,,,
,,,,,847649,001,26,Male,Caucasian,2024-02-21_22h44.30.145,CategoryRev1_within,2023.2.3,MacIntel,59.88023952,,,,,,,,,,,234.3727,1.1,235.4719,235.4719,237.6388,right,0,2.1615,,237.6388,238.6379,3,9,57,11,1,partial,1,images/Ex12.jpg,left,,,,,
,,,,,847649,001,26,Male,Caucasian,2024-02-21_22h44.30.145,CategoryRev1_within,2023.2.3,MacIntel,59.88023952,,,,,,,,,,,238.6386,1.1,239.7389,239.739,240.8383,right,1,1.0879,,240.8384,241.8388,3,10,58,7,1,partial,1,images/Ex16.jpg,right,,,,,
,,,,,847649,001,26,Male,Caucasian,2024-02-21_22h44.30.145,CategoryRev1_within,2023.2.3,MacIntel,59.88023952,,,,,,,,,,,241.8393,0.6,242.4397,242.4398,243.2384,right,1,0.7939,,243.2385,244.2393,3,11,59,5,1,partial,1,images/Ex14.jpg,right,,,,,
,,,,,847649,001,26,Male,Caucasian,2024-02-21_22h44.30.145,CategoryRev1_within,2023.2.3,MacIntel,59.88023952,,,,,,,,,,,244.2398,0.8,245.0392,245.0392,246.0743,right,0,1.0324,,246.0743,247.0728,3,12,60,0,1,partial,1,images/Ex9.jpg,left,,,,,
,,,,,847649,001,26,Male,Caucasian,2024-02-21_22h44.30.145,CategoryRev1_within,2023.2.3,MacIntel,59.88023952,,,,,,,,,,,247.0731,0.7,247.7717,247.7718,249.1901,left,1,1.4132,,249.1901,250.1896,3,13,61,8,1,partial,1,images/Ex9.jpg,left,,,,,
,,,,,847649,001,26,Male,Caucasian,2024-02-21_22h44.30.145,CategoryRev1_within,2023.2.3,MacIntel,59.88023952,,,,,,,,,,,250.1901,0.5,250.6897,250.6897,252.0567,right,0,1.3631,,252.0568,253.0567,3,14,62,3,1,partial,1,images/Ex12.jpg,left,,,,,
,,,,,847649,001,26,Male,Caucasian,2024-02-21_22h44.30.145,CategoryRev1_within,2023.2.3,MacIntel,59.88023952,,,,,,,,,,,253.0677,1.2,254.2738,254.2738,256.4402,right,1,2.1599,,256.4403,257.4396,3,15,63,4,1,partial,1,images/Ex13.jpg,right,,,,,
,,,,,847649,001,26,Male,Caucasian,2024-02-21_22h44.30.145,CategoryRev1_within,2023.2.3,MacIntel,59.88023952,,,,,,,,,,,257.451,1,258.4403,258.4404,259.1922,right,1,0.7482,,259.1922,260.1903,4,0,64,4,1,partial,1,images/Ex13.jpg,right,,,,,
,,,,,847649,001,26,Male,Caucasian,2024-02-21_22h44.30.145,CategoryRev1_within,2023.2.3,MacIntel,59.88023952,,,,,,,,,,,260.1906,1,261.1903,261.1903,262.575,left,1,1.3751,,262.575,263.5733,4,1,65,2,1,partial,1,images/Ex11.jpg,left,,,,,
,,,,,847649,001,26,Male,Caucasian,2024-02-21_22h44.30.145,CategoryRev1_within,2023.2.3,MacIntel,59.88023952,,,,,,,,,,,263.5739,1,264.5741,264.5741,265.3907,left,1,0.8061,,265.3908,266.3913,4,2,66,10,1,partial,1,images/Ex11.jpg,left,,,,,
,,,,,847649,001,26,Male,Caucasian,2024-02-21_22h44.30.145,CategoryRev1_within,2023.2.3,MacIntel,59.88023952,,,,,,,,,,,266.3916,0.5,266.8908,266.8909,267.9737,right,1,1.0802,,267.9737,268.9743,4,3,67,7,1,partial,1,images/Ex16.jpg,right,,,,,
,,,,,847649,001,26,Male,Caucasian,2024-02-21_22h44.30.145,CategoryRev1_within,2023.2.3,MacIntel,59.88023952,,,,,,,,,,,268.975,1.3,270.2753,270.2753,270.9907,right,1,0.7101,,270.9907,271.9902,4,4,68,15,1,partial,1,images/Ex16.jpg,right,,,,,
,,,,,847649,001,26,Male,Caucasian,2024-02-21_22h44.30.145,CategoryRev1_within,2023.2.3,MacIntel,59.88023952,,,,,,,,,,,271.9908,1,272.9916,272.9917,275.6743,right,0,2.6804,,275.6744,276.6751,4,5,69,0,1,partial,1,images/Ex9.jpg,left,,,,,
,,,,,847649,001,26,Male,Caucasian,2024-02-21_22h44.30.145,CategoryRev1_within,2023.2.3,MacIntel,59.88023952,,,,,,,,,,,276.6758,1.4,278.0742,278.0742,280.0247,right,0,1.947,,280.0247,281.0253,4,6,70,11,1,partial,1,images/Ex12.jpg,left,,,,,
,,,,,847649,001,26,Male,Caucasian,2024-02-21_22h44.30.145,CategoryRev1_within,2023.2.3,MacIntel,59.88023952,,,,,,,,,,,281.0403,0.9,281.9421,281.9422,282.7749,left,1,0.8238,,282.7751,283.7744,4,7,71,8,1,partial,1,images/Ex9.jpg,left,,,,,
,,,,,847649,001,26,Male,Caucasian,2024-02-21_22h44.30.145,CategoryRev1_within,2023.2.3,MacIntel,59.88023952,,,,,,,,,,,283.7747,0.6,284.3755,284.3755,286.459,left,1,2.0778,,286.459,287.4584,4,8,72,9,1,partial,1,images/Ex10.jpg,left,,,,,
,,,,,847649,001,26,Male,Caucasian,2024-02-21_22h44.30.145,CategoryRev1_within,2023.2.3,MacIntel,59.88023952,,,,,,,,,,,287.4698,1.4,288.8578,288.8578,289.6273,left,1,0.7649,,289.6273,290.6247,4,9,73,1,1,partial,1,images/Ex10.jpg,left,,,,,
,,,,,847649,001,26,Male,Caucasian,2024-02-21_22h44.30.145,CategoryRev1_within,2023.2.3,MacIntel,59.88023952,,,,,,,,,,,290.6253,0.6,291.2247,291.2247,293.5592,left,1,2.3267,,293.5593,294.5583,4,10,74,3,1,partial,1,images/Ex12.jpg,left,,,,,
,,,,,847649,001,26,Male,Caucasian,2024-02-21_22h44.30.145,CategoryRev1_within,2023.2.3,MacIntel,59.88023952,,,,,,,,,,,294.5587,0.9,295.4583,295.4584,296.6431,left,0,1.1738,,296.6431,297.6427,4,11,75,14,1,partial,1,images/Ex15.jpg,right,,,,,
,,,,,847649,001,26,Male,Caucasian,2024-02-21_22h44.30.145,CategoryRev1_within,2023.2.3,MacIntel,59.88023952,,,,,,,,,,,297.6432,1.4,299.0429,299.0429,300.7087,left,0,1.6556,,300.7088,301.709,4,12,76,13,1,partial,1,images/Ex14.jpg,right,,,,,
,,,,,847649,001,26,Male,Caucasian,2024-02-21_22h44.30.145,CategoryRev1_within,2023.2.3,MacIntel,59.88023952,,,,,,,,,,,301.7093,0.8,302.5105,302.5105,304.5592,right,1,2.045,,304.5593,305.56,4,13,77,12,1,partial,1,images/Ex13.jpg,right,,,,,
,,,,,847649,001,26,Male,Caucasian,2024-02-21_22h44.30.145,CategoryRev1_within,2023.2.3,MacIntel,59.88023952,,,,,,,,,,,305.571,1.3,306.8592,306.8592,308.1607,right,1,1.2908,,308.1607,309.1593,4,14,78,5,1,partial,1,images/Ex14.jpg,right,,,,,
,,,,,847649,001,26,Male,Caucasian,2024-02-21_22h44.30.145,CategoryRev1_within,2023.2.3,MacIntel,59.88023952,,,,,,,,,,,309.1598,1.4,310.5602,310.5602,311.8768,left,0,1.3041,,311.8769,312.8763,4,15,79,6,1,partial,1,images/Ex15.jpg,right,,,,,
,,,,,847649,001,26,Male,Caucasian,2024-02-21_22h44.30.145,CategoryRev1_within,2023.2.3,MacIntel,59.88023952,,,,,,,,,,,312.8865,0.7,313.5773,313.5774,314.8445,right,0,1.2612,,314.8446,315.844,5,0,80,8,1,partial,1,images/Ex9.jpg,left,,,,,
,,,,,847649,001,26,Male,Caucasian,2024-02-21_22h44.30.145,CategoryRev1_within,2023.2.3,MacIntel,59.88023952,,,,,,,,,,,315.8444,1,316.8447,316.8448,317.9616,right,0,1.1066,,317.9616,318.96,5,1,81,3,1,partial,1,images/Ex12.jpg,left,,,,,
,,,,,847649,001,26,Male,Caucasian,2024-02-21_22h44.30.145,CategoryRev1_within,2023.2.3,MacIntel,59.88023952,,,,,,,,,,,318.9704,1.3,320.26,320.26,324.1447,right,1,3.8826,,324.1447,325.145,5,2,82,6,1,partial,1,images/Ex15.jpg,right,,,,,
,,,,,847649,001,26,Male,Caucasian,2024-02-21_22h44.30.145,CategoryRev1_within,2023.2.3,MacIntel,59.88023952,,,,,,,,,,,325.1567,0.7,325.8449,325.8449,326.8944,right,1,1.0462,,326.8944,327.8951,5,3,83,4,1,partial,1,images/Ex13.jpg,right,,,,,
,,,,,847649,001,26,Male,Caucasian,2024-02-21_22h44.30.145,CategoryRev1_within,2023.2.3,MacIntel,59.88023952,,,,,,,,,,,327.8956,0.8,328.6954,328.6955,329.3451,right,1,0.6476,,329.3451,330.3454,5,4,84,12,1,partial,1,images/Ex13.jpg,right,,,,,
,,,,,847649,001,26,Male,Caucasian,2024-02-21_22h44.30.145,CategoryRev1_within,2023.2.3,MacIntel,59.88023952,,,,,,,,,,,330.3459,1.3,331.6454,331.6454,332.7288,left,1,1.0808,,332.7289,333.7288,5,5,85,0,1,partial,1,images/Ex9.jpg,left,,,,,
,,,,,847649,001,26,Male,Caucasian,2024-02-21_22h44.30.145,CategoryRev1_within,2023.2.3,MacIntel,59.88023952,,,,,,,,,,,333.7292,1.1,334.8296,334.8297,335.6627,right,1,0.8268,,335.6628,336.6625,5,6,86,7,1,partial,1,images/Ex16.jpg,right,,,,,
,,,,,847649,001,26,Male,Caucasian,2024-02-21_22h44.30.145,CategoryRev1_within,2023.2.3,MacIntel,59.88023952,,,,,,,,,,,336.6632,1,337.6622,337.6623,338.6134,right,1,0.9452,,338.6138,339.613,5,7,87,5,1,partial,1,images/Ex14.jpg,right,,,,,
,,,,,847649,001,26,Male,Caucasian,2024-02-21_22h44.30.145,CategoryRev1_within,2023.2.3,MacIntel,59.88023952,,,,,,,,,,,339.6135,0.7,340.3127,340.3127,340.9794,right,1,0.6577,,340.9795,341.9795,5,8,88,13,1,partial,1,images/Ex14.jpg,right,,,,,
,,,,,847649,001,26,Male,Caucasian,2024-02-21_22h44.30.145,CategoryRev1_within,2023.2.3,MacIntel,59.88023952,,,,,,,,,,,341.9798,0.6,342.5793,342.5793,343.3457,right,1,0.7594,,343.3458,344.347,5,9,89,15,1,partial,1,images/Ex16.jpg,right,,,,,
,,,,,847649,001,26,Male,Caucasian,2024-02-21_22h44.30.145,CategoryRev1_within,2023.2.3,MacIntel,59.88023952,,,,,,,,,,,344.3474,0.9,345.2467,345.2468,346.6141,right,0,1.3609,,346.6141,347.6122,5,10,90,1,1,partial,1,images/Ex10.jpg,left,,,,,
,,,,,847649,001,26,Male,Caucasian,2024-02-21_22h44.30.145,CategoryRev1_within,2023.2.3,MacIntel,59.88023952,,,,,,,,,,,347.6125,0.9,348.5133,348.5134,349.5483,left,1,1.0315,,349.5483,350.5457,5,11,91,2,1,partial,1,images/Ex11.jpg,left,,,,,
,,,,,847649,001,26,Male,Caucasian,2024-02-21_22h44.30.145,CategoryRev1_within,2023.2.3,MacIntel,59.88023952,,,,,,,,,,,350.5463,1.3,351.8468,351.8469,352.7993,right,0,0.9492,,352.7993,353.797,5,12,92,11,1,partial,1,images/Ex12.jpg,left,,,,,
,,,,,847649,001,26,Male,Caucasian,2024-02-21_22h44.30.145,CategoryRev1_within,2023.2.3,MacIntel,59.88023952,,,,,,,,,,,353.7976,1,354.7971,354.7971,355.9828,left,1,1.1813,,355.9828,356.9813,5,13,93,10,1,partial,1,images/Ex11.jpg,left,,,,,
,,,,,847649,001,26,Male,Caucasian,2024-02-21_22h44.30.145,CategoryRev1_within,2023.2.3,MacIntel,59.88023952,,,,,,,,,,,356.9962,1.4,358.398,358.3981,360.2319,right,1,1.8221,,360.2319,361.2308,5,14,94,14,1,partial,1,images/Ex15.jpg,right,,,,,
,,,,,847649,001,26,Male,Caucasian,2024-02-21_22h44.30.145,CategoryRev1_within,2023.2.3,MacIntel,59.88023952,,,,,,,,,,,361.2459,1.1,362.3477,362.3477,363.4818,right,0,1.1277,,363.482,364.4814,5,15,95,9,1,partial,1,images/Ex10.jpg,left,,,,,
,,,,,847649,001,26,Male,Caucasian,2024-02-21_22h44.30.145,CategoryRev1_within,2023.2.3,MacIntel,59.88023952,,,,,,,,,,,364.4924,1,365.4812,365.4812,366.4987,right,0,1.015,,366.4988,367.4979,0,0,0,6,1,partial,2,images/Ex15.jpg,left,,,,,
,,,,,847649,001,26,Male,Caucasian,2024-02-21_22h44.30.145,CategoryRev1_within,2023.2.3,MacIntel,59.88023952,,,,,,,,,,,367.4985,0.7,368.198,368.198,369.0982,right,1,0.8952,,369.0982,370.0982,0,1,1,13,1,partial,2,images/Ex14.jpg,right,,,,,
,,,,,847649,001,26,Male,Caucasian,2024-02-21_22h44.30.145,CategoryRev1_within,2023.2.3,MacIntel,59.88023952,,,,,,,,,,,370.0987,1.2,371.2982,371.2983,372.2005,left,1,0.899,,372.2005,373.1983,0,2,2,10,1,partial,2,images/Ex11.jpg,left,,,,,
,,,,,847649,001,26,Male,Caucasian,2024-02-21_22h44.30.145,CategoryRev1_within,2023.2.3,MacIntel,59.88023952,,,,,,,,,,,373.1989,1,374.1993,374.1994,374.9335,right,0,0.7309,,374.9335,375.9323,0,3,3,15,1,partial,2,images/Ex16.jpg,left,,,,,
,,,,,847649,001,26,Male,Caucasian,2024-02-21_22h44.30.145,CategoryRev1_within,2023.2.3,MacIntel,59.88023952,,,,,,,,,,,375.9329,1.2,377.1319,377.1319,378.016,left,0,0.8804,,378.016,379.0154,0,4,4,9,1,partial,2,images/Ex10.jpg,right,,,,,
,,,,,847649,001,26,Male,Caucasian,2024-02-21_22h44.30.145,CategoryRev1_within,2023.2.3,MacIntel,59.88023952,,,,,,,,,,,379.016,1,380.0156,380.0157,381.1655,right,1,1.1428,,381.1655,382.1655,0,5,5,12,1,partial,2,images/Ex13.jpg,right,,,,,
,,,,,847649,001,26,Male,Caucasian,2024-02-21_22h44.30.145,CategoryRev1_within,2023.2.3,MacIntel,59.88023952,,,,,,,,,,,382.1659,0.6,382.7645,382.7645,383.6658,left,0,0.89,,383.6659,384.6655,0,6,6,8,1,partial,2,images/Ex9.jpg,right,,,,,
,,,,,847649,001,26,Male,Caucasian,2024-02-21_22h44.30.145,CategoryRev1_within,2023.2.3,MacIntel,59.88023952,,,,,,,,,,,384.6661,1.2,385.8658,385.8659,387.7988,right,0,1.9302,,387.7988,388.7986,0,7,7,14,1,partial,2,images/Ex15.jpg,left,,,,,
,,,,,847649,001,26,Male,Caucasian,2024-02-21_22h44.30.145,CategoryRev1_within,2023.2.3,MacIntel,59.88023952,,,,,,,,,,,388.7993,1.2,390.0003,390.0003,391.5325,left,1,1.5278,,391.5325,392.5323,0,8,8,3,1,partial,2,images/Ex12.jpg,left,,,,,
,,,,,847649,001,26,Male,Caucasian,2024-02-21_22h44.30.145,CategoryRev1_within,2023.2.3,MacIntel,59.88023952,,,,,,,,,,,392.5329,1.1,393.6324,393.6324,394.5513,left,1,0.9066,,394.5513,395.5498,0,9,9,2,1,partial,2,images/Ex11.jpg,left,,,,,
,,,,,847649,001,26,Male,Caucasian,2024-02-21_22h44.30.145,CategoryRev1_within,2023.2.3,MacIntel,59.88023952,,,,,,,,,,,395.5504,1.3,396.8502,396.8502,397.634,right,1,0.7776,,397.6341,398.6323,0,10,10,4,1,partial,2,images/Ex13.jpg,right,,,,,
,,,,,847649,001,26,Male,Caucasian,2024-02-21_22h44.30.145,CategoryRev1_within,2023.2.3,MacIntel,59.88023952,,,,,,,,,,,398.6329,0.8,399.4334,399.4335,400.3174,left,0,0.8785,,400.3175,401.317,0,11,11,1,1,partial,2,images/Ex10.jpg,right,,,,,
,,,,,847649,001,26,Male,Caucasian,2024-02-21_22h44.30.145,CategoryRev1_within,2023.2.3,MacIntel,59.88023952,,,,,,,,,,,401.3177,0.5,401.817,401.817,402.5507,right,0,0.7224,,402.5507,403.5508,0,12,12,7,1,partial,2,images/Ex16.jpg,left,,,,,
,,,,,847649,001,26,Male,Caucasian,2024-02-21_22h44.30.145,CategoryRev1_within,2023.2.3,MacIntel,59.88023952,,,,,,,,,,,403.5514,0.5,404.0505,404.0505,405.0507,right,1,0.9948,,405.0507,406.051,0,13,13,5,1,partial,2,images/Ex14.jpg,right,,,,,
,,,,,847649,001,26,Male,Caucasian,2024-02-21_22h44.30.145,CategoryRev1_within,2023.2.3,MacIntel,59.88023952,,,,,,,,,,,406.0516,0.5,406.5503,406.5503,408.8331,right,1,2.2787,,408.8331,409.834,0,14,14,0,1,partial,2,images/Ex9.jpg,right,,,,,
,,,,,847649,001,26,Male,Caucasian,2024-02-21_22h44.30.145,CategoryRev1_within,2023.2.3,MacIntel,59.88023952,,,,,,,,,,,409.8495,1,410.851,410.8511,412.3355,left,1,1.4809,,412.3356,413.3344,0,15,15,11,1,partial,2,images/Ex12.jpg,left,,,,,
,,,,,847649,001,26,Male,Caucasian,2024-02-21_22h44.30.145,CategoryRev1_within,2023.2.3,MacIntel,59.88023952,,,,,,,,,,,413.3497,1,414.3514,414.3514,415.2207,right,0,0.8657,,415.2207,416.2179,1,0,16,6,1,partial,2,images/Ex15.jpg,left,,,,,
,,,,,847649,001,26,Male,Caucasian,2024-02-21_22h44.30.145,CategoryRev1_within,2023.2.3,MacIntel,59.88023952,,,,,,,,,,,416.2185,0.7,416.918,416.918,417.9023,left,1,0.9778,,417.9023,418.9014,1,1,17,14,1,partial,2,images/Ex15.jpg,left,,,,,
,,,,,847649,001,26,Male,Caucasian,2024-02-21_22h44.30.145,CategoryRev1_within,2023.2.3,MacIntel,59.88023952,,,,,,,,,,,418.9021,1,419.9018,419.9018,421.1879,right,1,1.2827,,421.1879,422.1849,1,2,18,8,1,partial,2,images/Ex9.jpg,right,,,,,
,,,,,847649,001,26,Male,Caucasian,2024-02-21_22h44.30.145,CategoryRev1_within,2023.2.3,MacIntel,59.88023952,,,,,,,,,,,422.1854,1.3,423.4851,423.4851,424.7683,left,0,1.2718,,424.7683,425.7685,1,3,19,1,1,partial,2,images/Ex10.jpg,right,,,,,
,,,,,847649,001,26,Male,Caucasian,2024-02-21_22h44.30.145,CategoryRev1_within,2023.2.3,MacIntel,59.88023952,,,,,,,,,,,425.7692,0.9,426.6686,426.6687,427.5682,right,1,0.8963,,427.5682,428.5679,1,4,20,5,1,partial,2,images/Ex14.jpg,right,,,,,
,,,,,847649,001,26,Male,Caucasian,2024-02-21_22h44.30.145,CategoryRev1_within,2023.2.3,MacIntel,59.88023952,,,,,,,,,,,428.5682,0.9,429.4683,429.4683,430.0028,right,1,0.5227,,430.0028,431.0023,1,5,21,13,1,partial,2,images/Ex14.jpg,right,,,,,
,,,,,847649,001,26,Male,Caucasian,2024-02-21_22h44.30.145,CategoryRev1_within,2023.2.3,MacIntel,59.88023952,,,,,,,,,,,431.0028,0.7,431.7025,431.7025,433.0932,left,0,1.389,,433.0932,434.0859,1,6,22,0,1,partial,2,images/Ex9.jpg,right,,,,,
,,,,,847649,001,26,Male,Caucasian,2024-02-21_22h44.30.145,CategoryRev1_within,2023.2.3,MacIntel,59.88023952,,,,,,,,,,,434.0865,1.3,435.3859,435.386,436.2021,right,1,0.8129,,436.2021,437.2027,1,7,23,4,1,partial,2,images/Ex13.jpg,right,,,,,
,,,,,847649,001,26,Male,Caucasian,2024-02-21_22h44.30.145,CategoryRev1_within,2023.2.3,MacIntel,59.88023952,,,,,,,,,,,437.2034,0.8,438.0017,438.0018,438.8865,left,1,0.8814,,438.8865,439.8863,1,8,24,7,1,partial,2,images/Ex16.jpg,left,,,,,
,,,,,847649,001,26,Male,Caucasian,2024-02-21_22h44.30.145,CategoryRev1_within,2023.2.3,MacIntel,59.88023952,,,,,,,,,,,439.8869,0.9,440.7863,440.7863,442.8533,right,1,2.0598,,442.8533,443.8538,1,9,25,9,1,partial,2,images/Ex10.jpg,right,,,,,
,,,,,847649,001,26,Male,Caucasian,2024-02-21_22h44.30.145,CategoryRev1_within,2023.2.3,MacIntel,59.88023952,,,,,,,,,,,443.8685,1.4,445.2694,445.2694,447.8038,left,1,2.531,,447.8038,448.8029,1,10,26,10,1,partial,2,images/Ex11.jpg,left,,,,,
,,,,,847649,001,26,Male,Caucasian,2024-02-21_22h44.30.145,CategoryRev1_within,2023.2.3,MacIntel,59.88023952,,,,,,,,,,,448.8033,1.2,450.0036,450.0037,453.2373,left,1,3.2323,,453.2374,454.2375,1,11,27,3,1,partial,2,images/Ex12.jpg,left,,,,,
,,,,,847649,001,26,Male,Caucasian,2024-02-21_22h44.30.145,CategoryRev1_within,2023.2.3,MacIntel,59.88023952,,,,,,,,,,,454.2525,1.1,455.353,455.353,456.4219,right,0,1.0651,,456.4219,457.4207,1,12,28,2,1,partial,2,images/Ex11.jpg,left,,,,,
,,,,,847649,001,26,Male,Caucasian,2024-02-21_22h44.30.145,CategoryRev1_within,2023.2.3,MacIntel,59.88023952,,,,,,,,,,,457.4213,1.4,458.8209,458.821,459.6215,left,1,0.7953,,459.6216,460.62,1,13,29,11,1,partial,2,images/Ex12.jpg,left,,,,,
,,,,,847649,001,26,Male,Caucasian,2024-02-21_22h44.30.145,CategoryRev1_within,2023.2.3,MacIntel,59.88023952,,,,,,,,,,,460.6206,1.1,461.7209,461.7209,462.3541,right,1,0.6277,,462.3541,463.3545,1,14,30,12,1,partial,2,images/Ex13.jpg,right,,,,,
,,,,,847649,001,26,Male,Caucasian,2024-02-21_22h44.30.145,CategoryRev1_within,2023.2.3,MacIntel,59.88023952,,,,,,,,,,,463.3552,1.1,464.4551,464.4551,465.5063,left,1,1.0473,,465.5063,466.5041,1,15,31,15,1,partial,2,images/Ex16.jpg,left,,,,,
,,,,,847649,001,26,Male,Caucasian,2024-02-21_22h44.30.145,CategoryRev1_within,2023.2.3,MacIntel,59.88023952,,,,,,,,,,,466.5048,1.1,467.6048,467.6049,468.2063,left,1,0.5979,,468.2063,469.2051,2,0,32,10,1,partial,2,images/Ex11.jpg,left,,,,,
,,,,,847649,001,26,Male,Caucasian,2024-02-21_22h44.30.145,CategoryRev1_within,2023.2.3,MacIntel,59.88023952,,,,,,,,,,,469.2054,1,470.2051,470.2052,470.8558,left,1,0.6412,,470.8559,471.8551,2,1,33,11,1,partial,2,images/Ex12.jpg,left,,,,,
,,,,,847649,001,26,Male,Caucasian,2024-02-21_22h44.30.145,CategoryRev1_within,2023.2.3,MacIntel,59.88023952,,,,,,,,,,,471.8562,0.8,472.6551,472.6551,473.6734,right,0,1.0143,,473.6735,474.6716,2,2,34,6,1,partial,2,images/Ex15.jpg,left,,,,,
,,,,,847649,001,26,Male,Caucasian,2024-02-21_22h44.30.145,CategoryRev1_within,2023.2.3,MacIntel,59.88023952,,,,,,,,,,,474.6721,1.3,475.9728,475.9728,476.6398,left,1,0.657,,476.6399,477.6382,2,3,35,2,1,partial,2,images/Ex11.jpg,left,,,,,
,,,,,847649,001,26,Male,Caucasian,2024-02-21_22h44.30.145,CategoryRev1_within,2023.2.3,MacIntel,59.88023952,,,,,,,,,,,477.6388,0.6,478.2389,478.239,479.8904,right,1,1.6447,,479.8905,480.889,2,4,36,8,1,partial,2,images/Ex9.jpg,right,,,,,
,,,,,847649,001,26,Male,Caucasian,2024-02-21_22h44.30.145,CategoryRev1_within,2023.2.3,MacIntel,59.88023952,,,,,,,,,,,480.8896,0.6,481.4887,481.4888,482.7069,right,1,1.2145,,482.707,483.706,2,5,37,1,1,partial,2,images/Ex10.jpg,right,,,,,
,,,,,847649,001,26,Male,Caucasian,2024-02-21_22h44.30.145,CategoryRev1_within,2023.2.3,MacIntel,59.88023952,,,,,,,,,,,483.7065,1.2,484.9057,484.9059,485.6741,right,1,0.7654,,485.6741,486.6728,2,6,38,5,1,partial,2,images/Ex14.jpg,right,,,,,
,,,,,847649,001,26,Male,Caucasian,2024-02-21_22h44.30.145,CategoryRev1_within,2023.2.3,MacIntel,59.88023952,,,,,,,,,,,486.6734,0.9,487.5729,487.573,488.7569,left,1,1.1755,,488.7569,489.7563,2,7,39,14,1,partial,2,images/Ex15.jpg,left,,,,,
,,,,,847649,001,26,Male,Caucasian,2024-02-21_22h44.30.145,CategoryRev1_within,2023.2.3,MacIntel,59.88023952,,,,,,,,,,,489.7568,0.6,490.3575,490.3575,491.0399,left,1,0.6796,,491.04,492.0403,2,8,40,3,1,partial,2,images/Ex12.jpg,left,,,,,
,,,,,847649,001,26,Male,Caucasian,2024-02-21_22h44.30.145,CategoryRev1_within,2023.2.3,MacIntel,59.88023952,,,,,,,,,,,492.0409,0.6,492.6399,492.6399,493.7075,right,1,1.0641,,493.7076,494.7072,2,9,41,0,1,partial,2,images/Ex9.jpg,right,,,,,
,,,,,847649,001,26,Male,Caucasian,2024-02-21_22h44.30.145,CategoryRev1_within,2023.2.3,MacIntel,59.88023952,,,,,,,,,,,494.7078,1.4,496.1068,496.1068,497.4908,right,1,1.3807,,497.491,498.4898,2,10,42,9,1,partial,2,images/Ex10.jpg,right,,,,,
,,,,,847649,001,26,Male,Caucasian,2024-02-21_22h44.30.145,CategoryRev1_within,2023.2.3,MacIntel,59.88023952,,,,,,,,,,,498.4903,1.2,499.6911,499.6913,500.4571,right,1,0.7626,,500.4571,501.4572,2,11,43,4,1,partial,2,images/Ex13.jpg,right,,,,,
,,,,,847649,001,26,Male,Caucasian,2024-02-21_22h44.30.145,CategoryRev1_within,2023.2.3,MacIntel,59.88023952,,,,,,,,,,,501.4577,1.2,502.6576,502.6576,504.0082,left,1,1.3396,,504.0082,505.0074,2,12,44,7,1,partial,2,images/Ex16.jpg,left,,,,,
,,,,,847649,001,26,Male,Caucasian,2024-02-21_22h44.30.145,CategoryRev1_within,2023.2.3,MacIntel,59.88023952,,,,,,,,,,,505.0228,0.7,505.7242,505.7242,506.4751,right,1,0.7471,,506.4752,507.4743,2,13,45,12,1,partial,2,images/Ex13.jpg,right,,,,,
,,,,,847649,001,26,Male,Caucasian,2024-02-21_22h44.30.145,CategoryRev1_within,2023.2.3,MacIntel,59.88023952,,,,,,,,,,,507.475,1.2,508.6744,508.6744,509.3919,right,1,0.7137,,509.392,510.3912,2,14,46,13,1,partial,2,images/Ex14.jpg,right,,,,,
,,,,,847649,001,26,Male,Caucasian,2024-02-21_22h44.30.145,CategoryRev1_within,2023.2.3,MacIntel,59.88023952,,,,,,,,,,,510.3918,0.9,511.292,511.2921,512.376,left,1,1.0801,,512.3761,513.3735,2,15,47,15,1,partial,2,images/Ex16.jpg,left,,,,,
,,,,,847649,001,26,Male,Caucasian,2024-02-21_22h44.30.145,CategoryRev1_within,2023.2.3,MacIntel,59.88023952,,,,,,,,,,,513.3742,1.3,514.6739,514.6739,515.4085,left,1,0.728,,515.4086,516.4082,3,0,48,2,1,partial,2,images/Ex11.jpg,left,,,,,
,,,,,847649,001,26,Male,Caucasian,2024-02-21_22h44.30.145,CategoryRev1_within,2023.2.3,MacIntel,59.88023952,,,,,,,,,,,516.4091,1.1,517.5083,517.5084,519.4748,right,1,1.9552,,519.475,520.4751,3,1,49,8,1,partial,2,images/Ex9.jpg,right,,,,,
,,,,,847649,001,26,Male,Caucasian,2024-02-21_22h44.30.145,CategoryRev1_within,2023.2.3,MacIntel,59.88023952,,,,,,,,,,,520.4756,1.4,521.8752,521.8752,522.8927,right,1,1.012,,522.893,523.8922,3,2,50,9,1,partial,2,images/Ex10.jpg,right,,,,,
,,,,,847649,001,26,Male,Caucasian,2024-02-21_22h44.30.145,CategoryRev1_within,2023.2.3,MacIntel,59.88023952,,,,,,,,,,,523.8928,0.5,524.3918,524.392,525.1423,right,1,0.7408,,525.1424,526.1432,3,3,51,1,1,partial,2,images/Ex10.jpg,right,,,,,
,,,,,847649,001,26,Male,Caucasian,2024-02-21_22h44.30.145,CategoryRev1_within,2023.2.3,MacIntel,59.88023952,,,,,,,,,,,526.1437,1.2,527.3424,527.3425,528.3931,left,1,1.0447,,528.3931,529.3925,3,4,52,14,1,partial,2,images/Ex15.jpg,left,,,,,
,,,,,847649,001,26,Male,Caucasian,2024-02-21_22h44.30.145,CategoryRev1_within,2023.2.3,MacIntel,59.88023952,,,,,,,,,,,529.3931,1.2,530.5926,530.5926,531.3272,right,1,0.7244,,531.3274,532.3261,3,5,53,4,1,partial,2,images/Ex13.jpg,right,,,,,
,,,,,847649,001,26,Male,Caucasian,2024-02-21_22h44.30.145,CategoryRev1_within,2023.2.3,MacIntel,59.88023952,,,,,,,,,,,532.3265,0.8,533.1261,533.1261,533.9762,left,1,0.8396,,533.9763,534.976,3,6,54,15,1,partial,2,images/Ex16.jpg,left,,,,,
,,,,,847649,001,26,Male,Caucasian,2024-02-21_22h44.30.145,CategoryRev1_within,2023.2.3,MacIntel,59.88023952,,,,,,,,,,,534.9767,1.3,536.2754,536.2755,536.9932,right,1,0.7095,,536.9933,537.9927,3,7,55,12,1,partial,2,images/Ex13.jpg,right,,,,,
,,,,,847649,001,26,Male,Caucasian,2024-02-21_22h44.30.145,CategoryRev1_within,2023.2.3,MacIntel,59.88023952,,,,,,,,,,,537.9932,1,538.9932,538.9932,539.6437,left,1,0.6449,,539.6437,540.6432,3,8,56,7,1,partial,2,images/Ex16.jpg,left,,,,,
,,,,,847649,001,26,Male,Caucasian,2024-02-21_22h44.30.145,CategoryRev1_within,2023.2.3,MacIntel,59.88023952,,,,,,,,,,,540.6439,0.8,541.4433,541.4434,543.0612,right,0,1.6139,,543.0612,544.059,3,9,57,11,1,partial,2,images/Ex12.jpg,left,,,,,
,,,,,847649,001,26,Male,Caucasian,2024-02-21_22h44.30.145,CategoryRev1_within,2023.2.3,MacIntel,59.88023952,,,,,,,,,,,544.0596,0.9,544.9601,544.9601,545.6595,right,1,0.6953,,545.6595,546.6595,3,10,58,5,1,partial,2,images/Ex14.jpg,right,,,,,
,,,,,847649,001,26,Male,Caucasian,2024-02-21_22h44.30.145,CategoryRev1_within,2023.2.3,MacIntel,59.88023952,,,,,,,,,,,546.6601,1,547.6604,547.6604,548.3276,right,1,0.6611,,548.3278,549.3271,3,11,59,13,1,partial,2,images/Ex14.jpg,right,,,,,
,,,,,847649,001,26,Male,Caucasian,2024-02-21_22h44.30.145,CategoryRev1_within,2023.2.3,MacIntel,59.88023952,,,,,,,,,,,549.3277,1,550.3274,550.3274,550.9781,left,1,0.6413,,550.9781,551.9769,3,12,60,6,1,partial,2,images/Ex15.jpg,left,,,,,
,,,,,847649,001,26,Male,Caucasian,2024-02-21_22h44.30.145,CategoryRev1_within,2023.2.3,MacIntel,59.88023952,,,,,,,,,,,551.9774,1.2,553.1776,553.1777,553.8452,left,1,0.6563,,553.8452,554.8443,3,13,61,3,1,partial,2,images/Ex12.jpg,left,,,,,
,,,,,847649,001,26,Male,Caucasian,2024-02-21_22h44.30.145,CategoryRev1_within,2023.2.3,MacIntel,59.88023952,,,,,,,,,,,554.845,0.8,555.6443,555.6443,556.3619,left,1,0.7048,,556.362,557.361,3,14,62,10,1,partial,2,images/Ex11.jpg,left,,,,,
,,,,,847649,001,26,Male,Caucasian,2024-02-21_22h44.30.145,CategoryRev1_within,2023.2.3,MacIntel,59.88023952,,,,,,,,,,,557.3617,1,558.361,558.3611,559.2619,right,1,0.8968,,559.262,560.2604,3,15,63,0,1,partial,2,images/Ex9.jpg,right,,,,,
,,,,,847649,001,26,Male,Caucasian,2024-02-21_22h44.30.145,CategoryRev1_within,2023.2.3,MacIntel,59.88023952,,,,,,,,,,,560.261,0.6,560.8613,560.8614,561.6945,right,1,0.8269,,561.6945,562.6947,4,0,64,1,1,partial,2,images/Ex10.jpg,right,,,,,
,,,,,847649,001,26,Male,Caucasian,2024-02-21_22h44.30.145,CategoryRev1_within,2023.2.3,MacIntel,59.88023952,,,,,,,,,,,562.6954,1.3,563.9948,563.9948,564.8952,left,1,0.8969,,564.8952,565.8948,4,1,65,3,1,partial,2,images/Ex12.jpg,left,,,,,
,,,,,847649,001,26,Male,Caucasian,2024-02-21_22h44.30.145,CategoryRev1_within,2023.2.3,MacIntel,59.88023952,,,,,,,,,,,565.8953,1.3,567.1951,567.1951,567.8626,left,1,0.6608,,567.8626,568.8619,4,2,66,2,1,partial,2,images/Ex11.jpg,left,,,,,
,,,,,847649,001,26,Male,Caucasian,2024-02-21_22h44.30.145,CategoryRev1_within,2023.2.3,MacIntel,59.88023952,,,,,,,,,,,568.8627,0.6,569.4616,569.4616,570.2953,right,1,0.8315,,570.2953,571.2958,4,3,67,0,1,partial,2,images/Ex9.jpg,right,,,,,
,,,,,847649,001,26,Male,Caucasian,2024-02-21_22h44.30.145,CategoryRev1_within,2023.2.3,MacIntel,59.88023952,,,,,,,,,,,571.2964,1.3,572.5963,572.5963,573.3797,right,1,0.7768,,573.3797,574.3784,4,4,68,8,1,partial,2,images/Ex9.jpg,right,,,,,
,,,,,847649,001,26,Male,Caucasian,2024-02-21_22h44.30.145,CategoryRev1_within,2023.2.3,MacIntel,59.88023952,,,,,,,,,,,574.3789,1.1,575.479,575.479,576.1957,left,1,0.7115,,576.1957,577.1957,4,5,69,10,1,partial,2,images/Ex11.jpg,left,,,,,
,,,,,847649,001,26,Male,Caucasian,2024-02-21_22h44.30.145,CategoryRev1_within,2023.2.3,MacIntel,59.88023952,,,,,,,,,,,577.1963,0.8,577.9956,577.9956,578.6799,right,1,0.6774,,578.68,579.6783,4,6,70,12,1,partial,2,images/Ex13.jpg,right,,,,,
,,,,,847649,001,26,Male,Caucasian,2024-02-21_22h44.30.145,CategoryRev1_within,2023.2.3,MacIntel,59.88023952,,,,,,,,,,,579.6789,1.4,581.0792,581.0792,582.4801,right,1,1.389,,582.4802,583.4797,4,7,71,9,1,partial,2,images/Ex10.jpg,right,,,,,
,,,,,847649,001,26,Male,Caucasian,2024-02-21_22h44.30.145,CategoryRev1_within,2023.2.3,MacIntel,59.88023952,,,,,,,,,,,583.4803,1.4,584.8796,584.8799,585.5302,right,1,0.6441,,585.5303,586.5297,4,8,72,5,1,partial,2,images/Ex14.jpg,right,,,,,
,,,,,847649,001,26,Male,Caucasian,2024-02-21_22h44.30.145,CategoryRev1_within,2023.2.3,MacIntel,59.88023952,,,,,,,,,,,586.5304,1.1,587.6297,587.6298,588.3141,left,1,0.6734,,588.3141,589.3133,4,9,73,11,1,partial,2,images/Ex12.jpg,left,,,,,
,,,,,847649,001,26,Male,Caucasian,2024-02-21_22h44.30.145,CategoryRev1_within,2023.2.3,MacIntel,59.88023952,,,,,,,,,,,589.3142,1.5,590.8134,590.8134,591.7973,left,1,0.9777,,591.7974,592.7976,4,10,74,7,1,partial,2,images/Ex16.jpg,left,,,,,
,,,,,847649,001,26,Male,Caucasian,2024-02-21_22h44.30.145,CategoryRev1_within,2023.2.3,MacIntel,59.88023952,,,,,,,,,,,592.798,1.1,593.8968,593.8969,594.4466,left,1,0.5435,,594.4466,595.4461,4,11,75,15,1,partial,2,images/Ex16.jpg,left,,,,,
,,,,,847649,001,26,Male,Caucasian,2024-02-21_22h44.30.145,CategoryRev1_within,2023.2.3,MacIntel,59.88023952,,,,,,,,,,,595.4467,1.1,596.5474,596.5474,597.1976,right,1,0.6404,,597.1976,598.1963,4,12,76,4,1,partial,2,images/Ex13.jpg,right,,,,,
,,,,,847649,001,26,Male,Caucasian,2024-02-21_22h44.30.145,CategoryRev1_within,2023.2.3,MacIntel,59.88023952,,,,,,,,,,,598.1968,1.4,599.5973,599.5973,600.248,left,1,0.6453,,600.248,601.2474,4,13,77,14,1,partial,2,images/Ex15.jpg,left,,,,,
,,,,,847649,001,26,Male,Caucasian,2024-02-21_22h44.30.145,CategoryRev1_within,2023.2.3,MacIntel,59.88023952,,,,,,,,,,,601.2481,1.4,602.6477,602.6477,603.2157,left,1,0.5648,,603.2157,604.2158,4,14,78,6,1,partial,2,images/Ex15.jpg,left,,,,,
,,,,,847649,001,26,Male,Caucasian,2024-02-21_22h44.30.145,CategoryRev1_within,2023.2.3,MacIntel,59.88023952,,,,,,,,,,,604.2162,1.1,605.3142,605.3142,606.1306,right,1,0.8111,,606.1308,607.1301,4,15,79,13,1,partial,2,images/Ex14.jpg,right,,,,,
,,,,,847649,001,26,Male,Caucasian,2024-02-21_22h44.30.145,CategoryRev1_within,2023.2.3,MacIntel,59.88023952,,,,,,,,,,,607.1307,1,608.1312,608.1312,609.0654,right,1,0.9255,,609.0654,610.0647,5,0,80,8,1,partial,2,images/Ex9.jpg,right,,,,,
,,,,,847649,001,26,Male,Caucasian,2024-02-21_22h44.30.145,CategoryRev1_within,2023.2.3,MacIntel,59.88023952,,,,,,,,,,,610.0651,1.1,611.1645,611.1646,611.9655,left,1,0.7953,,611.9655,612.964,5,1,81,15,1,partial,2,images/Ex16.jpg,left,,,,,
,,,,,847649,001,26,Male,Caucasian,2024-02-21_22h44.30.145,CategoryRev1_within,2023.2.3,MacIntel,59.88023952,,,,,,,,,,,612.9647,1,613.9649,613.9649,614.8323,right,1,0.8567,,614.8323,615.8318,5,2,82,9,1,partial,2,images/Ex10.jpg,right,,,,,
,,,,,847649,001,26,Male,Caucasian,2024-02-21_22h44.30.145,CategoryRev1_within,2023.2.3,MacIntel,59.88023952,,,,,,,,,,,615.8324,1,616.8318,616.8318,617.7826,left,1,0.9467,,617.7827,618.7808,5,3,83,11,1,partial,2,images/Ex12.jpg,left,,,,,
,,,,,847649,001,26,Male,Caucasian,2024-02-21_22h44.30.145,CategoryRev1_within,2023.2.3,MacIntel,59.88023952,,,,,,,,,,,618.7814,0.8,619.5815,619.5815,620.3308,right,1,0.7462,,620.3308,621.3319,5,4,84,0,1,partial,2,images/Ex9.jpg,right,,,,,
,,,,,847649,001,26,Male,Caucasian,2024-02-21_22h44.30.145,CategoryRev1_within,2023.2.3,MacIntel,59.88023952,,,,,,,,,,,621.3323,0.7,622.0311,622.0311,622.8151,right,1,0.7733,,622.8152,623.8147,5,5,85,4,1,partial,2,images/Ex13.jpg,right,,,,,
,,,,,847649,001,26,Male,Caucasian,2024-02-21_22h44.30.145,CategoryRev1_within,2023.2.3,MacIntel,59.88023952,,,,,,,,,,,623.8151,1,624.8144,624.8144,625.4482,left,1,0.6262,,625.4482,626.4495,5,6,86,14,1,partial,2,images/Ex15.jpg,left,,,,,
,,,,,847649,001,26,Male,Caucasian,2024-02-21_22h44.30.145,CategoryRev1_within,2023.2.3,MacIntel,59.88023952,,,,,,,,,,,626.45,1.2,627.649,627.649,628.3154,right,1,0.6614,,628.3155,629.3149,5,7,87,13,1,partial,2,images/Ex14.jpg,right,,,,,
,,,,,847649,001,26,Male,Caucasian,2024-02-21_22h44.30.145,CategoryRev1_within,2023.2.3,MacIntel,59.88023952,,,,,,,,,,,629.3155,0.9,630.2151,630.2151,630.8828,left,1,0.657,,630.8828,631.8823,5,8,88,2,1,partial,2,images/Ex11.jpg,left,,,,,
,,,,,847649,001,26,Male,Caucasian,2024-02-21_22h44.30.145,CategoryRev1_within,2023.2.3,MacIntel,59.88023952,,,,,,,,,,,631.8828,1.1,632.9837,632.9837,633.6491,right,1,0.6566,,633.6491,634.6485,5,9,89,5,1,partial,2,images/Ex14.jpg,right,,,,,
,,,,,847649,001,26,Male,Caucasian,2024-02-21_22h44.30.145,CategoryRev1_within,2023.2.3,MacIntel,59.88023952,,,,,,,,,,,634.6488,1.2,635.8494,635.8494,636.801,right,1,0.9483,,636.801,637.7988,5,10,90,1,1,partial,2,images/Ex10.jpg,right,,,,,
,,,,,847649,001,26,Male,Caucasian,2024-02-21_22h44.30.145,CategoryRev1_within,2023.2.3,MacIntel,59.88023952,,,,,,,,,,,637.7993,0.6,638.3986,638.3986,639.099,left,1,0.691,,639.0991,640.0994,5,11,91,3,1,partial,2,images/Ex12.jpg,left,,,,,
,,,,,847649,001,26,Male,Caucasian,2024-02-21_22h44.30.145,CategoryRev1_within,2023.2.3,MacIntel,59.88023952,,,,,,,,,,,640.0998,1,641.1005,641.1005,641.8342,left,1,0.7219,,641.8343,642.8333,5,12,92,6,1,partial,2,images/Ex15.jpg,left,,,,,
,,,,,847649,001,26,Male,Caucasian,2024-02-21_22h44.30.145,CategoryRev1_within,2023.2.3,MacIntel,59.88023952,,,,,,,,,,,642.8339,1.4,644.2329,644.2329,644.9,left,1,0.663,,644.9,645.899,5,13,93,7,1,partial,2,images/Ex16.jpg,left,,,,,
,,,,,847649,001,26,Male,Caucasian,2024-02-21_22h44.30.145,CategoryRev1_within,2023.2.3,MacIntel,59.88023952,,,,,,,,,,,645.8994,0.7,646.6,646.6,647.2497,right,1,0.6459,,647.2498,648.2504,5,14,94,12,1,partial,2,images/Ex13.jpg,right,,,,,
,,,,,847649,001,26,Male,Caucasian,2024-02-21_22h44.30.145,CategoryRev1_within,2023.2.3,MacIntel,59.88023952,,,,,,,,,,,648.2508,1.3,649.5502,649.5502,650.2169,left,1,0.664,,650.2169,651.2174,5,15,95,10,1,partial,2,images/Ex11.jpg,left,,,,,
,,,,,847649,001,26,Male,Caucasian,2024-02-21_22h44.30.145,CategoryRev1_within,2023.2.3,MacIntel,59.88023952,,,,,,651.2186,659.1668,space,7.9394,,659.1805,0.5,659.6689,659.6689,660.9849,right,1,1.3082,,660.9849,661.9849,0,0,0,12,1,total,1,images/Ex5.jpg,right,,,,,
,,,,,847649,001,26,Male,Caucasian,2024-02-21_22h44.30.145,CategoryRev1_within,2023.2.3,MacIntel,59.88023952,,,,,,,,,,,661.9856,1.4,663.3859,663.3859,664.4047,left,0,1.0164,,664.4047,665.4022,0,1,1,6,1,total,1,images/Ex7.jpg,right,,,,,
,,,,,847649,001,26,Male,Caucasian,2024-02-21_22h44.30.145,CategoryRev1_within,2023.2.3,MacIntel,59.88023952,,,,,,,,,,,665.4026,1.1,666.502,666.502,667.5519,left,0,1.0465,,667.552,668.5525,0,2,2,7,1,total,1,images/Ex8.jpg,right,,,,,
,,,,,847649,001,26,Male,Caucasian,2024-02-21_22h44.30.145,CategoryRev1_within,2023.2.3,MacIntel,59.88023952,,,,,,,,,,,668.5531,0.5,669.0519,669.052,671.0207,right,1,1.9652,,671.0208,672.0184,0,3,3,14,1,total,1,images/Ex7.jpg,right,,,,,
,,,,,847649,001,26,Male,Caucasian,2024-02-21_22h44.30.145,CategoryRev1_within,2023.2.3,MacIntel,59.88023952,,,,,,,,,,,672.0333,0.8,672.8358,672.8358,673.5695,right,1,0.7322,,673.5695,674.5692,0,4,4,4,1,total,1,images/Ex5.jpg,right,,,,,
,,,,,847649,001,26,Male,Caucasian,2024-02-21_22h44.30.145,CategoryRev1_within,2023.2.3,MacIntel,59.88023952,,,,,,,,,,,674.5699,0.5,675.0691,675.0692,676.1025,left,1,1.0307,,676.1026,677.1031,0,5,5,2,1,total,1,images/Ex3.jpg,left,,,,,
,,,,,847649,001,26,Male,Caucasian,2024-02-21_22h44.30.145,CategoryRev1_within,2023.2.3,MacIntel,59.88023952,,,,,,,,,,,677.1036,0.6,677.7027,677.7027,678.6863,left,1,0.9739,,678.6864,679.6866,0,6,6,9,1,total,1,images/Ex2.jpg,left,,,,,
,,,,,847649,001,26,Male,Caucasian,2024-02-21_22h44.30.145,CategoryRev1_within,2023.2.3,MacIntel,59.88023952,,,,,,,,,,,679.6872,0.8,680.4862,680.4862,682.2199,right,1,1.7219,,682.2201,683.219,0,7,7,5,1,total,1,images/Ex6.jpg,right,,,,,
,,,,,847649,001,26,Male,Caucasian,2024-02-21_22h44.30.145,CategoryRev1_within,2023.2.3,MacIntel,59.88023952,,,,,,,,,,,683.2344,0.7,683.9358,683.9359,685.3872,left,1,1.4439,,685.3874,686.3863,0,8,8,1,1,total,1,images/Ex2.jpg,left,,,,,
,,,,,847649,001,26,Male,Caucasian,2024-02-21_22h44.30.145,CategoryRev1_within,2023.2.3,MacIntel,59.88023952,,,,,,,,,,,686.387,1,687.3864,687.3864,688.1373,left,0,0.7478,,688.1373,689.1378,0,9,9,13,1,total,1,images/Ex6.jpg,right,,,,,
,,,,,847649,001,26,Male,Caucasian,2024-02-21_22h44.30.145,CategoryRev1_within,2023.2.3,MacIntel,59.88023952,,,,,,,,,,,689.1382,1.2,690.337,690.337,691.2874,right,0,0.9437,,691.2875,692.286,0,10,10,11,1,total,1,images/Ex4.jpg,left,,,,,
,,,,,847649,001,26,Male,Caucasian,2024-02-21_22h44.30.145,CategoryRev1_within,2023.2.3,MacIntel,59.88023952,,,,,,,,,,,692.2864,0.8,693.0871,693.0871,694.2214,right,0,1.1256,,694.2215,695.2207,0,11,11,10,1,total,1,images/Ex3.jpg,left,,,,,
,,,,,847649,001,26,Male,Caucasian,2024-02-21_22h44.30.145,CategoryRev1_within,2023.2.3,MacIntel,59.88023952,,,,,,,,,,,695.2358,0.7,695.9373,695.9373,696.9713,left,1,1.0281,,696.9713,697.9708,0,12,12,0,1,total,1,images/Ex1.jpg,left,,,,,
,,,,,847649,001,26,Male,Caucasian,2024-02-21_22h44.30.145,CategoryRev1_within,2023.2.3,MacIntel,59.88023952,,,,,,,,,,,697.9716,0.6,698.5703,698.5704,700.1064,left,1,1.5238,,700.1065,701.1051,0,13,13,3,1,total,1,images/Ex4.jpg,left,,,,,
,,,,,847649,001,26,Male,Caucasian,2024-02-21_22h44.30.145,CategoryRev1_within,2023.2.3,MacIntel,59.88023952,,,,,,,,,,,701.1055,0.6,701.7046,701.7046,702.9885,right,1,1.2768,,702.9885,703.9878,0,14,14,15,1,total,1,images/Ex8.jpg,right,,,,,
,,,,,847649,001,26,Male,Caucasian,2024-02-21_22h44.30.145,CategoryRev1_within,2023.2.3,MacIntel,59.88023952,,,,,,,,,,,703.9884,0.6,704.5877,704.5878,705.5218,left,1,0.9319,,705.5218,706.5212,0,15,15,8,1,total,1,images/Ex1.jpg,left,,,,,
,,,,,847649,001,26,Male,Caucasian,2024-02-21_22h44.30.145,CategoryRev1_within,2023.2.3,MacIntel,59.88023952,,,,,,,,,,,706.5217,1.2,707.7214,707.7215,708.7556,right,0,1.0253,,708.7556,709.7547,1,0,16,11,1,total,1,images/Ex4.jpg,left,,,,,
,,,,,847649,001,26,Male,Caucasian,2024-02-21_22h44.30.145,CategoryRev1_within,2023.2.3,MacIntel,59.88023952,,,,,,,,,,,709.7551,1.2,710.9549,710.955,713.822,right,0,2.8608,,713.822,714.8219,1,1,17,0,1,total,1,images/Ex1.jpg,left,,,,,
,,,,,847649,001,26,Male,Caucasian,2024-02-21_22h44.30.145,CategoryRev1_within,2023.2.3,MacIntel,59.88023952,,,,,,,,,,,714.8371,0.7,715.5381,715.5381,716.523,left,0,0.9814,,716.523,717.522,1,2,18,13,1,total,1,images/Ex6.jpg,right,,,,,
,,,,,847649,001,26,Male,Caucasian,2024-02-21_22h44.30.145,CategoryRev1_within,2023.2.3,MacIntel,59.88023952,,,,,,,,,,,717.523,0.9,718.4223,718.4224,719.8394,right,1,1.4072,,719.8394,720.8381,1,3,19,15,1,total,1,images/Ex8.jpg,right,,,,,
,,,,,847649,001,26,Male,Caucasian,2024-02-21_22h44.30.145,CategoryRev1_within,2023.2.3,MacIntel,59.88023952,,,,,,,,,,,720.8387,1,721.8391,721.8391,722.7062,left,1,0.863,,722.7062,723.7059,1,4,20,2,1,total,1,images/Ex3.jpg,left,,,,,
,,,,,847649,001,26,Male,Caucasian,2024-02-21_22h44.30.145,CategoryRev1_within,2023.2.3,MacIntel,59.88023952,,,,,,,,,,,723.7065,0.5,724.2051,724.2051,725.591,right,1,1.3825,,725.5911,726.5893,1,5,21,6,1,total,1,images/Ex7.jpg,right,,,,,
,,,,,847649,001,26,Male,Caucasian,2024-02-21_22h44.30.145,CategoryRev1_within,2023.2.3,MacIntel,59.88023952,,,,,,,,,,,726.5903,0.7,727.2894,727.2895,727.7885,right,1,0.4975,,727.7885,728.7894,1,6,22,12,1,total,1,images/Ex5.jpg,right,,,,,
,,,,,847649,001,26,Male,Caucasian,2024-02-21_22h44.30.145,CategoryRev1_within,2023.2.3,MacIntel,59.88023952,,,,,,,,,,,728.7903,1.1,729.8895,729.8895,731.0071,left,1,1.1043,,731.0071,732.0069,1,7,23,10,1,total,1,images/Ex3.jpg,left,,,,,
,,,,,847649,001,26,Male,Caucasian,2024-02-21_22h44.30.145,CategoryRev1_within,2023.2.3,MacIntel,59.88023952,,,,,,,,,,,732.0074,0.8,732.8067,732.8067,734.2726,right,0,1.463,,734.2726,735.2733,1,8,24,9,1,total,1,images/Ex2.jpg,left,,,,,
,,,,,847649,001,26,Male,Caucasian,2024-02-21_22h44.30.145,CategoryRev1_within,2023.2.3,MacIntel,59.88023952,,,,,,,,,,,735.2885,0.8,736.0899,736.09,737.141,left,0,1.0403,,737.141,738.1402,1,9,25,5,1,total,1,images/Ex6.jpg,right,,,,,
,,,,,847649,001,26,Male,Caucasian,2024-02-21_22h44.30.145,CategoryRev1_within,2023.2.3,MacIntel,59.88023952,,,,,,,,,,,738.1409,0.7,738.8395,738.8395,740.6915,left,0,1.8408,,740.6915,741.6904,1,10,26,7,1,total,1,images/Ex8.jpg,right,,,,,
,,,,,847649,001,26,Male,Caucasian,2024-02-21_22h44.30.145,CategoryRev1_within,2023.2.3,MacIntel,59.88023952,,,,,,,,,,,741.705,0.9,742.6069,742.6069,744.0915,right,0,1.4741,,744.0915,745.091,1,11,27,1,1,total,1,images/Ex2.jpg,left,,,,,
,,,,,847649,001,26,Male,Caucasian,2024-02-21_22h44.30.145,CategoryRev1_within,2023.2.3,MacIntel,59.88023952,,,,,,,,,,,745.0917,0.9,745.9912,745.9913,746.9748,right,1,0.9751,,746.9749,747.9742,1,12,28,4,1,total,1,images/Ex5.jpg,right,,,,,
,,,,,847649,001,26,Male,Caucasian,2024-02-21_22h44.30.145,CategoryRev1_within,2023.2.3,MacIntel,59.88023952,,,,,,,,,,,747.9748,0.7,748.6732,748.6732,749.6573,left,1,0.9807,,749.6574,750.6584,1,13,29,8,1,total,1,images/Ex1.jpg,left,,,,,
,,,,,847649,001,26,Male,Caucasian,2024-02-21_22h44.30.145,CategoryRev1_within,2023.2.3,MacIntel,59.88023952,,,,,,,,,,,750.6588,1.3,751.9583,751.9584,753.0087,right,1,1.0469,,753.0087,754.0076,1,14,30,14,1,total,1,images/Ex7.jpg,right,,,,,
,,,,,847649,001,26,Male,Caucasian,2024-02-21_22h44.30.145,CategoryRev1_within,2023.2.3,MacIntel,59.88023952,,,,,,,,,,,754.0081,0.5,754.5071,754.5071,755.6088,left,1,1.0908,,755.6089,756.6085,1,15,31,3,1,total,1,images/Ex4.jpg,left,,,,,
,,,,,847649,001,26,Male,Caucasian,2024-02-21_22h44.30.145,CategoryRev1_within,2023.2.3,MacIntel,59.88023952,,,,,,,,,,,756.6091,1.3,757.9089,757.909,758.7755,left,1,0.861,,758.7756,759.7743,2,0,32,2,1,total,1,images/Ex3.jpg,left,,,,,
,,,,,847649,001,26,Male,Caucasian,2024-02-21_22h44.30.145,CategoryRev1_within,2023.2.3,MacIntel,59.88023952,,,,,,,,,,,759.7748,0.7,760.4747,760.4747,761.5927,left,0,1.1114,,761.5927,762.5919,2,1,33,15,1,total,1,images/Ex8.jpg,right,,,,,
,,,,,847649,001,26,Male,Caucasian,2024-02-21_22h44.30.145,CategoryRev1_within,2023.2.3,MacIntel,59.88023952,,,,,,,,,,,762.5927,1.1,763.692,763.6921,765.5922,left,1,1.8886,,765.5922,766.593,2,2,34,9,1,total,1,images/Ex2.jpg,left,,,,,
,,,,,847649,001,26,Male,Caucasian,2024-02-21_22h44.30.145,CategoryRev1_within,2023.2.3,MacIntel,59.88023952,,,,,,,,,,,766.5935,1.2,767.7923,767.7923,768.3591,right,1,0.5645,,768.3591,769.3589,2,3,35,13,1,total,1,images/Ex6.jpg,right,,,,,
,,,,,847649,001,26,Male,Caucasian,2024-02-21_22h44.30.145,CategoryRev1_within,2023.2.3,MacIntel,59.88023952,,,,,,,,,,,769.3593,1.4,770.759,770.7591,771.6434,right,1,0.8774,,771.6435,772.6419,2,4,36,6,1,total,1,images/Ex7.jpg,right,,,,,
,,,,,847649,001,26,Male,Caucasian,2024-02-21_22h44.30.145,CategoryRev1_within,2023.2.3,MacIntel,59.88023952,,,,,,,,,,,772.6425,0.8,773.4426,773.4426,775.4922,right,1,2.0453,,775.4922,776.4926,2,5,37,5,1,total,1,images/Ex6.jpg,right,,,,,
,,,,,847649,001,26,Male,Caucasian,2024-02-21_22h44.30.145,CategoryRev1_within,2023.2.3,MacIntel,59.88023952,,,,,,,,,,,776.4932,1.2,777.6929,777.6929,778.5771,left,1,0.8729,,778.5771,779.5764,2,6,38,1,1,total,1,images/Ex2.jpg,left,,,,,
,,,,,847649,001,26,Male,Caucasian,2024-02-21_22h44.30.145,CategoryRev1_within,2023.2.3,MacIntel,59.88023952,,,,,,,,,,,779.5769,0.7,780.2756,780.2756,781.532,right,0,1.2498,,781.5321,782.5265,2,7,39,11,1,total,1,images/Ex4.jpg,left,,,,,
,,,,,847649,001,26,Male,Caucasian,2024-02-21_22h44.30.145,CategoryRev1_within,2023.2.3,MacIntel,59.88023952,,,,,,,,,,,782.5276,1,783.526,783.5261,784.213,right,1,0.6847,,784.213,785.2097,2,8,40,4,1,total,1,images/Ex5.jpg,right,,,,,
,,,,,847649,001,26,Male,Caucasian,2024-02-21_22h44.30.145,CategoryRev1_within,2023.2.3,MacIntel,59.88023952,,,,,,,,,,,785.2103,0.7,785.9101,785.9101,786.8936,left,1,0.9799,,786.8937,787.8936,2,9,41,3,1,total,1,images/Ex4.jpg,left,,,,,
,,,,,847649,001,26,Male,Caucasian,2024-02-21_22h44.30.145,CategoryRev1_within,2023.2.3,MacIntel,59.88023952,,,,,,,,,,,787.8943,1.4,789.2938,789.2939,790.1119,right,1,0.8107,,790.1119,791.1105,2,10,42,14,1,total,1,images/Ex7.jpg,right,,,,,
,,,,,847649,001,26,Male,Caucasian,2024-02-21_22h44.30.145,CategoryRev1_within,2023.2.3,MacIntel,59.88023952,,,,,,,,,,,791.1111,0.7,791.8108,791.8108,792.678,left,1,0.8571,,792.678,793.6771,2,11,43,10,1,total,1,images/Ex3.jpg,left,,,,,
,,,,,847649,001,26,Male,Caucasian,2024-02-21_22h44.30.145,CategoryRev1_within,2023.2.3,MacIntel,59.88023952,,,,,,,,,,,793.6775,1,794.6777,794.6777,795.9283,right,0,1.2371,,795.9284,796.9275,2,12,44,8,1,total,1,images/Ex1.jpg,left,,,,,
,,,,,847649,001,26,Male,Caucasian,2024-02-21_22h44.30.145,CategoryRev1_within,2023.2.3,MacIntel,59.88023952,,,,,,,,,,,796.928,0.5,797.4277,797.4277,798.1277,right,1,0.6942,,798.1278,799.1267,2,13,45,12,1,total,1,images/Ex5.jpg,right,,,,,
,,,,,847649,001,26,Male,Caucasian,2024-02-21_22h44.30.145,CategoryRev1_within,2023.2.3,MacIntel,59.88023952,,,,,,,,,,,799.1274,0.7,799.8268,799.8269,800.9455,left,1,1.1069,,800.9455,801.945,2,14,46,0,1,total,1,images/Ex1.jpg,left,,,,,
,,,,,847649,001,26,Male,Caucasian,2024-02-21_22h44.30.145,CategoryRev1_within,2023.2.3,MacIntel,59.88023952,,,,,,,,,,,801.9456,1,802.944,802.9441,804.279,right,1,1.3287,,804.2791,805.2775,2,15,47,7,1,total,1,images/Ex8.jpg,right,,,,,
,,,,,847649,001,26,Male,Caucasian,2024-02-21_22h44.30.145,CategoryRev1_within,2023.2.3,MacIntel,59.88023952,,,,,,,,,,,805.2925,0.9,806.1949,806.195,806.9124,right,1,0.7074,,806.9125,807.9116,3,0,48,15,1,total,1,images/Ex8.jpg,right,,,,,
,,,,,847649,001,26,Male,Caucasian,2024-02-21_22h44.30.145,CategoryRev1_within,2023.2.3,MacIntel,59.88023952,,,,,,,,,,,807.9126,1.3,809.2117,809.2118,809.9471,right,1,0.7315,,809.9472,810.9445,3,1,49,6,1,total,1,images/Ex7.jpg,right,,,,,
,,,,,847649,001,26,Male,Caucasian,2024-02-21_22h44.30.145,CategoryRev1_within,2023.2.3,MacIntel,59.88023952,,,,,,,,,,,810.945,1,811.9453,811.9453,812.7467,left,1,0.7984,,812.7467,813.7454,3,2,50,10,1,total,1,images/Ex3.jpg,left,,,,,
,,,,,847649,001,26,Male,Caucasian,2024-02-21_22h44.30.145,CategoryRev1_within,2023.2.3,MacIntel,59.88023952,,,,,,,,,,,813.7464,0.7,814.4455,814.4455,815.3783,left,1,0.9295,,815.3783,816.379,3,3,51,3,1,total,1,images/Ex4.jpg,left,,,,,
,,,,,847649,001,26,Male,Caucasian,2024-02-21_22h44.30.145,CategoryRev1_within,2023.2.3,MacIntel,59.88023952,,,,,,,,,,,816.3795,1.3,817.6791,817.6791,818.3967,left,1,0.7142,,818.3968,819.3953,3,4,52,11,1,total,1,images/Ex4.jpg,left,,,,,
,,,,,847649,001,26,Male,Caucasian,2024-02-21_22h44.30.145,CategoryRev1_within,2023.2.3,MacIntel,59.88023952,,,,,,,,,,,819.3958,1.1,820.4958,820.4959,822.3949,left,1,1.8948,,822.3949,823.3961,3,5,53,0,1,total,1,images/Ex1.jpg,left,,,,,
,,,,,847649,001,26,Male,Caucasian,2024-02-21_22h44.30.145,CategoryRev1_within,2023.2.3,MacIntel,59.88023952,,,,,,,,,,,823.4112,1.2,824.6127,824.6131,825.4648,right,1,0.8484,,825.4649,826.463,3,6,54,14,1,total,1,images/Ex7.jpg,right,,,,,
,,,,,847649,001,26,Male,Caucasian,2024-02-21_22h44.30.145,CategoryRev1_within,2023.2.3,MacIntel,59.88023952,,,,,,,,,,,826.4634,0.9,827.3623,827.3623,829.2463,left,1,1.8793,,829.2463,830.2466,3,7,55,1,1,total,1,images/Ex2.jpg,left,,,,,
,,,,,847649,001,26,Male,Caucasian,2024-02-21_22h44.30.145,CategoryRev1_within,2023.2.3,MacIntel,59.88023952,,,,,,,,,,,830.2472,1.1,831.3456,831.3456,832.1312,right,1,0.7778,,832.1312,833.13,3,8,56,13,1,total,1,images/Ex6.jpg,right,,,,,
,,,,,847649,001,26,Male,Caucasian,2024-02-21_22h44.30.145,CategoryRev1_within,2023.2.3,MacIntel,59.88023952,,,,,,,,,,,833.1306,1,834.1301,834.1301,834.8986,left,1,0.7651,,834.8987,835.8969,3,9,57,2,1,total,1,images/Ex3.jpg,left,,,,,
,,,,,847649,001,26,Male,Caucasian,2024-02-21_22h44.30.145,CategoryRev1_within,2023.2.3,MacIntel,59.88023952,,,,,,,,,,,835.8972,0.8,836.6978,836.6978,839.2634,right,1,2.5626,,839.2635,840.264,3,10,58,5,1,total,1,images/Ex6.jpg,right,,,,,
,,,,,847649,001,26,Male,Caucasian,2024-02-21_22h44.30.145,CategoryRev1_within,2023.2.3,MacIntel,59.88023952,,,,,,,,,,,840.2792,1,841.2804,841.2804,841.9808,right,1,0.6954,,841.9808,842.9809,3,11,59,12,1,total,1,images/Ex5.jpg,right,,,,,
,,,,,847649,001,26,Male,Caucasian,2024-02-21_22h44.30.145,CategoryRev1_within,2023.2.3,MacIntel,59.88023952,,,,,,,,,,,842.9814,0.6,843.5803,843.5804,844.5821,left,1,0.998,,844.5821,845.5803,3,12,60,9,1,total,1,images/Ex2.jpg,left,,,,,
,,,,,847649,001,26,Male,Caucasian,2024-02-21_22h44.30.145,CategoryRev1_within,2023.2.3,MacIntel,59.88023952,,,,,,,,,,,845.5812,1.1,846.6803,846.6803,848.8479,right,1,2.1575,,848.8479,849.8483,3,13,61,7,1,total,1,images/Ex8.jpg,right,,,,,
,,,,,847649,001,26,Male,Caucasian,2024-02-21_22h44.30.145,CategoryRev1_within,2023.2.3,MacIntel,59.88023952,,,,,,,,,,,849.8599,1,850.848,850.848,851.5149,right,1,0.6607,,851.515,852.5148,3,14,62,4,1,total,1,images/Ex5.jpg,right,,,,,
,,,,,847649,001,26,Male,Caucasian,2024-02-21_22h44.30.145,CategoryRev1_within,2023.2.3,MacIntel,59.88023952,,,,,,,,,,,852.5154,1.4,853.9154,853.9155,854.9491,right,0,1.0233,,854.9491,855.9485,3,15,63,8,1,total,1,images/Ex1.jpg,left,,,,,
,,,,,847649,001,26,Male,Caucasian,2024-02-21_22h44.30.145,CategoryRev1_within,2023.2.3,MacIntel,59.88023952,,,,,,,,,,,855.9492,1.1,857.0484,857.0484,857.8656,right,1,0.8135,,857.8657,858.8652,4,0,64,14,1,total,1,images/Ex7.jpg,right,,,,,
,,,,,847649,001,26,Male,Caucasian,2024-02-21_22h44.30.145,CategoryRev1_within,2023.2.3,MacIntel,59.88023952,,,,,,,,,,,858.8658,1.4,860.2652,860.2652,861.3161,left,1,1.0434,,861.3162,862.3153,4,1,65,3,1,total,1,images/Ex4.jpg,left,,,,,
,,,,,847649,001,26,Male,Caucasian,2024-02-21_22h44.30.145,CategoryRev1_within,2023.2.3,MacIntel,59.88023952,,,,,,,,,,,862.3156,1.4,863.7158,863.7158,864.7818,right,1,1.0561,,864.7818,865.7828,4,2,66,15,1,total,1,images/Ex8.jpg,right,,,,,
,,,,,847649,001,26,Male,Caucasian,2024-02-21_22h44.30.145,CategoryRev1_within,2023.2.3,MacIntel,59.88023952,,,,,,,,,,,865.7834,1.1,866.8824,866.8824,868.0331,right,1,1.1445,,868.0331,869.0326,4,3,67,13,1,total,1,images/Ex6.jpg,right,,,,,
,,,,,847649,001,26,Male,Caucasian,2024-02-21_22h44.30.145,CategoryRev1_within,2023.2.3,MacIntel,59.88023952,,,,,,,,,,,869.0333,0.6,869.6317,869.6318,870.2816,right,1,0.6458,,870.2816,871.2826,4,4,68,12,1,total,1,images/Ex5.jpg,right,,,,,
,,,,,847649,001,26,Male,Caucasian,2024-02-21_22h44.30.145,CategoryRev1_within,2023.2.3,MacIntel,59.88023952,,,,,,,,,,,871.2831,0.8,872.0828,872.0828,872.9334,left,1,0.8469,,872.9334,873.9332,4,5,69,10,1,total,1,images/Ex3.jpg,left,,,,,
,,,,,847649,001,26,Male,Caucasian,2024-02-21_22h44.30.145,CategoryRev1_within,2023.2.3,MacIntel,59.88023952,,,,,,,,,,,873.9338,0.5,874.4323,874.4325,875.1998,right,1,0.7636,,875.1998,876.1998,4,6,70,6,1,total,1,images/Ex7.jpg,right,,,,,
,,,,,847649,001,26,Male,Caucasian,2024-02-21_22h44.30.145,CategoryRev1_within,2023.2.3,MacIntel,59.88023952,,,,,,,,,,,876.2004,0.5,876.6998,876.6999,877.4657,left,1,0.7631,,877.4657,878.4669,4,7,71,1,1,total,1,images/Ex2.jpg,left,,,,,
,,,,,847649,001,26,Male,Caucasian,2024-02-21_22h44.30.145,CategoryRev1_within,2023.2.3,MacIntel,59.88023952,,,,,,,,,,,878.4674,1.1,879.5666,879.5667,880.1858,right,1,0.6147,,880.1858,881.1836,4,8,72,4,1,total,1,images/Ex5.jpg,right,,,,,
,,,,,847649,001,26,Male,Caucasian,2024-02-21_22h44.30.145,CategoryRev1_within,2023.2.3,MacIntel,59.88023952,,,,,,,,,,,881.1842,1.4,882.5827,882.5827,884.0342,right,0,1.4478,,884.0342,885.0323,4,9,73,8,1,total,1,images/Ex1.jpg,left,,,,,
,,,,,847649,001,26,Male,Caucasian,2024-02-21_22h44.30.145,CategoryRev1_within,2023.2.3,MacIntel,59.88023952,,,,,,,,,,,885.0326,0.7,885.7344,885.7345,886.5336,left,1,0.7969,,886.5337,887.5343,4,10,74,2,1,total,1,images/Ex3.jpg,left,,,,,
,,,,,847649,001,26,Male,Caucasian,2024-02-21_22h44.30.145,CategoryRev1_within,2023.2.3,MacIntel,59.88023952,,,,,,,,,,,887.535,0.7,888.2338,888.2339,889.2847,left,1,1.0424,,889.2847,890.2839,4,11,75,9,1,total,1,images/Ex2.jpg,left,,,,,
,,,,,847649,001,26,Male,Caucasian,2024-02-21_22h44.30.145,CategoryRev1_within,2023.2.3,MacIntel,59.88023952,,,,,,,,,,,890.2845,1.5,891.7835,891.7836,893.2512,left,1,1.462,,893.2512,894.2506,4,12,76,0,1,total,1,images/Ex1.jpg,left,,,,,
,,,,,847649,001,26,Male,Caucasian,2024-02-21_22h44.30.145,CategoryRev1_within,2023.2.3,MacIntel,59.88023952,,,,,,,,,,,894.2512,0.5,894.7499,894.75,895.5681,right,1,0.8122,,895.5681,896.5667,4,13,77,5,1,total,1,images/Ex6.jpg,right,,,,,
,,,,,847649,001,26,Male,Caucasian,2024-02-21_22h44.30.145,CategoryRev1_within,2023.2.3,MacIntel,59.88023952,,,,,,,,,,,896.5672,1.3,897.867,897.8671,899.5849,right,0,1.7092,,899.585,900.5836,4,14,78,11,1,total,1,images/Ex4.jpg,left,,,,,
,,,,,847649,001,26,Male,Caucasian,2024-02-21_22h44.30.145,CategoryRev1_within,2023.2.3,MacIntel,59.88023952,,,,,,,,,,,900.5842,1.3,901.8841,901.8841,902.8021,right,1,0.9142,,902.8022,903.8017,4,15,79,7,1,total,1,images/Ex8.jpg,right,,,,,
,,,,,847649,001,26,Male,Caucasian,2024-02-21_22h44.30.145,CategoryRev1_within,2023.2.3,MacIntel,59.88023952,,,,,,,,,,,903.8022,0.5,904.3017,904.3017,905.0196,left,1,0.714,,905.0196,906.0184,5,0,80,10,1,total,1,images/Ex3.jpg,left,,,,,
,,,,,847649,001,26,Male,Caucasian,2024-02-21_22h44.30.145,CategoryRev1_within,2023.2.3,MacIntel,59.88023952,,,,,,,,,,,906.0191,1.2,907.219,907.2191,907.838,right,1,0.6148,,907.8381,908.8353,5,1,81,4,1,total,1,images/Ex5.jpg,right,,,,,
,,,,,847649,001,26,Male,Caucasian,2024-02-21_22h44.30.145,CategoryRev1_within,2023.2.3,MacIntel,59.88023952,,,,,,,,,,,908.836,0.6,909.4348,909.4349,910.0198,right,1,0.5793,,910.0199,911.0188,5,2,82,12,1,total,1,images/Ex5.jpg,right,,,,,
,,,,,847649,001,26,Male,Caucasian,2024-02-21_22h44.30.145,CategoryRev1_within,2023.2.3,MacIntel,59.88023952,,,,,,,,,,,911.0193,1.4,912.4187,912.4188,913.3029,right,1,0.8798,,913.3029,914.3024,5,3,83,7,1,total,1,images/Ex8.jpg,right,,,,,
,,,,,847649,001,26,Male,Caucasian,2024-02-21_22h44.30.145,CategoryRev1_within,2023.2.3,MacIntel,59.88023952,,,,,,,,,,,914.303,0.7,915.0026,915.0026,915.653,right,1,0.6442,,915.653,916.6521,5,4,84,14,1,total,1,images/Ex7.jpg,right,,,,,
,,,,,847649,001,26,Male,Caucasian,2024-02-21_22h44.30.145,CategoryRev1_within,2023.2.3,MacIntel,59.88023952,,,,,,,,,,,916.6527,1.3,917.9524,917.9525,918.8363,left,1,0.8741,,918.8363,919.836,5,5,85,9,1,total,1,images/Ex2.jpg,left,,,,,
,,,,,847649,001,26,Male,Caucasian,2024-02-21_22h44.30.145,CategoryRev1_within,2023.2.3,MacIntel,59.88023952,,,,,,,,,,,919.8366,1.1,920.9361,920.9362,922.4872,left,1,1.5475,,922.4872,923.4861,5,6,86,0,1,total,1,images/Ex1.jpg,left,,,,,
,,,,,847649,001,26,Male,Caucasian,2024-02-21_22h44.30.145,CategoryRev1_within,2023.2.3,MacIntel,59.88023952,,,,,,,,,,,923.5013,0.9,924.403,924.4031,925.1213,left,1,0.7089,,925.1213,926.1201,5,7,87,1,1,total,1,images/Ex2.jpg,left,,,,,
,,,,,847649,001,26,Male,Caucasian,2024-02-21_22h44.30.145,CategoryRev1_within,2023.2.3,MacIntel,59.88023952,,,,,,,,,,,926.1206,0.7,926.8191,926.8191,927.6702,right,1,0.8461,,927.6702,928.669,5,8,88,5,1,total,1,images/Ex6.jpg,right,,,,,
,,,,,847649,001,26,Male,Caucasian,2024-02-21_22h44.30.145,CategoryRev1_within,2023.2.3,MacIntel,59.88023952,,,,,,,,,,,928.6695,1,929.6691,929.6691,930.7701,left,1,1.0902,,930.7701,931.7702,5,9,89,11,1,total,1,images/Ex4.jpg,left,,,,,
,,,,,847649,001,26,Male,Caucasian,2024-02-21_22h44.30.145,CategoryRev1_within,2023.2.3,MacIntel,59.88023952,,,,,,,,,,,931.7708,0.8,932.5695,932.5695,933.3207,right,1,0.75,,933.3207,934.3203,5,10,90,6,1,total,1,images/Ex7.jpg,right,,,,,
,,,,,847649,001,26,Male,Caucasian,2024-02-21_22h44.30.145,CategoryRev1_within,2023.2.3,MacIntel,59.88023952,,,,,,,,,,,934.3207,0.6,934.9203,934.9204,935.7528,left,1,0.8287,,935.7528,936.7544,5,11,91,8,1,total,1,images/Ex1.jpg,left,,,,,
,,,,,847649,001,26,Male,Caucasian,2024-02-21_22h44.30.145,CategoryRev1_within,2023.2.3,MacIntel,59.88023952,,,,,,,,,,,936.755,0.7,937.4531,937.4531,938.1881,right,1,0.7289,,938.1881,939.1871,5,12,92,15,1,total,1,images/Ex8.jpg,right,,,,,
,,,,,847649,001,26,Male,Caucasian,2024-02-21_22h44.30.145,CategoryRev1_within,2023.2.3,MacIntel,59.88023952,,,,,,,,,,,939.1876,0.9,940.087,940.087,940.8714,left,1,0.781,,940.8715,941.8708,5,13,93,3,1,total,1,images/Ex4.jpg,left,,,,,
,,,,,847649,001,26,Male,Caucasian,2024-02-21_22h44.30.145,CategoryRev1_within,2023.2.3,MacIntel,59.88023952,,,,,,,,,,,941.8714,1.1,942.9716,942.9717,944.6203,right,0,1.6465,,944.6204,945.6212,5,14,94,2,1,total,1,images/Ex3.jpg,left,,,,,
,,,,,847649,001,26,Male,Caucasian,2024-02-21_22h44.30.145,CategoryRev1_within,2023.2.3,MacIntel,59.88023952,,,,,,,,,,,945.6366,0.9,946.5379,946.5379,947.6888,right,1,1.1442,,947.6889,948.6881,5,15,95,13,1,total,1,images/Ex6.jpg,right,,,,,
,,,,,847649,001,26,Male,Caucasian,2024-02-21_22h44.30.145,CategoryRev1_within,2023.2.3,MacIntel,59.88023952,,,,,,,,,,,948.6929,1.1,949.7871,949.7871,950.9221,left,0,1.1296,,950.9222,951.9217,0,0,0,11,1,total,2,images/Ex4.jpg,right,,,,,
,,,,,847649,001,26,Male,Caucasian,2024-02-21_22h44.30.145,CategoryRev1_within,2023.2.3,MacIntel,59.88023952,,,,,,,,,,,951.9225,0.9,952.8216,952.8217,955.4553,left,0,2.6286,,955.4553,956.4551,0,1,1,0,1,total,2,images/Ex1.jpg,right,,,,,
,,,,,847649,001,26,Male,Caucasian,2024-02-21_22h44.30.145,CategoryRev1_within,2023.2.3,MacIntel,59.88023952,,,,,,,,,,,956.4705,1.4,957.872,957.8721,959.1395,right,1,1.2629,,959.1396,960.1389,0,2,2,2,1,total,2,images/Ex3.jpg,right,,,,,
,,,,,847649,001,26,Male,Caucasian,2024-02-21_22h44.30.145,CategoryRev1_within,2023.2.3,MacIntel,59.88023952,,,,,,,,,,,960.1396,1,961.1389,961.139,961.9585,right,0,0.8157,,961.9586,962.9557,0,3,3,7,1,total,2,images/Ex8.jpg,left,,,,,
,,,,,847649,001,26,Male,Caucasian,2024-02-21_22h44.30.145,CategoryRev1_within,2023.2.3,MacIntel,59.88023952,,,,,,,,,,,962.9563,0.9,963.8562,963.8563,965.7892,left,0,1.9299,,965.7894,966.7881,0,4,4,8,1,total,2,images/Ex1.jpg,right,,,,,
,,,,,847649,001,26,Male,Caucasian,2024-02-21_22h44.30.145,CategoryRev1_within,2023.2.3,MacIntel,59.88023952,,,,,,,,,,,966.789,1.3,968.0897,968.0897,969.0736,left,0,0.9756,,969.0736,970.0729,0,5,5,1,1,total,2,images/Ex2.jpg,right,,,,,
,,,,,847649,001,26,Male,Caucasian,2024-02-21_22h44.30.145,CategoryRev1_within,2023.2.3,MacIntel,59.88023952,,,,,,,,,,,970.0735,0.6,970.6732,970.6733,971.5065,right,0,0.8269,,971.5065,972.5063,0,6,6,14,1,total,2,images/Ex7.jpg,left,,,,,
,,,,,847649,001,26,Male,Caucasian,2024-02-21_22h44.30.145,CategoryRev1_within,2023.2.3,MacIntel,59.88023952,,,,,,,,,,,972.5074,0.9,973.4064,973.4064,974.2073,left,1,0.7906,,974.2077,975.2069,0,7,7,12,1,total,2,images/Ex5.jpg,left,,,,,
,,,,,847649,001,26,Male,Caucasian,2024-02-21_22h44.30.145,CategoryRev1_within,2023.2.3,MacIntel,59.88023952,,,,,,,,,,,975.2075,0.7,975.9056,975.9056,976.7057,left,1,0.7902,,976.7057,977.7067,0,8,8,4,1,total,2,images/Ex5.jpg,left,,,,,
,,,,,847649,001,26,Male,Caucasian,2024-02-21_22h44.30.145,CategoryRev1_within,2023.2.3,MacIntel,59.88023952,,,,,,,,,,,977.7073,1.1,978.8061,978.8061,979.5901,left,1,0.7791,,979.5902,980.5895,0,9,9,6,1,total,2,images/Ex7.jpg,left,,,,,
,,,,,847649,001,26,Male,Caucasian,2024-02-21_22h44.30.145,CategoryRev1_within,2023.2.3,MacIntel,59.88023952,,,,,,,,,,,980.5901,1.3,981.8903,981.8904,983.3409,right,1,1.4493,,983.3409,984.3405,0,10,10,3,1,total,2,images/Ex4.jpg,right,,,,,
,,,,,847649,001,26,Male,Caucasian,2024-02-21_22h44.30.145,CategoryRev1_within,2023.2.3,MacIntel,59.88023952,,,,,,,,,,,984.3411,0.8,985.1394,985.1394,987.0085,left,1,1.8575,,987.0085,988.007,0,11,11,15,1,total,2,images/Ex8.jpg,left,,,,,
,,,,,847649,001,26,Male,Caucasian,2024-02-21_22h44.30.145,CategoryRev1_within,2023.2.3,MacIntel,59.88023952,,,,,,,,,,,988.022,0.6,988.624,988.6241,989.8902,left,1,1.2629,,989.8903,990.8903,0,12,12,5,1,total,2,images/Ex6.jpg,left,,,,,
,,,,,847649,001,26,Male,Caucasian,2024-02-21_22h44.30.145,CategoryRev1_within,2023.2.3,MacIntel,59.88023952,,,,,,,,,,,990.891,0.9,991.7914,991.7916,992.8602,left,0,1.065,,992.8604,993.858,0,13,13,10,1,total,2,images/Ex3.jpg,right,,,,,
,,,,,847649,001,26,Male,Caucasian,2024-02-21_22h44.30.145,CategoryRev1_within,2023.2.3,MacIntel,59.88023952,,,,,,,,,,,993.8586,1,994.857,994.857,995.9921,right,1,1.1248,,995.9922,996.9913,0,14,14,9,1,total,2,images/Ex2.jpg,right,,,,,
,,,,,847649,001,26,Male,Caucasian,2024-02-21_22h44.30.145,CategoryRev1_within,2023.2.3,MacIntel,59.88023952,,,,,,,,,,,996.9922,0.8,997.7907,997.7907,999.0585,left,1,1.2609,,999.0588,1000.0576,0,15,15,13,1,total,2,images/Ex6.jpg,left,,,,,
,,,,,847649,001,26,Male,Caucasian,2024-02-21_22h44.30.145,CategoryRev1_within,2023.2.3,MacIntel,59.88023952,,,,,,,,,,,1000.0582,0.7,1000.7574,1000.7575,1002.0585,left,1,1.2963,,1002.0586,1003.0581,1,0,16,15,1,total,2,images/Ex8.jpg,left,,,,,
,,,,,847649,001,26,Male,Caucasian,2024-02-21_22h44.30.145,CategoryRev1_within,2023.2.3,MacIntel,59.88023952,,,,,,,,,,,1003.0588,1.5,1004.5572,1004.5572,1005.7419,left,1,1.1829,,1005.7419,1006.742,1,1,17,5,1,total,2,images/Ex6.jpg,left,,,,,
,,,,,847649,001,26,Male,Caucasian,2024-02-21_22h44.30.145,CategoryRev1_within,2023.2.3,MacIntel,59.88023952,,,,,,,,,,,1006.7423,0.5,1007.2413,1007.2413,1008.6091,right,1,1.3603,,1008.6091,1009.6088,1,2,18,0,1,total,2,images/Ex1.jpg,right,,,,,
,,,,,847649,001,26,Male,Caucasian,2024-02-21_22h44.30.145,CategoryRev1_within,2023.2.3,MacIntel,59.88023952,,,,,,,,,,,1009.6207,1.2,1010.8259,1010.826,1011.7766,left,1,0.9377,,1011.7766,1012.7748,1,3,19,6,1,total,2,images/Ex7.jpg,left,,,,,
,,,,,847649,001,26,Male,Caucasian,2024-02-21_22h44.30.145,CategoryRev1_within,2023.2.3,MacIntel,59.88023952,,,,,,,,,,,1012.7753,0.6,1013.3759,1013.376,1015.3255,right,1,1.9468,,1015.3256,1016.3262,1,4,20,3,1,total,2,images/Ex4.jpg,right,,,,,
,,,,,847649,001,26,Male,Caucasian,2024-02-21_22h44.30.145,CategoryRev1_within,2023.2.3,MacIntel,59.88023952,,,,,,,,,,,1016.3264,1.1,1017.4257,1017.4257,1018.2095,left,1,0.7806,,1018.2096,1019.2086,1,5,21,12,1,total,2,images/Ex5.jpg,left,,,,,
,,,,,847649,001,26,Male,Caucasian,2024-02-21_22h44.30.145,CategoryRev1_within,2023.2.3,MacIntel,59.88023952,,,,,,,,,,,1019.2092,0.9,1020.1093,1020.1093,1020.859,left,1,0.7435,,1020.8591,1021.8586,1,6,22,4,1,total,2,images/Ex5.jpg,left,,,,,
,,,,,847649,001,26,Male,Caucasian,2024-02-21_22h44.30.145,CategoryRev1_within,2023.2.3,MacIntel,59.88023952,,,,,,,,,,,1021.859,0.9,1022.7586,1022.7586,1024.0801,left,1,1.3072,,1024.0802,1025.0768,1,7,23,14,1,total,2,images/Ex7.jpg,left,,,,,
,,,,,847649,001,26,Male,Caucasian,2024-02-21_22h44.30.145,CategoryRev1_within,2023.2.3,MacIntel,59.88023952,,,,,,,,,,,1025.0772,0.7,1025.7767,1025.7768,1026.877,left,1,1.0945,,1026.877,1027.8758,1,8,24,13,1,total,2,images/Ex6.jpg,left,,,,,
,,,,,847649,001,26,Male,Caucasian,2024-02-21_22h44.30.145,CategoryRev1_within,2023.2.3,MacIntel,59.88023952,,,,,,,,,,,1027.8764,1,1028.8769,1028.877,1030.244,right,1,1.358,,1030.244,1031.2424,1,9,25,1,1,total,2,images/Ex2.jpg,right,,,,,
,,,,,847649,001,26,Male,Caucasian,2024-02-21_22h44.30.145,CategoryRev1_within,2023.2.3,MacIntel,59.88023952,,,,,,,,,,,1031.2428,0.6,1031.8441,1031.8442,1033.5935,left,0,1.7442,,1033.5935,1034.5928,1,10,26,2,1,total,2,images/Ex3.jpg,right,,,,,
,,,,,847649,001,26,Male,Caucasian,2024-02-21_22h44.30.145,CategoryRev1_within,2023.2.3,MacIntel,59.88023952,,,,,,,,,,,1034.5932,0.9,1035.4937,1035.4937,1036.8945,right,0,1.3947,,1036.8945,1037.8951,1,11,27,7,1,total,2,images/Ex8.jpg,left,,,,,
,,,,,847649,001,26,Male,Caucasian,2024-02-21_22h44.30.145,CategoryRev1_within,2023.2.3,MacIntel,59.88023952,,,,,,,,,,,1037.8956,0.7,1038.5942,1038.5942,1039.5613,right,1,0.9613,,1039.5613,1040.561,1,12,28,9,1,total,2,images/Ex2.jpg,right,,,,,
,,,,,847649,001,26,Male,Caucasian,2024-02-21_22h44.30.145,CategoryRev1_within,2023.2.3,MacIntel,59.88023952,,,,,,,,,,,1040.5616,1,1041.5611,1041.5611,1044.6782,right,1,3.1159,,1044.6782,1045.6782,1,13,29,10,1,total,2,images/Ex3.jpg,right,,,,,
,,,,,847649,001,26,Male,Caucasian,2024-02-21_22h44.30.145,CategoryRev1_within,2023.2.3,MacIntel,59.88023952,,,,,,,,,,,1045.6935,0.5,1046.1947,1046.1948,1048.8119,right,1,2.6053,,1048.8119,1049.812,1,14,30,8,1,total,2,images/Ex1.jpg,right,,,,,
,,,,,847649,001,26,Male,Caucasian,2024-02-21_22h44.30.145,CategoryRev1_within,2023.2.3,MacIntel,59.88023952,,,,,,,,,,,1049.8272,1.1,1050.9282,1050.9282,1051.9281,right,1,0.9915,,1051.9281,1052.9286,1,15,31,11,1,total,2,images/Ex4.jpg,right,,,,,
,,,,,847649,001,26,Male,Caucasian,2024-02-21_22h44.30.145,CategoryRev1_within,2023.2.3,MacIntel,59.88023952,,,,,,,,,,,1052.9295,1.2,1054.1286,1054.1286,1054.9969,right,1,0.8646,,1054.997,1055.9949,2,0,32,11,1,total,2,images/Ex4.jpg,right,,,,,
,,,,,847649,001,26,Male,Caucasian,2024-02-21_22h44.30.145,CategoryRev1_within,2023.2.3,MacIntel,59.88023952,,,,,,,,,,,1055.9956,1,1056.9956,1056.9956,1058.4298,left,1,1.4247,,1058.4298,1059.4291,2,1,33,14,1,total,2,images/Ex7.jpg,left,,,,,
,,,,,847649,001,26,Male,Caucasian,2024-02-21_22h44.30.145,CategoryRev1_within,2023.2.3,MacIntel,59.88023952,,,,,,,,,,,1059.4443,0.6,1060.0458,1060.0458,1061.3471,right,1,1.2977,,1061.3471,1062.3457,2,2,34,9,1,total,2,images/Ex2.jpg,right,,,,,
,,,,,847649,001,26,Male,Caucasian,2024-02-21_22h44.30.145,CategoryRev1_within,2023.2.3,MacIntel,59.88023952,,,,,,,,,,,1062.3463,1.2,1063.546,1063.546,1064.4638,left,1,0.9103,,1064.4638,1065.463,2,3,35,5,1,total,2,images/Ex6.jpg,left,,,,,
,,,,,847649,001,26,Male,Caucasian,2024-02-21_22h44.30.145,CategoryRev1_within,2023.2.3,MacIntel,59.88023952,,,,,,,,,,,1065.4636,1,1066.4628,1066.4629,1067.4803,right,1,1.014,,1067.4804,1068.4797,2,4,36,8,1,total,2,images/Ex1.jpg,right,,,,,
,,,,,847649,001,26,Male,Caucasian,2024-02-21_22h44.30.145,CategoryRev1_within,2023.2.3,MacIntel,59.88023952,,,,,,,,,,,1068.4803,1.2,1069.6798,1069.6799,1070.6966,right,1,1.0138,,1070.6966,1071.6966,2,5,37,3,1,total,2,images/Ex4.jpg,right,,,,,
,,,,,847649,001,26,Male,Caucasian,2024-02-21_22h44.30.145,CategoryRev1_within,2023.2.3,MacIntel,59.88023952,,,,,,,,,,,1071.697,0.7,1072.3973,1072.3973,1073.4803,right,1,1.0728,,1073.4803,1074.48,2,6,38,1,1,total,2,images/Ex2.jpg,right,,,,,
,,,,,847649,001,26,Male,Caucasian,2024-02-21_22h44.30.145,CategoryRev1_within,2023.2.3,MacIntel,59.88023952,,,,,,,,,,,1074.4807,1.3,1075.7794,1075.7794,1077.2487,left,1,1.4671,,1077.2487,1078.2472,2,7,39,13,1,total,2,images/Ex6.jpg,left,,,,,
,,,,,847649,001,26,Male,Caucasian,2024-02-21_22h44.30.145,CategoryRev1_within,2023.2.3,MacIntel,59.88023952,,,,,,,,,,,1078.2477,0.7,1078.9485,1078.9485,1080.3318,left,1,1.3811,,1080.3318,1081.3303,2,8,40,15,1,total,2,images/Ex8.jpg,left,,,,,
,,,,,847649,001,26,Male,Caucasian,2024-02-21_22h44.30.145,CategoryRev1_within,2023.2.3,MacIntel,59.88023952,,,,,,,,,,,1081.331,0.7,1082.0298,1082.0299,1082.6962,left,1,0.6617,,1082.6962,1083.6966,2,9,41,7,1,total,2,images/Ex8.jpg,left,,,,,
,,,,,847649,001,26,Male,Caucasian,2024-02-21_22h44.30.145,CategoryRev1_within,2023.2.3,MacIntel,59.88023952,,,,,,,,,,,1083.6972,0.6,1084.2974,1084.2974,1085.0642,left,0,0.7616,,1085.0642,1086.0648,2,10,42,10,1,total,2,images/Ex3.jpg,right,,,,,
,,,,,847649,001,26,Male,Caucasian,2024-02-21_22h44.30.145,CategoryRev1_within,2023.2.3,MacIntel,59.88023952,,,,,,,,,,,1086.0652,1.5,1087.5642,1087.5642,1088.1309,right,1,0.561,,1088.131,1089.1311,2,11,43,2,1,total,2,images/Ex3.jpg,right,,,,,
,,,,,847649,001,26,Male,Caucasian,2024-02-21_22h44.30.145,CategoryRev1_within,2023.2.3,MacIntel,59.88023952,,,,,,,,,,,1089.1317,1.2,1090.3315,1090.3316,1092.8143,right,1,2.4781,,1092.8143,1093.8145,2,12,44,0,1,total,2,images/Ex1.jpg,right,,,,,
,,,,,847649,001,26,Male,Caucasian,2024-02-21_22h44.30.145,CategoryRev1_within,2023.2.3,MacIntel,59.88023952,,,,,,,,,,,1093.8295,1.5,1095.3311,1095.3311,1096.2489,left,1,0.9144,,1096.2489,1097.2484,2,13,45,12,1,total,2,images/Ex5.jpg,left,,,,,
,,,,,847649,001,26,Male,Caucasian,2024-02-21_22h44.30.145,CategoryRev1_within,2023.2.3,MacIntel,59.88023952,,,,,,,,,,,1097.249,0.9,1098.1479,1098.1479,1099.0168,left,1,0.8664,,1099.0168,1100.0143,2,14,46,6,1,total,2,images/Ex7.jpg,left,,,,,
,,,,,847649,001,26,Male,Caucasian,2024-02-21_22h44.30.145,CategoryRev1_within,2023.2.3,MacIntel,59.88023952,,,,,,,,,,,1100.0149,0.5,1100.5147,1100.5147,1101.1488,left,1,0.6228,,1101.1489,1102.1488,2,15,47,4,1,total,2,images/Ex5.jpg,left,,,,,
,,,,,847649,001,26,Male,Caucasian,2024-02-21_22h44.30.145,CategoryRev1_within,2023.2.3,MacIntel,59.88023952,,,,,,,,,,,1102.1494,1,1103.1477,1103.148,1104.0841,right,0,0.9316,,1104.0842,1105.0821,3,0,48,7,1,total,2,images/Ex8.jpg,left,,,,,
,,,,,847649,001,26,Male,Caucasian,2024-02-21_22h44.30.145,CategoryRev1_within,2023.2.3,MacIntel,59.88023952,,,,,,,,,,,1105.0828,1.4,1106.4822,1106.4822,1107.6652,right,1,1.1776,,1107.6653,1108.6655,3,1,49,0,1,total,2,images/Ex1.jpg,right,,,,,
,,,,,847649,001,26,Male,Caucasian,2024-02-21_22h44.30.145,CategoryRev1_within,2023.2.3,MacIntel,59.88023952,,,,,,,,,,,1108.6661,0.6,1109.2651,1109.2651,1110.2843,right,1,1.0155,,1110.2843,1111.282,3,2,50,11,1,total,2,images/Ex4.jpg,right,,,,,
,,,,,847649,001,26,Male,Caucasian,2024-02-21_22h44.30.145,CategoryRev1_within,2023.2.3,MacIntel,59.88023952,,,,,,,,,,,1111.2828,0.9,1112.1823,1112.1823,1113.6993,right,1,1.5121,,1113.6995,1114.6992,3,3,51,9,1,total,2,images/Ex2.jpg,right,,,,,
,,,,,847649,001,26,Male,Caucasian,2024-02-21_22h44.30.145,CategoryRev1_within,2023.2.3,MacIntel,59.88023952,,,,,,,,,,,1114.6998,0.6,1115.2988,1115.2988,1116.0821,left,1,0.7791,,1116.0822,1117.082,3,4,52,4,1,total,2,images/Ex5.jpg,left,,,,,
,,,,,847649,001,26,Male,Caucasian,2024-02-21_22h44.30.145,CategoryRev1_within,2023.2.3,MacIntel,59.88023952,,,,,,,,,,,1117.0826,1.3,1118.3818,1118.3818,1119.2663,left,1,0.8762,,1119.2663,1120.2664,3,5,53,6,1,total,2,images/Ex7.jpg,left,,,,,
,,,,,847649,001,26,Male,Caucasian,2024-02-21_22h44.30.145,CategoryRev1_within,2023.2.3,MacIntel,59.88023952,,,,,,,,,,,1120.2671,0.8,1121.0663,1121.0663,1124.4504,right,1,3.3723,,1124.4504,1125.4494,3,6,54,10,1,total,2,images/Ex3.jpg,right,,,,,
,,,,,847649,001,26,Male,Caucasian,2024-02-21_22h44.30.145,CategoryRev1_within,2023.2.3,MacIntel,59.88023952,,,,,,,,,,,1125.4638,0.7,1126.1659,1126.1659,1127.9001,left,1,1.731,,1127.9001,1128.9,3,7,55,15,1,total,2,images/Ex8.jpg,left,,,,,
,,,,,847649,001,26,Male,Caucasian,2024-02-21_22h44.30.145,CategoryRev1_within,2023.2.3,MacIntel,59.88023952,,,,,,,,,,,1128.9005,0.9,1129.7999,1129.8,1130.7848,left,1,0.9781,,1130.7849,1131.7841,3,8,56,14,1,total,2,images/Ex7.jpg,left,,,,,
,,,,,847649,001,26,Male,Caucasian,2024-02-21_22h44.30.145,CategoryRev1_within,2023.2.3,MacIntel,59.88023952,,,,,,,,,,,1131.7846,1.3,1133.0837,1133.0837,1134.3006,left,1,1.2107,,1134.3006,1135.3008,3,9,57,5,1,total,2,images/Ex6.jpg,left,,,,,
,,,,,847649,001,26,Male,Caucasian,2024-02-21_22h44.30.145,CategoryRev1_within,2023.2.3,MacIntel,59.88023952,,,,,,,,,,,1135.3013,0.6,1135.9001,1135.9001,1136.6845,left,1,0.7788,,1136.6845,1137.6845,3,10,58,12,1,total,2,images/Ex5.jpg,left,,,,,
,,,,,847649,001,26,Male,Caucasian,2024-02-21_22h44.30.145,CategoryRev1_within,2023.2.3,MacIntel,59.88023952,,,,,,,,,,,1137.6851,0.9,1138.5846,1138.5846,1139.4518,right,1,0.8638,,1139.4518,1140.452,3,11,59,3,1,total,2,images/Ex4.jpg,right,,,,,
,,,,,847649,001,26,Male,Caucasian,2024-02-21_22h44.30.145,CategoryRev1_within,2023.2.3,MacIntel,59.88023952,,,,,,,,,,,1140.4524,0.5,1140.9511,1140.9511,1142.3523,right,1,1.3894,,1142.3523,1143.3515,3,12,60,8,1,total,2,images/Ex1.jpg,right,,,,,
,,,,,847649,001,26,Male,Caucasian,2024-02-21_22h44.30.145,CategoryRev1_within,2023.2.3,MacIntel,59.88023952,,,,,,,,,,,1143.3521,1.2,1144.5516,1144.5516,1145.5177,left,1,0.9629,,1145.5178,1146.518,3,13,61,13,1,total,2,images/Ex6.jpg,left,,,,,
,,,,,847649,001,26,Male,Caucasian,2024-02-21_22h44.30.145,CategoryRev1_within,2023.2.3,MacIntel,59.88023952,,,,,,,,,,,1146.5186,1.1,1147.6185,1147.6186,1149.2851,right,1,1.6603,,1149.2853,1150.2855,3,14,62,2,1,total,2,images/Ex3.jpg,right,,,,,
,,,,,847649,001,26,Male,Caucasian,2024-02-21_22h44.30.145,CategoryRev1_within,2023.2.3,MacIntel,59.88023952,,,,,,,,,,,1150.2861,0.5,1150.7848,1150.7849,1151.6522,right,1,0.8595,,1151.6522,1152.6521,3,15,63,1,1,total,2,images/Ex2.jpg,right,,,,,
,,,,,847649,001,26,Male,Caucasian,2024-02-21_22h44.30.145,CategoryRev1_within,2023.2.3,MacIntel,59.88023952,,,,,,,,,,,1152.6528,0.5,1153.1527,1153.1528,1154.52,left,1,1.3637,,1154.52,1155.519,4,0,64,15,1,total,2,images/Ex8.jpg,left,,,,,
,,,,,847649,001,26,Male,Caucasian,2024-02-21_22h44.30.145,CategoryRev1_within,2023.2.3,MacIntel,59.88023952,,,,,,,,,,,1155.5337,1,1156.5358,1156.5358,1157.4197,right,1,0.8775,,1157.4198,1158.4191,4,1,65,9,1,total,2,images/Ex2.jpg,right,,,,,
,,,,,847649,001,26,Male,Caucasian,2024-02-21_22h44.30.145,CategoryRev1_within,2023.2.3,MacIntel,59.88023952,,,,,,,,,,,1158.4197,0.7,1159.1191,1159.1191,1160.1199,left,1,0.9912,,1160.1199,1161.1191,4,2,66,13,1,total,2,images/Ex6.jpg,left,,,,,
,,,,,847649,001,26,Male,Caucasian,2024-02-21_22h44.30.145,CategoryRev1_within,2023.2.3,MacIntel,59.88023952,,,,,,,,,,,1161.1196,1,1162.1191,1162.1192,1162.9709,left,1,0.8477,,1162.9709,1163.9691,4,3,67,4,1,total,2,images/Ex5.jpg,left,,,,,
,,,,,847649,001,26,Male,Caucasian,2024-02-21_22h44.30.145,CategoryRev1_within,2023.2.3,MacIntel,59.88023952,,,,,,,,,,,1163.9697,1,1164.9691,1164.9691,1165.7867,right,1,0.8067,,1165.7867,1166.7863,4,4,68,11,1,total,2,images/Ex4.jpg,right,,,,,
,,,,,847649,001,26,Male,Caucasian,2024-02-21_22h44.30.145,CategoryRev1_within,2023.2.3,MacIntel,59.88023952,,,,,,,,,,,1166.7868,0.6,1167.387,1167.387,1168.1693,right,1,0.7768,,1168.1693,1169.1687,4,5,69,1,1,total,2,images/Ex2.jpg,right,,,,,
,,,,,847649,001,26,Male,Caucasian,2024-02-21_22h44.30.145,CategoryRev1_within,2023.2.3,MacIntel,59.88023952,,,,,,,,,,,1169.169,1.3,1170.4701,1170.4701,1171.4695,right,0,0.9894,,1171.4695,1172.4691,4,6,70,5,1,total,2,images/Ex6.jpg,left,,,,,
,,,,,847649,001,26,Male,Caucasian,2024-02-21_22h44.30.145,CategoryRev1_within,2023.2.3,MacIntel,59.88023952,,,,,,,,,,,1172.4697,0.9,1173.3691,1173.3692,1174.2724,left,1,0.8998,,1174.2724,1175.2699,4,7,71,14,1,total,2,images/Ex7.jpg,left,,,,,
,,,,,847649,001,26,Male,Caucasian,2024-02-21_22h44.30.145,CategoryRev1_within,2023.2.3,MacIntel,59.88023952,,,,,,,,,,,1175.2702,1.4,1176.6703,1176.6703,1177.5544,right,1,0.8785,,1177.5545,1178.5539,4,8,72,8,1,total,2,images/Ex1.jpg,right,,,,,
,,,,,847649,001,26,Male,Caucasian,2024-02-21_22h44.30.145,CategoryRev1_within,2023.2.3,MacIntel,59.88023952,,,,,,,,,,,1178.5545,0.6,1179.1537,1179.1538,1180.2216,right,1,1.0646,,1180.2217,1181.2203,4,9,73,0,1,total,2,images/Ex1.jpg,right,,,,,
,,,,,847649,001,26,Male,Caucasian,2024-02-21_22h44.30.145,CategoryRev1_within,2023.2.3,MacIntel,59.88023952,,,,,,,,,,,1181.2209,0.6,1181.8208,1181.8208,1182.6045,right,1,0.7719,,1182.6045,1183.6047,4,10,74,3,1,total,2,images/Ex4.jpg,right,,,,,
,,,,,847649,001,26,Male,Caucasian,2024-02-21_22h44.30.145,CategoryRev1_within,2023.2.3,MacIntel,59.88023952,,,,,,,,,,,1183.6053,1.3,1184.9043,1184.9044,1186.572,left,1,1.6565,,1186.572,1187.5709,4,11,75,7,1,total,2,images/Ex8.jpg,left,,,,,
,,,,,847649,001,26,Male,Caucasian,2024-02-21_22h44.30.145,CategoryRev1_within,2023.2.3,MacIntel,59.88023952,,,,,,,,,,,1187.5859,1.3,1188.8889,1188.889,1189.8391,left,1,0.9407,,1189.8391,1190.8385,4,12,76,6,1,total,2,images/Ex7.jpg,left,,,,,
,,,,,847649,001,26,Male,Caucasian,2024-02-21_22h44.30.145,CategoryRev1_within,2023.2.3,MacIntel,59.88023952,,,,,,,,,,,1190.839,1.3,1192.1383,1192.1385,1192.9551,left,1,0.8135,,1192.9552,1193.9551,4,13,77,12,1,total,2,images/Ex5.jpg,left,,,,,
,,,,,847649,001,26,Male,Caucasian,2024-02-21_22h44.30.145,CategoryRev1_within,2023.2.3,MacIntel,59.88023952,,,,,,,,,,,1193.9561,1.5,1195.454,1195.454,1196.6718,right,1,1.2153,,1196.6718,1197.6716,4,14,78,2,1,total,2,images/Ex3.jpg,right,,,,,
,,,,,847649,001,26,Male,Caucasian,2024-02-21_22h44.30.145,CategoryRev1_within,2023.2.3,MacIntel,59.88023952,,,,,,,,,,,1197.6867,0.6,1198.2886,1198.2886,1198.9398,right,1,0.6493,,1198.9399,1199.9384,4,15,79,10,1,total,2,images/Ex3.jpg,right,,,,,
,,,,,847649,001,26,Male,Caucasian,2024-02-21_22h44.30.145,CategoryRev1_within,2023.2.3,MacIntel,59.88023952,,,,,,,,,,,1199.9389,1,1200.938,1200.938,1201.7722,right,1,0.8236,,1201.7723,1202.7723,5,0,80,11,1,total,2,images/Ex4.jpg,right,,,,,
,,,,,847649,001,26,Male,Caucasian,2024-02-21_22h44.30.145,CategoryRev1_within,2023.2.3,MacIntel,59.88023952,,,,,,,,,,,1202.7729,0.6,1203.3722,1203.3722,1204.542,right,1,1.1675,,1204.5421,1205.5383,5,1,81,9,1,total,2,images/Ex2.jpg,right,,,,,
,,,,,847649,001,26,Male,Caucasian,2024-02-21_22h44.30.145,CategoryRev1_within,2023.2.3,MacIntel,59.88023952,,,,,,,,,,,1205.5495,1.2,1206.739,1206.739,1207.523,right,1,0.7735,,1207.523,1208.5227,5,2,82,0,1,total,2,images/Ex1.jpg,right,,,,,
,,,,,847649,001,26,Male,Caucasian,2024-02-21_22h44.30.145,CategoryRev1_within,2023.2.3,MacIntel,59.88023952,,,,,,,,,,,1208.5234,0.9,1209.4227,1209.4227,1210.2224,left,1,0.7964,,1210.2224,1211.2223,5,3,83,14,1,total,2,images/Ex7.jpg,left,,,,,
,,,,,847649,001,26,Male,Caucasian,2024-02-21_22h44.30.145,CategoryRev1_within,2023.2.3,MacIntel,59.88023952,,,,,,,,,,,1211.2227,1.3,1212.5238,1212.5238,1213.6598,left,1,1.1328,,1213.6598,1214.6569,5,4,84,7,1,total,2,images/Ex8.jpg,left,,,,,
,,,,,847649,001,26,Male,Caucasian,2024-02-21_22h44.30.145,CategoryRev1_within,2023.2.3,MacIntel,59.88023952,,,,,,,,,,,1214.6576,0.6,1215.2565,1215.2565,1216.09,left,1,0.8313,,1216.09,1217.0889,5,5,85,4,1,total,2,images/Ex5.jpg,left,,,,,
,,,,,847649,001,26,Male,Caucasian,2024-02-21_22h44.30.145,CategoryRev1_within,2023.2.3,MacIntel,59.88023952,,,,,,,,,,,1217.0893,1.3,1218.3895,1218.3895,1219.2239,left,1,0.8217,,1219.224,1220.2236,5,6,86,6,1,total,2,images/Ex7.jpg,left,,,,,
,,,,,847649,001,26,Male,Caucasian,2024-02-21_22h44.30.145,CategoryRev1_within,2023.2.3,MacIntel,59.88023952,,,,,,,,,,,1220.2238,0.7,1220.9235,1220.9235,1223.3398,left,1,2.4047,,1223.3398,1224.3395,5,7,87,15,1,total,2,images/Ex8.jpg,left,,,,,
,,,,,847649,001,26,Male,Caucasian,2024-02-21_22h44.30.145,CategoryRev1_within,2023.2.3,MacIntel,59.88023952,,,,,,,,,,,1224.3519,0.7,1225.0397,1225.0397,1227.4573,left,1,2.4063,,1227.4574,1228.4573,5,8,88,13,1,total,2,images/Ex6.jpg,left,,,,,
,,,,,847649,001,26,Male,Caucasian,2024-02-21_22h44.30.145,CategoryRev1_within,2023.2.3,MacIntel,59.88023952,,,,,,,,,,,1228.4726,1.5,1229.974,1229.974,1230.9402,left,1,0.9629,,1230.9402,1231.9408,5,9,89,12,1,total,2,images/Ex5.jpg,left,,,,,
,,,,,847649,001,26,Male,Caucasian,2024-02-21_22h44.30.145,CategoryRev1_within,2023.2.3,MacIntel,59.88023952,,,,,,,,,,,1231.9414,0.6,1232.541,1232.541,1233.4576,right,1,0.9053,,1233.4576,1234.4578,5,10,90,8,1,total,2,images/Ex1.jpg,right,,,,,
,,,,,847649,001,26,Male,Caucasian,2024-02-21_22h44.30.145,CategoryRev1_within,2023.2.3,MacIntel,59.88023952,,,,,,,,,,,1234.4585,0.6,1235.0578,1235.0578,1236.0754,right,1,1.0109,,1236.0754,1237.0746,5,11,91,1,1,total,2,images/Ex2.jpg,right,,,,,
,,,,,847649,001,26,Male,Caucasian,2024-02-21_22h44.30.145,CategoryRev1_within,2023.2.3,MacIntel,59.88023952,,,,,,,,,,,1237.0756,0.5,1237.575,1237.5751,1238.6424,right,1,1.0583,,1238.6424,1239.6408,5,12,92,2,1,total,2,images/Ex3.jpg,right,,,,,
,,,,,847649,001,26,Male,Caucasian,2024-02-21_22h44.30.145,CategoryRev1_within,2023.2.3,MacIntel,59.88023952,,,,,,,,,,,1239.6414,0.8,1240.4416,1240.4416,1241.3084,right,1,0.8562,,1241.3084,1242.3091,5,13,93,3,1,total,2,images/Ex4.jpg,right,,,,,
,,,,,847649,001,26,Male,Caucasian,2024-02-21_22h44.30.145,CategoryRev1_within,2023.2.3,MacIntel,59.88023952,,,,,,,,,,,1242.3094,0.6,1242.9083,1242.9083,1244.0093,left,1,1.0925,,1244.0093,1245.0084,5,14,94,5,1,total,2,images/Ex6.jpg,left,,,,,
,,,,,847649,001,26,Male,Caucasian,2024-02-21_22h44.30.145,CategoryRev1_within,2023.2.3,MacIntel,59.88023952,,,,,,,,,,,1245.0091,0.5,1245.508,1245.5081,1246.3579,right,1,0.8457,,1246.358,1247.3587,5,15,95,10,1,total,2,images/Ex3.jpg,right,,,,,
,,,,,847649,001,26,Male,Caucasian,2024-02-21_22h44.30.145,CategoryRev1_within,2023.2.3,MacIntel,59.88023952,,,,,,,,,,,,,,,,,,,,,,,,,,,,,,,1247.3595,1256.777,space,9.3888,