tasksRows,trialsRows,eachBlock,task,phase,Exemplars,r_correct,task.thisRepN,task.thisTrialN,task.thisN,task.thisIndex,phase.thisRepN,phase.thisTrialN,phase.thisN,phase.thisIndex,trials.thisRepN,trials.thisTrialN,trials.thisN,trials.thisIndex,thisRow.t,notes,infCons.started,informed_consent.started,resp_consent.started,infCons.stopped,resp_consent.keys,resp_consent.rt,resp_consent.duration,instructions.started,text_instructions.started,resp_instructions.started,instructions.stopped,resp_instructions.keys,resp_instructions.rt,resp_instructions.duration,nextTask.started,next_task_ready.started,ready_task.started,nextTask.stopped,ready_task.keys,ready_task.rt,ready_task.duration,fixation.started,ITI,text_fixation.started,text_fixation.stopped,fixation.stopped,stim.started,stimulus.started,response_northern_text.started,response_southern_text.started,response.started,stim.stopped,response.keys,response.corr,response.rt,response.duration,feedback.started,feedback_text.started,correct_tone.started,incorrect_tone.started,feedback.stopped,correct_tone.stopped,incorrect_tone.stopped,feedback_text.stopped,end.started,text_end.started,resp_end.started,end.stopped,resp_end.keys,resp_end.rt,resp_end.duration,participant,session,Age?,Gender?,Nationality?,date,expName,psychopyVersion,frameRate,expStart,
,,,,,,,,,,,,,,,,,,,,,0.003866499988362193,0.013098499970510602,0.013098499970510602,180.35806369991042,space,180.32785820006393,None,,,,,,,,,,,,,,,,,,,,,,,,,,,,,,,,,,,,,,,,,,,,,sophTest,001,25,F,German,2024-02-20_18h19.28.442,CatRev1_within,2023.2.3,59.98152574491557,2024-02-20 18h19.53.030400 -0500,
,,,,,,,,,,,,,,,,,,,,,,,,,,,,180.35810469998978,180.37248379993252,180.37248379993252,261.5690695999656,space,81.18372060009278,None,,,,,,,,,,,,,,,,,,,,,,,,,,,,,,,,,,,,,,sophTest,001,25,F,German,2024-02-20_18h19.28.442,CatRev1_within,2023.2.3,59.98152574491557,2024-02-20 18h19.53.030400 -0500,
 2:4, 32:48,6,partial,1,images/Ex16.jpg,right,0,0,0,1,0,0,0,0,0,0,0,7,267.3922335000243,,,,,,,,,,,,,,,,261.57548770005815,261.58400649996474,261.58400649996474,267.36790980002843,space,5.771163299912587,None,267.38587619992904,0.8,267.3922335000243,268.2629941999912,268.1840637999121,268.18408389994875,268.2629941999912,268.2629941999912,268.2629941999912,0.030257200123742223,269.53704429999925,right,1,1.307586600072682,None,269.53777389996685,269.5605472000316,269.56937648006715,269.56937648006715,270.5504288999364,,,,,,,,,,,sophTest,001,25,F,German,2024-02-20_18h19.28.442,CatRev1_within,2023.2.3,59.98152574491557,2024-02-20 18h19.53.030400 -0500,
 2:4, 32:48,6,partial,1,images/Ex14.jpg,right,0,0,0,1,0,0,0,0,0,1,1,5,270.5669155998621,,,,,,,,,,,,,,,,,,,,,,,270.55079249991104,1.2,270.5669155998621,271.7873875000514,271.75051239994355,271.7505307998508,271.7873875000514,271.7873875000514,271.7873875000514,0.02658269996754825,274.12017069989815,left,0,2.3288335998076946,None,274.120621799957,274.133372399956,274.1356837399071,274.1356837399071,275.1174468998797,274.3909195999149,274.3909195999149,275.1334959999658,,,,,,,,sophTest,001,25,F,German,2024-02-20_18h19.28.442,CatRev1_within,2023.2.3,59.98152574491557,2024-02-20 18h19.53.030400 -0500,
 2:4, 32:48,6,partial,1,images/Ex13.jpg,right,0,0,0,1,0,0,0,0,0,2,2,12,275.1334959999658,,,,,,,,,,,,,,,,,,,,,,,275.11780259991065,0.7,275.1334959999658,275.8497206000611,275.8169617999811,275.8169803000055,275.8497206000611,275.8497206000611,275.8497206000611,0.023040000116452575,276.9365085000172,left,0,1.082024300005287,None,276.9369725000579,276.9498234000057,276.95225004001986,276.95225004001986,277.9335779999383,277.192555999849,277.192555999849,277.9497543000616,,,,,,,,sophTest,001,25,F,German,2024-02-20_18h19.28.442,CatRev1_within,2023.2.3,59.98152574491557,2024-02-20 18h19.53.030400 -0500,
 2:4, 32:48,6,partial,1,images/Ex11.jpg,left,0,0,0,1,0,0,0,0,0,3,3,10,277.9497543000616,,,,,,,,,,,,,,,,,,,,,,,277.9339238998946,0.6,277.9497543000616,278.5687702000141,278.533777799923,278.5337944000494,278.5687702000141,278.5687702000141,278.5687702000141,0.024979100096970797,279.41963889985345,right,0,0.8475798999425024,None,279.4201022000052,279.43297369987704,279.43540724006016,279.43540724006016,280.4168346999213,,,280.4328584000468,,,,,,,,sophTest,001,25,F,German,2024-02-20_18h19.28.442,CatRev1_within,2023.2.3,59.98152574491557,2024-02-20 18h19.53.030400 -0500,
 2:4, 32:48,6,partial,1,images/Ex15.jpg,right,0,0,0,1,0,0,0,0,0,4,4,14,280.4328584000468,,,,,,,,,,,,,,,,,,,,,,,280.4171948998701,0.6,280.4328584000468,281.0511816998478,281.0167286999058,281.016749399947,281.0511816998478,281.0511816998478,281.0511816998478,0.024667700054123998,282.31965339998715,right,1,1.2681386999320239,None,282.3201035000384,282.3346913000569,282.3353411400458,282.3353411400458,283.3328996999189,282.5538520999253,282.5538520999253,,,,,,,,,sophTest,001,25,F,German,2024-02-20_18h19.28.442,CatRev1_within,2023.2.3,59.98152574491557,2024-02-20 18h19.53.030400 -0500,
 2:4, 32:48,6,partial,1,images/Ex16.jpg,right,0,0,0,1,0,0,0,0,0,5,5,15,283.34938589995727,,,,,,,,,,,,,,,,,,,,,,,283.3332626000047,1.3,283.34938589995727,284.65912039997056,284.63319580000825,284.6332149999216,284.65912039997056,284.65912039997056,284.65912039997056,0.016445100074633956,286.08615990006365,right,1,1.42437390005216,None,286.08660929999314,286.0994667999912,286.1019243398914,286.1019243398914,287.0835102000274,,,287.0995668999385,,,,,,,,sophTest,001,25,F,German,2024-02-20_18h19.28.442,CatRev1_within,2023.2.3,59.98152574491557,2024-02-20 18h19.53.030400 -0500,
 2:4, 32:48,6,partial,1,images/Ex13.jpg,right,0,0,0,1,0,0,0,0,0,6,6,4,287.0995668999385,,,,,,,,,,,,,,,,,,,,,,,287.0838679999579,0.7,287.0995668999385,287.80715689994395,287.78303499985486,287.7830546000041,287.80715689994395,287.80715689994395,287.80715689994395,0.014382599852979183,289.13594090007246,left,0,1.3257965000811964,None,289.1363838999532,289.1492319998797,289.1516573400004,289.1516573400004,290.1329646999948,289.39107510005124,289.39107510005124,290.1490356998984,,,,,,,,sophTest,001,25,F,German,2024-02-20_18h19.28.442,CatRev1_within,2023.2.3,59.98152574491557,2024-02-20 18h19.53.030400 -0500,
 2:4, 32:48,6,partial,1,images/Ex9.jpg,left,0,0,0,1,0,0,0,0,0,7,7,8,290.1490356998984,,,,,,,,,,,,,,,,,,,,,,,290.1333293998614,0.5,290.1490356998984,290.6632695000153,290.63302159984596,290.6330416998826,290.6632695000153,290.6632695000153,290.6632695000153,0.020735800033435225,291.7197742999997,right,0,1.0645006999839097,None,291.7202719999477,291.7324866000563,291.73504654003773,291.73504654003773,292.71613959991373,291.96461639995687,291.96461639995687,292.73226940003224,,,,,,,,sophTest,001,25,F,German,2024-02-20_18h19.28.442,CatRev1_within,2023.2.3,59.98152574491557,2024-02-20 18h19.53.030400 -0500,
 2:4, 32:48,6,partial,1,images/Ex10.jpg,left,0,0,0,1,0,0,0,0,0,8,8,9,292.73226940003224,,,,,,,,,,,,,,,,,,,,,,,292.7165121999569,1.3,292.73226940003224,294.0498877998907,294.01607690006495,294.0160958999768,294.0498877998907,294.0498877998907,294.0498877998907,0.023565099807456136,295.21914339996874,left,1,1.1687324999365956,None,295.2195864999667,295.2325724000111,295.2347967399983,295.2347967399983,296.21596699999645,,,296.2320029998664,,,,,,,,sophTest,001,25,F,German,2024-02-20_18h19.28.442,CatRev1_within,2023.2.3,59.98152574491557,2024-02-20 18h19.53.030400 -0500,
 2:4, 32:48,6,partial,1,images/Ex12.jpg,left,0,0,0,1,0,0,0,0,0,9,9,3,296.2320029998664,,,,,,,,,,,,,,,,,,,,,,,296.216327900067,0.7,296.2320029998664,296.953936399892,296.91600700002164,296.9160257000476,296.953936399892,296.953936399892,296.953936399892,0.02807220001704991,298.53568700002506,right,0,1.5867205997928977,None,298.5361385999713,298.54874600004405,298.55118574004155,298.55118574004155,299.5324297999032,298.77235119999386,298.77235119999386,299.5485799999442,,,,,,,,sophTest,001,25,F,German,2024-02-20_18h19.28.442,CatRev1_within,2023.2.3,59.98152574491557,2024-02-20 18h19.53.030400 -0500,
 2:4, 32:48,6,partial,1,images/Ex10.jpg,left,0,0,0,1,0,0,0,0,0,10,10,1,299.5485799999442,,,,,,,,,,,,,,,,,,,,,,,299.53276710002683,1.0,299.5485799999442,300.5596326000523,300.53235869994387,300.53237809985876,300.5596326000523,300.5596326000523,300.5596326000523,0.01730629988014698,301.385301399976,left,1,0.8217994999140501,None,301.3857561000623,301.39856130001135,301.4009920399403,301.4009920399403,302.3824823999312,301.61843979987316,301.61843979987316,302.39850470004603,,,,,,,,sophTest,001,25,F,German,2024-02-20_18h19.28.442,CatRev1_within,2023.2.3,59.98152574491557,2024-02-20 18h19.53.030400 -0500,
 2:4, 32:48,6,partial,1,images/Ex9.jpg,left,0,0,0,1,0,0,0,0,0,11,11,0,302.39850470004603,,,,,,,,,,,,,,,,,,,,,,,302.38284830003977,0.7,302.39850470004603,303.1046797998715,303.08252969989553,303.0825463999063,303.1046797998715,303.1046797998715,303.1046797998715,0.01206330000422895,303.86833119997755,right,0,0.7565627999138087,None,303.868790499866,303.88169229985215,303.88407563988585,303.88407563988585,304.8655178998597,304.12965249991976,304.12965249991976,304.88152990001254,,,,,,,,sophTest,001,25,F,German,2024-02-20_18h19.28.442,CatRev1_within,2023.2.3,59.98152574491557,2024-02-20 18h19.53.030400 -0500,
 2:4, 32:48,6,partial,1,images/Ex14.jpg,right,0,0,0,1,0,0,0,0,0,12,12,13,304.88152990001254,,,,,,,,,,,,,,,,,,,,,,,304.86587850004435,0.7,304.88152990001254,305.5901897000149,305.56543720001355,305.5654567000456,305.5901897000149,305.5901897000149,305.5901897000149,0.015299699967727065,306.41875229985453,left,0,0.8365501998923719,None,306.4192065000534,306.4317631998565,306.43402693991084,306.43402693991084,307.4154151000548,,,307.4314484000206,,,,,,,,sophTest,001,25,F,German,2024-02-20_18h19.28.442,CatRev1_within,2023.2.3,59.98152574491557,2024-02-20 18h19.53.030400 -0500,
 2:4, 32:48,6,partial,1,images/Ex11.jpg,left,0,0,0,1,0,0,0,0,0,13,13,2,307.4314484000206,,,,,,,,,,,,,,,,,,,,,,,307.4157718999777,1.1,307.4314484000206,308.5418328999076,308.51529189990833,308.51531310006976,308.5418328999076,308.5418328999076,308.5418328999076,0.016915000043809414,309.71825459995307,right,0,1.1810010001063347,None,309.7187475999817,309.73149959999137,309.73395173985045,309.73395173985045,310.71541199996136,309.96172600006685,309.96172600006685,310.7315815000329,,,,,,,,sophTest,001,25,F,German,2024-02-20_18h19.28.442,CatRev1_within,2023.2.3,59.98152574491557,2024-02-20 18h19.53.030400 -0500,
 2:4, 32:48,6,partial,1,images/Ex15.jpg,right,0,0,0,1,0,0,0,0,0,14,14,6,310.7315815000329,,,,,,,,,,,,,,,,,,,,,,,310.71575089986436,1.2,310.7315815000329,311.9410166000016,311.91507370001636,311.9150924999267,311.9410166000016,311.9410166000016,311.9410166000016,0.016644000075757504,313.11817259993404,right,1,1.1814001998864114,None,313.1186466999352,313.13128459989093,313.133720739861,313.133720739861,314.11514090001583,313.3898398000747,313.3898398000747,314.13112049992196,,,,,,,,sophTest,001,25,F,German,2024-02-20_18h19.28.442,CatRev1_within,2023.2.3,59.98152574491557,2024-02-20 18h19.53.030400 -0500,
 2:4, 32:48,6,partial,1,images/Ex12.jpg,left,0,0,0,1,0,0,0,0,0,15,15,11,314.13112049992196,,,,,,,,,,,,,,,,,,,,,,,314.115510399919,0.8,314.13112049992196,314.94373179995455,314.91514800000004,314.9151767999865,314.94373179995455,314.94373179995455,314.94373179995455,0.018944100011140108,316.48447989998385,right,0,1.5347419001627713,None,316.4849598000292,316.49769570003264,316.50012863997836,316.50012863997836,317.481515499996,316.71439499990083,316.71439499990083,317.49763050000183,,,,,,,,sophTest,001,25,F,German,2024-02-20_18h19.28.442,CatRev1_within,2023.2.3,59.98152574491557,2024-02-20 18h19.53.030400 -0500,
 2:4, 32:48,6,partial,1,images/Ex9.jpg,left,0,0,0,1,0,0,0,0,1,0,16,0,317.49763050000183,,,,,,,,,,,,,,,,,,,,,,,317.48185639991425,0.7,317.49763050000183,318.2036891998723,318.18148240004666,318.18149999994785,318.2036891998723,318.2036891998723,318.2036891998723,0.012330200057476759,319.38422859995626,right,0,1.188847600016743,None,319.3846759998705,319.39755069999956,319.39989523997065,319.39989523997065,320.3813881999813,319.6290668998845,319.6290668998845,320.3974418998696,,,,,,,,sophTest,001,25,F,German,2024-02-20_18h19.28.442,CatRev1_within,2023.2.3,59.98152574491557,2024-02-20 18h19.53.030400 -0500,
 2:4, 32:48,6,partial,1,images/Ex14.jpg,right,0,0,0,1,0,0,0,0,1,1,17,13,320.3974418998696,,,,,,,,,,,,,,,,,,,,,,,320.3817552998662,1.0,320.3974418998696,321.407301899977,321.38128579990007,321.3813036000356,321.407301899977,321.407301899977,321.407301899977,0.016501599922776222,322.2011168000754,left,0,0.79642069991678,None,322.20158079988323,322.2141887000762,322.21661653986666,322.21661653986666,323.19820240000263,322.4650530999061,322.4650530999061,323.21435540006496,,,,,,,,sophTest,001,25,F,German,2024-02-20_18h19.28.442,CatRev1_within,2023.2.3,59.98152574491557,2024-02-20 18h19.53.030400 -0500,
 2:4, 32:48,6,partial,1,images/Ex14.jpg,right,0,0,0,1,0,0,0,0,1,2,18,5,323.21435540006496,,,,,,,,,,,,,,,,,,,,,,,323.198621599935,0.9,323.21435540006496,324.1214765000623,324.0977510998491,324.0977694999892,324.1214765000623,324.1214765000623,324.1214765000623,0.014446600107476115,324.9173003998585,right,1,0.7927965999115258,None,324.91776059987023,324.9306359998882,324.93299923988525,324.93299923988525,325.9145287000574,,,325.93048630002886,,,,,,,,sophTest,001,25,F,German,2024-02-20_18h19.28.442,CatRev1_within,2023.2.3,59.98152574491557,2024-02-20 18h19.53.030400 -0500,
 2:4, 32:48,6,partial,1,images/Ex16.jpg,right,0,0,0,1,0,0,0,0,1,3,19,7,325.93048630002886,,,,,,,,,,,,,,,,,,,,,,,325.9149034000002,0.9,325.93048630002886,326.8420968998689,326.81455879984424,326.81457709986717,326.8420968998689,326.8420968998689,326.8420968998689,0.017596299992874265,327.7341096000746,right,1,0.8956601000390947,None,327.7346262000501,327.7472124998458,327.74975434003863,327.74975434003863,328.7310041000601,327.9709312999621,327.9709312999621,328.74699170002714,,,,,,,,sophTest,001,25,F,German,2024-02-20_18h19.28.442,CatRev1_within,2023.2.3,59.98152574491557,2024-02-20 18h19.53.030400 -0500,
 2:4, 32:48,6,partial,1,images/Ex11.jpg,left,0,0,0,1,0,0,0,0,1,4,20,10,328.74699170002714,,,,,,,,,,,,,,,,,,,,,,,328.7313717000652,0.8,328.74699170002714,329.5562928998843,329.530921400059,329.5309410998598,329.5562928998843,329.5562928998843,329.5562928998843,0.015853999881073833,330.9341617000755,left,1,1.3847585001494735,None,330.9346322999336,330.94735240004957,330.94981774000917,330.94981774000917,331.93085519992746,,,331.94681039988063,,,,,,,,sophTest,001,25,F,German,2024-02-20_18h19.28.442,CatRev1_within,2023.2.3,59.98152574491557,2024-02-20 18h19.53.030400 -0500,
 2:4, 32:48,6,partial,1,images/Ex12.jpg,left,0,0,0,1,0,0,0,0,1,5,21,3,331.94681039988063,,,,,,,,,,,,,,,,,,,,,,,331.93123689992353,1.3,331.94681039988063,333.2582165999338,333.2306347999256,333.2306532000657,333.2582165999338,333.2582165999338,333.2582165999338,0.01808600011281669,334.38356649992056,left,1,1.1263012001290917,None,334.3840053998865,334.3969246998895,334.3993711400544,334.3993711400544,335.3810725999065,334.6185765999835,334.6185765999835,335.39701929991134,,,,,,,,sophTest,001,25,F,German,2024-02-20_18h19.28.442,CatRev1_within,2023.2.3,59.98152574491557,2024-02-20 18h19.53.030400 -0500,
 2:4, 32:48,6,partial,1,images/Ex16.jpg,right,0,0,0,1,0,0,0,0,1,6,22,15,335.39701929991134,,,,,,,,,,,,,,,,,,,,,,,335.38141030003317,0.6,335.39701929991134,336.0062365999911,335.9804231999442,335.98044319986366,336.0062365999911,336.0062365999911,336.0062365999911,0.016380999935790896,337.65013560000807,right,1,1.6438098000362515,None,337.65059169987217,337.6633723999839,337.6657206398668,337.6657206398668,338.6473323998507,337.8981506000273,337.8981506000273,338.6633923999034,,,,,,,,sophTest,001,25,F,German,2024-02-20_18h19.28.442,CatRev1_within,2023.2.3,59.98152574491557,2024-02-20 18h19.53.030400 -0500,
 2:4, 32:48,6,partial,1,images/Ex13.jpg,right,0,0,0,1,0,0,0,0,1,7,23,4,338.6633923999034,,,,,,,,,,,,,,,,,,,,,,,338.6477026999928,1.2,338.6633923999034,339.87039739987813,339.84694219985977,339.8469610000029,339.87039739987813,339.87039739987813,339.87039739987813,0.0137768997810781,341.2498755999841,left,0,1.3723536001052707,None,341.2503690999001,341.26313999993727,341.26555493997876,341.26555493997876,342.24684470007196,,,342.26308619999327,,,,,,,,sophTest,001,25,F,German,2024-02-20_18h19.28.442,CatRev1_within,2023.2.3,59.98152574491557,2024-02-20 18h19.53.030400 -0500,
 2:4, 32:48,6,partial,1,images/Ex10.jpg,left,0,0,0,1,0,0,0,0,1,8,24,9,342.26308619999327,,,,,,,,,,,,,,,,,,,,,,,342.247211500071,1.2,342.26308619999327,343.47420169995166,343.4467889999505,343.4468075998593,343.47420169995166,343.47420169995166,343.47420169995166,0.017960200086236,344.6333347999025,right,0,1.165094600059092,None,344.6338092999067,344.64616860006936,344.64878534001764,344.64878534001764,345.63017129991204,344.8838478999678,344.8838478999678,345.64616809994914,,,,,,,,sophTest,001,25,F,German,2024-02-20_18h19.28.442,CatRev1_within,2023.2.3,59.98152574491557,2024-02-20 18h19.53.030400 -0500,
 2:4, 32:48,6,partial,1,images/Ex11.jpg,left,0,0,0,1,0,0,0,0,1,9,25,2,345.64616809994914,,,,,,,,,,,,,,,,,,,,,,,345.63054080004804,0.6,345.64616809994914,346.25707519985735,346.23001499986276,346.23003289988264,346.25707519985735,346.25707519985735,346.25707519985735,0.017170700011774898,347.7329156999476,right,0,1.4772302999626845,None,347.73335130000487,347.74611559999175,347.7485200400697,347.7485200400697,348.7298492998816,347.97202089987695,347.97202089987695,348.7459849000443,,,,,,,,sophTest,001,25,F,German,2024-02-20_18h19.28.442,CatRev1_within,2023.2.3,59.98152574491557,2024-02-20 18h19.53.030400 -0500,
 2:4, 32:48,6,partial,1,images/Ex10.jpg,left,0,0,0,1,0,0,0,0,1,10,26,1,348.7459849000443,,,,,,,,,,,,,,,,,,,,,,,348.7302013998851,0.6,348.7459849000443,349.3572593999561,349.3298130999319,349.3298333999701,349.3572593999561,349.3572593999561,349.3572593999561,0.017621400067582726,351.71618460002355,left,1,2.3580831000581384,None,351.7166221998632,351.72938170004636,351.7318300398765,351.7318300398765,352.713122199988,,,352.7291409999598,,,,,,,,sophTest,001,25,F,German,2024-02-20_18h19.28.442,CatRev1_within,2023.2.3,59.98152574491557,2024-02-20 18h19.53.030400 -0500,
 2:4, 32:48,6,partial,1,images/Ex12.jpg,left,0,0,0,1,0,0,0,0,1,11,27,11,352.7291409999598,,,,,,,,,,,,,,,,,,,,,,,352.7134781999048,1.5,352.7291409999598,354.2419435000047,354.2129738999065,354.2129923000466,354.2419435000047,354.2419435000047,354.2419435000047,0.01920920005068183,355.56572489999235,right,0,1.3241164998617023,None,355.56615619990043,355.57901880005375,355.5814508398762,355.5814508398762,356.56282790005207,,,356.5788558998611,,,,,,,,sophTest,001,25,F,German,2024-02-20_18h19.28.442,CatRev1_within,2023.2.3,59.98152574491557,2024-02-20 18h19.53.030400 -0500,
 2:4, 32:48,6,partial,1,images/Ex15.jpg,right,0,0,0,1,0,0,0,0,1,12,28,14,356.5788558998611,,,,,,,,,,,,,,,,,,,,,,,356.5631845998578,1.3,356.5788558998611,357.8887403998524,357.86257659993134,357.8625940999482,357.8887403998524,357.8887403998524,357.8887403998524,0.016707099974155426,359.78220220003277,left,0,1.8882965000811964,None,359.78267539991066,359.795432300074,359.79789364000317,359.79789364000317,360.77924699988216,360.03986110002734,360.03986110002734,360.7952930999454,,,,,,,,sophTest,001,25,F,German,2024-02-20_18h19.28.442,CatRev1_within,2023.2.3,59.98152574491557,2024-02-20 18h19.53.030400 -0500,
 2:4, 32:48,6,partial,1,images/Ex15.jpg,right,0,0,0,1,0,0,0,0,1,13,29,6,360.7952930999454,,,,,,,,,,,,,,,,,,,,,,,360.77960689994507,0.8,360.7952930999454,361.60562409996055,361.57906070002355,361.57907720003277,361.60562409996055,361.60562409996055,361.60562409996055,0.016889099963009357,362.19881580001675,right,1,0.5939281999599189,None,362.1992551998701,362.2121341000311,362.2145318399416,362.2145318399416,363.1961912999395,362.46619080007076,362.46619080007076,363.2122712000273,,,,,,,,sophTest,001,25,F,German,2024-02-20_18h19.28.442,CatRev1_within,2023.2.3,59.98152574491557,2024-02-20 18h19.53.030400 -0500,
 2:4, 32:48,6,partial,1,images/Ex13.jpg,right,0,0,0,1,0,0,0,0,1,14,30,12,363.2122712000273,,,,,,,,,,,,,,,,,,,,,,,363.19653819990344,1.2,363.2122712000273,364.41877239989117,364.3956845998764,364.39570309990086,364.41877239989117,364.41877239989117,364.41877239989117,0.013280000071972609,366.31525059998967,right,1,1.8896765001118183,None,366.31571169989184,366.3285701998975,366.3308884400176,366.3308884400176,367.31275220005773,366.54521330003627,366.54521330003627,367.32871989998966,,,,,,,,sophTest,001,25,F,German,2024-02-20_18h19.28.442,CatRev1_within,2023.2.3,59.98152574491557,2024-02-20 18h19.53.030400 -0500,
 2:4, 32:48,6,partial,1,images/Ex9.jpg,left,0,0,0,1,0,0,0,0,1,15,31,8,367.32871989998966,,,,,,,,,,,,,,,,,,,,,,,367.31310739996843,1.0,367.32871989998966,368.33289499999955,368.31220649997704,368.31222529988736,368.33289499999955,368.33289499999955,368.33289499999955,0.011444199830293655,370.46515930001624,right,0,2.1310517999809235,None,370.46560869994573,370.4783613998443,370.4806943399599,370.4806943399599,371.462072199909,370.70296759996563,370.70296759996563,371.4781557000242,,,,,,,,sophTest,001,25,F,German,2024-02-20_18h19.28.442,CatRev1_within,2023.2.3,59.98152574491557,2024-02-20 18h19.53.030400 -0500,
 2:4, 32:48,6,partial,1,images/Ex10.jpg,left,0,0,0,1,0,0,0,0,2,0,32,9,371.4781557000242,,,,,,,,,,,,,,,,,,,,,,,371.46241569984704,1.2,371.4781557000242,372.68772389995866,372.66202849987894,372.6620463000145,372.68772389995866,372.68772389995866,372.68772389995866,0.01593370013870299,375.8314286998939,left,1,3.1396596000995487,None,375.8318534998689,375.8446370998863,375.84713393996935,375.84713393996935,376.8285085000098,,,376.8446257999167,,,,,,,,sophTest,001,25,F,German,2024-02-20_18h19.28.442,CatRev1_within,2023.2.3,59.98152574491557,2024-02-20 18h19.53.030400 -0500,
 2:4, 32:48,6,partial,1,images/Ex14.jpg,right,0,0,0,1,0,0,0,0,2,1,33,13,376.8446257999167,,,,,,,,,,,,,,,,,,,,,,,376.8288662000559,1.1,376.8446257999167,377.952837199904,377.928313100012,377.9283322999254,377.952837199904,377.952837199904,377.952837199904,0.015181499999016523,379.33152840007097,left,0,1.385563500225544,None,379.3320221998729,379.3447887999937,379.34714583994355,379.34714583994355,380.3282113999594,,,380.344381300034,,,,,,,,sophTest,001,25,F,German,2024-02-20_18h19.28.442,CatRev1_within,2023.2.3,59.98152574491557,2024-02-20 18h19.53.030400 -0500,
 2:4, 32:48,6,partial,1,images/Ex11.jpg,left,0,0,0,1,0,0,0,0,2,2,34,10,380.344381300034,,,,,,,,,,,,,,,,,,,,,,,380.3285538998898,1.1,380.344381300034,381.45556519995444,381.4281333000399,381.42815289995633,381.45556519995444,381.45556519995444,381.45556519995444,0.017777600092813373,382.99793549999595,right,0,1.5387378998566419,None,382.99839079985395,383.0111241999548,383.0136482400121,383.0136482400121,383.9947548999917,,,384.01079929992557,,,,,,,,sophTest,001,25,F,German,2024-02-20_18h19.28.442,CatRev1_within,2023.2.3,59.98152574491557,2024-02-20 18h19.53.030400 -0500,
 2:4, 32:48,6,partial,1,images/Ex9.jpg,left,0,0,0,1,0,0,0,0,2,3,35,0,384.01079929992557,,,,,,,,,,,,,,,,,,,,,,,383.9951134000439,0.9,384.01079929992557,384.9165304999333,384.89466409990564,384.89468059991486,384.9165304999333,384.9165304999333,384.9165304999333,0.012056699953973293,385.9810694998596,right,0,1.0694957000669092,None,385.9815378000494,385.9941380000673,385.9965782399522,385.9965782399522,386.97809039987624,386.210802000016,386.210802000016,386.99421729985625,,,,,,,,sophTest,001,25,F,German,2024-02-20_18h19.28.442,CatRev1_within,2023.2.3,59.98152574491557,2024-02-20 18h19.53.030400 -0500,
 2:4, 32:48,6,partial,1,images/Ex10.jpg,left,0,0,0,1,0,0,0,0,2,4,36,1,386.99421729985625,,,,,,,,,,,,,,,,,,,,,,,386.9784468000289,1.3,386.99421729985625,388.3029056999367,388.27790950005874,388.27792829996906,388.3029056999367,388.3029056999367,388.3029056999367,0.01524570002220571,389.9973154999316,right,0,1.7008241000585258,None,389.99774540006183,390.010529599851,390.01293534005526,390.01293534005526,390.9945638999343,,,391.0106082998682,,,,,,,,sophTest,001,25,F,German,2024-02-20_18h19.28.442,CatRev1_within,2023.2.3,59.98152574491557,2024-02-20 18h19.53.030400 -0500,
 2:4, 32:48,6,partial,1,images/Ex9.jpg,left,0,0,0,1,0,0,0,0,2,5,37,8,391.0106082998682,,,,,,,,,,,,,,,,,,,,,,,390.9949082999956,1.2,391.0106082998682,392.21580530004576,392.19417369994335,392.1942058999557,392.21580530004576,392.21580530004576,392.21580530004576,0.01196529995650053,393.047218499938,right,0,0.8249527998268604,None,393.0476859998889,393.0602990000043,393.0628285399871,393.0628285399871,394.0442222999409,393.27702609985135,393.27702609985135,394.0602782999631,,,,,,,,sophTest,001,25,F,German,2024-02-20_18h19.28.442,CatRev1_within,2023.2.3,59.98152574491557,2024-02-20 18h19.53.030400 -0500,
 2:4, 32:48,6,partial,1,images/Ex16.jpg,right,0,0,0,1,0,0,0,0,2,6,38,7,394.0602782999631,,,,,,,,,,,,,,,,,,,,,,,394.0445803999901,0.7,394.0602782999631,394.7721090000123,394.74428820004687,394.74430659995414,394.7721090000123,394.7721090000123,394.7721090000123,0.017802000045776367,395.7984108000528,right,1,1.0186437000520527,None,395.7990283998661,395.81600039987825,395.81347213999834,395.81347213999834,396.8103771000169,396.0485690999776,396.0485690999776,,,,,,,,,sophTest,001,25,F,German,2024-02-20_18h19.28.442,CatRev1_within,2023.2.3,59.98152574491557,2024-02-20 18h19.53.030400 -0500,
 2:4, 32:48,6,partial,1,images/Ex16.jpg,right,0,0,0,1,0,0,0,0,2,7,39,15,396.8268996998668,,,,,,,,,,,,,,,,,,,,,,,396.8107216998469,1.1,396.8268996998668,397.9398002999369,397.9107391999569,397.91075919987634,397.9398002999369,397.9398002999369,397.9398002999369,0.01816109986975789,399.1313878998626,right,1,1.1954294999595731,None,399.13239239994437,399.15006909985095,399.1465486398665,399.1465486398665,400.14347680006176,399.3962507999968,399.3962507999968,,,,,,,,,sophTest,001,25,F,German,2024-02-20_18h19.28.442,CatRev1_within,2023.2.3,59.98152574491557,2024-02-20 18h19.53.030400 -0500,
 2:4, 32:48,6,partial,1,images/Ex15.jpg,right,0,0,0,1,0,0,0,0,2,8,40,14,400.1599802998826,,,,,,,,,,,,,,,,,,,,,,,400.1438239000272,1.2,400.1599802998826,401.3702020000201,401.343891199911,401.3439086000435,401.3702020000201,401.3702020000201,401.3702020000201,0.016852600034326315,402.59940189984627,left,0,1.2330064999405295,None,402.6003207999747,402.6177348999772,402.6132485399721,402.6132485399721,403.60994870006107,402.897033700021,402.897033700021,,,,,,,,,sophTest,001,25,F,German,2024-02-20_18h19.28.442,CatRev1_within,2023.2.3,59.98152574491557,2024-02-20 18h19.53.030400 -0500,
 2:4, 32:48,6,partial,1,images/Ex13.jpg,right,0,0,0,1,0,0,0,0,2,9,41,4,403.6265277999919,,,,,,,,,,,,,,,,,,,,,,,403.61031510005705,1.1,403.6265277999919,404.7426900998689,404.7105495000724,404.71058829990216,404.7426900998689,404.7426900998689,404.7426900998689,0.02011229982599616,406.48032679990865,right,1,1.7336692998651415,None,406.4808638000395,406.4937936998904,406.4957480399171,406.4957480399171,407.4770804999862,406.7098439000547,406.7098439000547,407.49300029990263,,,,,,,,sophTest,001,25,F,German,2024-02-20_18h19.28.442,CatRev1_within,2023.2.3,59.98152574491557,2024-02-20 18h19.53.030400 -0500,
 2:4, 32:48,6,partial,1,images/Ex14.jpg,right,0,0,0,1,0,0,0,0,2,10,42,5,407.49300029990263,,,,,,,,,,,,,,,,,,,,,,,407.4774380000308,1.4,407.49300029990263,408.90269829984754,408.8768448999617,408.8768635999877,408.90269829984754,408.90269829984754,408.90269829984754,0.015281999949365854,410.5463290999178,right,1,1.6454173000529408,None,410.5467878000345,410.55951129994355,410.56196484004613,410.56196484004613,411.5432802999858,,,411.5593095999211,,,,,,,,sophTest,001,25,F,German,2024-02-20_18h19.28.442,CatRev1_within,2023.2.3,59.98152574491557,2024-02-20 18h19.53.030400 -0500,
 2:4, 32:48,6,partial,1,images/Ex15.jpg,right,0,0,0,1,0,0,0,0,2,11,43,6,411.5593095999211,,,,,,,,,,,,,,,,,,,,,,,411.5436350000091,1.4,411.5593095999211,412.9737446999643,412.9431197999511,412.9431388999801,412.9737446999643,412.9737446999643,412.9737446999643,0.020801000064238906,414.62988869985566,left,0,1.6587706001009792,None,414.63033770001493,414.6425397999119,414.6456069400301,414.6456069400301,415.62638789997436,414.89403099985793,414.89403099985793,415.642546699848,,,,,,,,sophTest,001,25,F,German,2024-02-20_18h19.28.442,CatRev1_within,2023.2.3,59.98152574491557,2024-02-20 18h19.53.030400 -0500,
 2:4, 32:48,6,partial,1,images/Ex12.jpg,left,0,0,0,1,0,0,0,0,2,12,44,3,415.642546699848,,,,,,,,,,,,,,,,,,,,,,,415.62673869985156,0.8,415.642546699848,416.45394430006854,416.42630070005544,416.4263201998547,416.45394430006854,416.45394430006854,416.45394430006854,0.018114199861884117,417.51270479988307,right,0,1.051886800210923,None,417.51312200003304,417.52600389998406,417.5284122399753,417.5284122399753,418.50949570001103,,,418.5256763000507,,,,,,,,sophTest,001,25,F,German,2024-02-20_18h19.28.442,CatRev1_within,2023.2.3,59.98152574491557,2024-02-20 18h19.53.030400 -0500,
 2:4, 32:48,6,partial,1,images/Ex11.jpg,left,0,0,0,1,0,0,0,0,2,13,45,2,418.5256763000507,,,,,,,,,,,,,,,,,,,,,,,418.50984129984863,0.7,418.5256763000507,419.234974199906,419.20952829997987,419.20954689988866,419.234974199906,419.234974199906,419.234974199906,0.016078900080174208,420.9457441000268,left,1,1.7156985001638532,None,420.9461983998772,420.95898530003615,420.9613894399954,420.9613894399954,421.94304229994304,421.2027946000453,421.2027946000453,421.9590240998659,,,,,,,,sophTest,001,25,F,German,2024-02-20_18h19.28.442,CatRev1_within,2023.2.3,59.98152574491557,2024-02-20 18h19.53.030400 -0500,
 2:4, 32:48,6,partial,1,images/Ex13.jpg,right,0,0,0,1,0,0,0,0,2,14,46,12,421.9590240998659,,,,,,,,,,,,,,,,,,,,,,,421.9434042999055,1.1,421.9590240998659,423.06619459996,423.04268559999764,423.0427049000282,423.06619459996,423.06619459996,423.06619459996,0.013794400030747056,423.912226999877,left,0,0.8410483000334352,None,423.91268910001963,423.92542789992876,423.9279014399508,423.9279014399508,424.9093686998822,,,424.92541450005956,,,,,,,,sophTest,001,25,F,German,2024-02-20_18h19.28.442,CatRev1_within,2023.2.3,59.98152574491557,2024-02-20 18h19.53.030400 -0500,
 2:4, 32:48,6,partial,1,images/Ex12.jpg,left,0,0,0,1,0,0,0,0,2,15,47,11,424.92541450005956,,,,,,,,,,,,,,,,,,,,,,,424.909709099913,0.6,424.92541450005956,425.53937439993024,425.50943739991635,425.5094560999423,425.53937439993024,425.53937439993024,425.53937439993024,0.019858499988913536,426.99635159992613,right,0,1.4598341998644173,None,426.9968910999596,427.0088380998932,427.01166963984724,427.01166963984724,427.9924530000426,,,428.0085062000435,,,,,,,,sophTest,001,25,F,German,2024-02-20_18h19.28.442,CatRev1_within,2023.2.3,59.98152574491557,2024-02-20 18h19.53.030400 -0500,
 2:4, 32:48,6,partial,1,images/Ex9.jpg,left,0,0,0,1,0,0,0,0,3,0,48,8,428.0085062000435,,,,,,,,,,,,,,,,,,,,,,,427.9928049999289,0.9,428.0085062000435,428.91401989990845,428.89230139995925,428.8923179998528,428.91401989990845,428.91401989990845,428.91401989990845,0.011979399947449565,431.0118386999238,right,0,2.091604399960488,None,431.0123036999721,431.0250887000002,431.027528139879,431.027528139879,432.0088265000377,,,432.02493299986236,,,,,,,,sophTest,001,25,F,German,2024-02-20_18h19.28.442,CatRev1_within,2023.2.3,59.98152574491557,2024-02-20 18h19.53.030400 -0500,
 2:4, 32:48,6,partial,1,images/Ex15.jpg,right,0,0,0,1,0,0,0,0,3,1,49,6,432.02493299986236,,,,,,,,,,,,,,,,,,,,,,,432.00917349988595,0.7,432.02493299986236,432.73650619992986,432.7087421999313,432.7087592999451,432.73650619992986,432.73650619992986,432.73650619992986,0.01815689983777702,434.0118743998464,left,0,1.2831417000852525,None,434.0123822998721,434.0251845000312,434.0275367399445,434.0275367399445,435.0087699999567,,,435.02486109989695,,,,,,,,sophTest,001,25,F,German,2024-02-20_18h19.28.442,CatRev1_within,2023.2.3,59.98152574491557,2024-02-20 18h19.53.030400 -0500,
 2:4, 32:48,6,partial,1,images/Ex14.jpg,right,0,0,0,1,0,0,0,0,3,2,50,5,435.02486109989695,,,,,,,,,,,,,,,,,,,,,,,435.0091076998506,0.7,435.02486109989695,435.7339812000282,435.7085380998906,435.7085559000261,435.7339812000282,435.7339812000282,435.7339812000282,0.015583999920636415,436.71151479985565,left,0,0.9732454000040889,None,436.7119517000392,436.7247762000188,436.72718954004813,436.72718954004813,437.7088264999911,,,437.7248589999508,,,,,,,,sophTest,001,25,F,German,2024-02-20_18h19.28.442,CatRev1_within,2023.2.3,59.98152574491557,2024-02-20 18h19.53.030400 -0500,
 2:4, 32:48,6,partial,1,images/Ex13.jpg,right,0,0,0,1,0,0,0,0,3,3,51,12,437.7248589999508,,,,,,,,,,,,,,,,,,,,,,,437.70916850003414,0.5,437.7248589999508,438.2321987999603,438.2088688998483,438.2088857998606,438.2321987999603,438.2321987999603,438.2321987999603,0.013294499833136797,439.1114908999298,right,1,0.8851848000194877,None,439.11190710007213,439.12471679993905,439.12709293991793,439.12709293991793,440.1084920000285,439.3832288000267,439.3832288000267,440.1245303999167,,,,,,,,sophTest,001,25,F,German,2024-02-20_18h19.28.442,CatRev1_within,2023.2.3,59.98152574491557,2024-02-20 18h19.53.030400 -0500,
 2:4, 32:48,6,partial,1,images/Ex10.jpg,left,0,0,0,1,0,0,0,0,3,4,52,9,440.1245303999167,,,,,,,,,,,,,,,,,,,,,,,440.1088302000426,1.2,440.1245303999167,441.3331323999446,441.30842719995417,441.3084456999786,441.3331323999446,441.3331323999446,441.3331323999446,0.01472109998576343,442.94471389986575,right,0,1.6166972999926656,None,442.9451808000449,442.95786660001613,442.96048193995375,442.96048193995375,443.94152979995124,443.1902268999256,443.1902268999256,443.95770430006087,,,,,,,,sophTest,001,25,F,German,2024-02-20_18h19.28.442,CatRev1_within,2023.2.3,59.98152574491557,2024-02-20 18h19.53.030400 -0500,
 2:4, 32:48,6,partial,1,images/Ex11.jpg,left,0,0,0,1,0,0,0,0,3,5,53,2,443.95770430006087,,,,,,,,,,,,,,,,,,,,,,,443.94188339984976,0.7,443.95770430006087,444.66933840001,444.6415200000629,444.6415389999747,444.66933840001,444.66933840001,444.66933840001,0.017922200029715896,445.54459369997494,right,0,0.8757952000014484,None,445.54504800005816,445.55775150004774,445.56022244005,445.56022244005,446.5414559999481,445.77453899988905,445.77453899988905,446.5575281998608,,,,,,,,sophTest,001,25,F,German,2024-02-20_18h19.28.442,CatRev1_within,2023.2.3,59.98152574491557,2024-02-20 18h19.53.030400 -0500,
 2:4, 32:48,6,partial,1,images/Ex12.jpg,left,0,0,0,1,0,0,0,0,3,6,54,3,446.5575281998608,,,,,,,,,,,,,,,,,,,,,,,446.5418245999608,1.1,446.5575281998608,447.6688979000319,447.6412913000677,447.64132079994306,447.6688979000319,447.6688979000319,447.6688979000319,0.018187199952080846,448.2943096999079,left,1,0.6285539998207241,None,448.29473880003206,448.30750490003265,448.31005123991054,448.31005123991054,449.2914193000179,448.543440700043,448.543440700043,449.3074374999851,,,,,,,,sophTest,001,25,F,German,2024-02-20_18h19.28.442,CatRev1_within,2023.2.3,59.98152574491557,2024-02-20 18h19.53.030400 -0500,
 2:4, 32:48,6,partial,1,images/Ex15.jpg,right,0,0,0,1,0,0,0,0,3,7,55,14,449.3074374999851,,,,,,,,,,,,,,,,,,,,,,,449.29175990005024,0.7,449.3074374999851,450.01794210006483,449.99155270005576,449.99158059991896,450.01794210006483,450.01794210006483,450.01794210006483,0.016657600179314613,450.7441646999214,left,0,0.7287699000444263,None,450.74465429992415,450.7574612000026,450.75990983995143,450.75990983995143,451.74112479994074,,,451.75728759984486,,,,,,,,sophTest,001,25,F,German,2024-02-20_18h19.28.442,CatRev1_within,2023.2.3,59.98152574491557,2024-02-20 18h19.53.030400 -0500,
 2:4, 32:48,6,partial,1,images/Ex9.jpg,left,0,0,0,1,0,0,0,0,3,8,56,0,451.75728759984486,,,,,,,,,,,,,,,,,,,,,,,451.7414889000356,1.0,451.75728759984486,452.7634093000088,452.74102590000257,452.74104609992355,452.7634093000088,452.7634093000088,452.7634093000088,0.012543300166726112,454.7439059999306,left,1,1.9839542000554502,None,454.7444297000766,454.75718409987167,454.75963833986316,454.75963833986316,455.7409540999215,454.9738056999631,454.9738056999631,455.75703079998493,,,,,,,,sophTest,001,25,F,German,2024-02-20_18h19.28.442,CatRev1_within,2023.2.3,59.98152574491557,2024-02-20 18h19.53.030400 -0500,
 2:4, 32:48,6,partial,1,images/Ex10.jpg,left,0,0,0,1,0,0,0,0,3,9,57,1,455.75703079998493,,,,,,,,,,,,,,,,,,,,,,,455.7413083999418,1.3,455.75703079998493,457.0658286998514,457.0410300998483,457.0410474999808,457.0658286998514,457.0658286998514,457.0658286998514,0.015118499984964728,457.91059600003064,left,1,0.8414437999017537,None,457.911048799986,457.92395009985194,457.9263565399451,457.9263565399451,458.9075292998459,,,458.9235026000533,,,,,,,,sophTest,001,25,F,German,2024-02-20_18h19.28.442,CatRev1_within,2023.2.3,59.98152574491557,2024-02-20 18h19.53.030400 -0500,
 2:4, 32:48,6,partial,1,images/Ex16.jpg,right,0,0,0,1,0,0,0,0,3,10,58,15,458.9235026000533,,,,,,,,,,,,,,,,,,,,,,,458.907890799921,0.8,458.9235026000533,459.73512199986726,459.7073329000268,459.7073514999356,459.73512199986726,459.73512199986726,459.73512199986726,0.018078400054946542,460.66014449996874,right,1,0.9203878999687731,None,460.660650299862,460.67364330007695,460.6758604400093,460.6758604400093,461.6575680000242,,,461.67360910004936,,,,,,,,sophTest,001,25,F,German,2024-02-20_18h19.28.442,CatRev1_within,2023.2.3,59.98152574491557,2024-02-20 18h19.53.030400 -0500,
 2:4, 32:48,6,partial,1,images/Ex12.jpg,left,0,0,0,1,0,0,0,0,3,11,59,11,461.67360910004936,,,,,,,,,,,,,,,,,,,,,,,461.6579005999956,1.3,461.67360910004936,462.9851945999544,462.9571719998494,462.95718889986165,462.9851945999544,462.9851945999544,462.9851945999544,0.01842609979212284,465.1434299000539,left,1,2.1629665999207646,None,465.1438960998785,465.15675819991156,465.159174239845,465.159174239845,466.1408724000212,465.3908816999756,465.3908816999756,466.1568225999363,,,,,,,,sophTest,001,25,F,German,2024-02-20_18h19.28.442,CatRev1_within,2023.2.3,59.98152574491557,2024-02-20 18h19.53.030400 -0500,
 2:4, 32:48,6,partial,1,images/Ex16.jpg,right,0,0,0,1,0,0,0,0,3,12,60,7,466.1568225999363,,,,,,,,,,,,,,,,,,,,,,,466.1412261999212,0.6,466.1568225999363,466.7661245998461,466.74030900001526,466.7403354998678,466.7661245998461,466.7661245998461,466.7661245998461,0.016484699910506606,467.49350270000286,right,1,0.7327479999512434,None,467.4939333999064,467.50661679985933,467.5090344400378,467.5090344400378,468.4903082998935,,,468.5063263999764,,,,,,,,sophTest,001,25,F,German,2024-02-20_18h19.28.442,CatRev1_within,2023.2.3,59.98152574491557,2024-02-20 18h19.53.030400 -0500,
 2:4, 32:48,6,partial,1,images/Ex11.jpg,left,0,0,0,1,0,0,0,0,3,13,61,10,468.5063263999764,,,,,,,,,,,,,,,,,,,,,,,468.49068789999,0.7,468.5063263999764,469.2157057998702,469.1902723000385,469.19029069994576,469.2157057998702,469.2157057998702,469.2157057998702,0.015982000157237053,471.52642169990577,left,1,2.311158600030467,None,471.52689879992977,471.5397004999686,471.5420056398725,471.5420056398725,472.52345929993317,471.76906570000574,471.76906570000574,472.5394818999339,,,,,,,,sophTest,001,25,F,German,2024-02-20_18h19.28.442,CatRev1_within,2023.2.3,59.98152574491557,2024-02-20 18h19.53.030400 -0500,
 2:4, 32:48,6,partial,1,images/Ex13.jpg,right,0,0,0,1,0,0,0,0,3,14,62,4,472.5394818999339,,,,,,,,,,,,,,,,,,,,,,,472.5238146998454,1.5,472.5394818999339,474.0474934000522,474.0235945000313,474.0236197998747,474.0474934000522,474.0474934000522,474.0474934000522,0.013788500102236867,476.39282139996067,right,1,2.3474707000423223,None,476.39325980003923,476.4060815998819,476.4084635399049,476.4084635399049,477.3900162000209,476.6311518000439,476.6311518000439,477.406001499854,,,,,,,,sophTest,001,25,F,German,2024-02-20_18h19.28.442,CatRev1_within,2023.2.3,59.98152574491557,2024-02-20 18h19.53.030400 -0500,
 2:4, 32:48,6,partial,1,images/Ex14.jpg,right,0,0,0,1,0,0,0,0,3,15,63,13,477.406001499854,,,,,,,,,,,,,,,,,,,,,,,477.3903856999241,0.7,477.406001499854,478.11586369993165,478.0899364000652,478.0899551999755,478.11586369993165,478.11586369993165,478.11586369993165,0.0160374001134187,479.69278119993396,right,1,1.5730544000398368,None,479.69323169998825,479.70594289992005,479.7084294400411,479.7084294400411,480.68962509999983,,,480.705764999846,,,,,,,,sophTest,001,25,F,German,2024-02-20_18h19.28.442,CatRev1_within,2023.2.3,59.98152574491557,2024-02-20 18h19.53.030400 -0500,
 2:4, 32:48,6,partial,1,images/Ex15.jpg,right,0,0,0,1,0,0,0,0,4,0,64,6,480.705764999846,,,,,,,,,,,,,,,,,,,,,,,480.68996350001544,0.5,480.705764999846,481.2177814000752,481.18965710001066,481.18967549991794,481.2177814000752,481.2177814000752,481.2177814000752,0.018352500163018703,483.29252410004847,left,0,2.081093200016767,None,483.2929598998744,483.3056167999748,483.3080894398736,483.3080894398736,484.2894927000161,483.5460667000152,483.5460667000152,484.30551839992404,,,,,,,,sophTest,001,25,F,German,2024-02-20_18h19.28.442,CatRev1_within,2023.2.3,59.98152574491557,2024-02-20 18h19.53.030400 -0500,
 2:4, 32:48,6,partial,1,images/Ex9.jpg,left,0,0,0,1,0,0,0,0,4,1,65,0,484.30551839992404,,,,,,,,,,,,,,,,,,,,,,,484.28990600002,0.5,484.30551839992404,484.81241009989753,484.7893169000745,484.7893358999863,484.81241009989753,484.81241009989753,484.81241009989753,0.013507999945431948,485.97602629987523,right,0,1.166153399972245,None,485.97647519991733,485.98919830005616,485.99172444001306,485.99172444001306,486.9726988999173,,,486.9888011999428,,,,,,,,sophTest,001,25,F,German,2024-02-20_18h19.28.442,CatRev1_within,2023.2.3,59.98152574491557,2024-02-20 18h19.53.030400 -0500,
 2:4, 32:48,6,partial,1,images/Ex9.jpg,left,0,0,0,1,0,0,0,0,4,2,66,8,486.9888011999428,,,,,,,,,,,,,,,,,,,,,,,486.9730290998705,1.1,486.9888011999428,488.09331130003557,488.07245670002885,488.0724744000472,488.09331130003557,488.09331130003557,488.09331130003557,0.011380300158634782,488.809033599915,left,1,0.7239080001600087,None,488.80946499994025,488.82218989985995,488.824391340022,488.824391340022,489.8061132999137,489.04823179985397,489.04823179985397,489.822222399991,,,,,,,,sophTest,001,25,F,German,2024-02-20_18h19.28.442,CatRev1_within,2023.2.3,59.98152574491557,2024-02-20 18h19.53.030400 -0500,
 2:4, 32:48,6,partial,1,images/Ex14.jpg,right,0,0,0,1,0,0,0,0,4,3,67,13,489.822222399991,,,,,,,,,,,,,,,,,,,,,,,489.8064786000177,0.5,489.822222399991,490.33142949989997,490.306081000017,490.3060993999243,490.33142949989997,490.33142949989997,490.33142949989997,0.015328200068324804,491.8920416000765,right,1,1.5658199999015778,None,491.89250239985995,491.9054268000182,491.9076346399961,491.9076346399961,492.8891781999264,492.1272237999365,492.1272237999365,492.90524760005064,,,,,,,,sophTest,001,25,F,German,2024-02-20_18h19.28.442,CatRev1_within,2023.2.3,59.98152574491557,2024-02-20 18h19.53.030400 -0500,
 2:4, 32:48,6,partial,1,images/Ex16.jpg,right,0,0,0,1,0,0,0,0,4,4,68,7,492.90524760005064,,,,,,,,,,,,,,,,,,,,,,,492.88954130001366,0.7,492.90524760005064,493.61736089992337,493.5891696999315,493.5892088999972,493.61736089992337,493.61736089992337,493.61736089992337,0.01835130015388131,494.2760348999873,right,1,0.65489980019629,None,494.2764818998985,494.28889840003103,494.2913317399798,494.2913317399798,495.27223429991864,494.54644789989106,494.54644789989106,495.28831929992884,,,,,,,,sophTest,001,25,F,German,2024-02-20_18h19.28.442,CatRev1_within,2023.2.3,59.98152574491557,2024-02-20 18h19.53.030400 -0500,
 2:4, 32:48,6,partial,1,images/Ex16.jpg,right,0,0,0,1,0,0,0,0,4,5,69,15,495.28831929992884,,,,,,,,,,,,,,,,,,,,,,,495.27259229985066,0.5,495.28831929992884,495.7985398999881,495.77208879985847,495.77210769988596,495.7985398999881,495.7985398999881,495.7985398999881,0.01711349980905652,496.3584451000206,right,1,0.5626695000100881,None,496.358897899976,496.37170389993116,496.37414114002604,496.37414114002604,497.35563989984803,496.6154734999873,496.6154734999873,497.37167859985493,,,,,,,,sophTest,001,25,F,German,2024-02-20_18h19.28.442,CatRev1_within,2023.2.3,59.98152574491557,2024-02-20 18h19.53.030400 -0500,
 2:4, 32:48,6,partial,1,images/Ex13.jpg,right,0,0,0,1,0,0,0,0,4,6,70,4,497.37167859985493,,,,,,,,,,,,,,,,,,,,,,,497.3559973000083,1.3,497.37167859985493,498.6780556999147,498.6553716000635,498.6553906998597,498.6780556999147,498.6780556999147,498.6780556999147,0.012990899849683046,500.37492149998434,right,1,1.697473700158298,None,500.37538399989717,500.3881667999085,500.3905071398476,500.3905071398476,501.3721642999444,500.6212738000322,500.6212738000322,501.389091799967,,,,,,,,sophTest,001,25,F,German,2024-02-20_18h19.28.442,CatRev1_within,2023.2.3,59.98152574491557,2024-02-20 18h19.53.030400 -0500,
 2:4, 32:48,6,partial,1,images/Ex11.jpg,left,0,0,0,1,0,0,0,0,4,7,71,10,501.389091799967,,,,,,,,,,,,,,,,,,,,,,,501.3724976000376,0.7,501.389091799967,502.1001663999632,502.0721605999861,502.07217810000293,502.1001663999632,502.1001663999632,502.1001663999632,0.017818599939346313,503.9583739999216,right,0,1.86552880005911,None,503.9588516000658,503.9712737998925,503.9738602399593,503.9738602399593,504.95506009995006,504.20641919993795,504.20641919993795,504.97115470003337,,,,,,,,sophTest,001,25,F,German,2024-02-20_18h19.28.442,CatRev1_within,2023.2.3,59.98152574491557,2024-02-20 18h19.53.030400 -0500,
 2:4, 32:48,6,partial,1,images/Ex14.jpg,right,0,0,0,1,0,0,0,0,4,8,72,5,504.97115470003337,,,,,,,,,,,,,,,,,,,,,,,504.95539589994587,1.5,504.97115470003337,506.4794709999114,506.45487180002965,506.45488859992474,506.4794709999114,506.4794709999114,506.4794709999114,0.014915399951860309,507.49106399994344,right,1,1.0112477000802755,None,507.4915100999642,507.5044201000128,507.5067363398848,507.5067363398848,508.4882634000387,,,508.5042546999175,,,,,,,,sophTest,001,25,F,German,2024-02-20_18h19.28.442,CatRev1_within,2023.2.3,59.98152574491557,2024-02-20 18h19.53.030400 -0500,
 2:4, 32:48,6,partial,1,images/Ex12.jpg,left,0,0,0,1,0,0,0,0,4,9,73,11,508.5042546999175,,,,,,,,,,,,,,,,,,,,,,,508.48860300006345,1.0,508.5042546999175,509.5176436000038,509.48827309999615,509.4882980999537,509.5176436000038,509.5176436000038,509.5176436000038,0.019138599978759885,511.307793200016,left,1,1.7899480001069605,None,511.3082780998666,511.3209525998682,511.3233752398519,511.3233752398519,512.3047551000491,511.5473394000437,511.5473394000437,512.3207362999674,,,,,,,,sophTest,001,25,F,German,2024-02-20_18h19.28.442,CatRev1_within,2023.2.3,59.98152574491557,2024-02-20 18h19.53.030400 -0500,
 2:4, 32:48,6,partial,1,images/Ex13.jpg,right,0,0,0,1,0,0,0,0,4,10,74,12,512.3207362999674,,,,,,,,,,,,,,,,,,,,,,,512.3051283999812,1.3,512.3207362999674,513.6286947999615,513.6047386999708,513.6047557999846,513.6286947999615,513.6286947999615,513.6286947999615,0.013918899931013584,514.6406824998558,right,1,1.0146049000322819,None,514.641130700009,514.6540679999162,514.6563947399845,514.6563947399845,515.6379402000457,514.8954781000502,514.8954781000502,515.6538807000034,,,,,,,,sophTest,001,25,F,German,2024-02-20_18h19.28.442,CatRev1_within,2023.2.3,59.98152574491557,2024-02-20 18h19.53.030400 -0500,
 2:4, 32:48,6,partial,1,images/Ex10.jpg,left,0,0,0,1,0,0,0,0,4,11,75,9,515.6538807000034,,,,,,,,,,,,,,,,,,,,,,,515.6382807998452,1.4,515.6538807000034,517.0639007000718,517.0377046000212,517.037725900067,517.0639007000718,517.0639007000718,517.0639007000718,0.016486900160089135,518.4239127000328,right,0,1.3561297000851482,None,518.4243804998696,518.4371028000023,518.4396131400717,518.4396131400717,519.4209541999735,,,519.4371269000694,,,,,,,,sophTest,001,25,F,German,2024-02-20_18h19.28.442,CatRev1_within,2023.2.3,59.98152574491557,2024-02-20 18h19.53.030400 -0500,
 2:4, 32:48,6,partial,1,images/Ex15.jpg,right,0,0,0,1,0,0,0,0,4,12,76,14,519.4371269000694,,,,,,,,,,,,,,,,,,,,,,,519.4213020000607,1.4,519.4371269000694,520.848921299912,520.820767799858,520.8207852998748,520.848921299912,520.848921299912,520.848921299912,0.0184816000983119,523.407151899999,left,0,2.5547223000321537,None,523.4076391998678,523.420187199954,523.422823740053,523.422823740053,524.4044276999775,523.6368304998614,523.6368304998614,524.4204021000769,,,,,,,,sophTest,001,25,F,German,2024-02-20_18h19.28.442,CatRev1_within,2023.2.3,59.98152574491557,2024-02-20 18h19.53.030400 -0500,
 2:4, 32:48,6,partial,1,images/Ex12.jpg,left,0,0,0,1,0,0,0,0,4,13,77,3,524.4204021000769,,,,,,,,,,,,,,,,,,,,,,,524.4047884000465,0.8,524.4204021000769,525.2316684999969,525.2040589000098,525.2040752000175,525.2316684999969,525.2316684999969,525.2316684999969,0.01815239991992712,526.0903753999155,right,0,0.8595302999019623,None,526.0908166998997,526.1038247998804,526.106062339968,526.106062339968,527.0872130999342,,,527.1033786998596,,,,,,,,sophTest,001,25,F,German,2024-02-20_18h19.28.442,CatRev1_within,2023.2.3,59.98152574491557,2024-02-20 18h19.53.030400 -0500,
 2:4, 32:48,6,partial,1,images/Ex11.jpg,left,0,0,0,1,0,0,0,0,4,14,78,2,527.1033786998596,,,,,,,,,,,,,,,,,,,,,,,527.0875758999027,1.4,527.1033786998596,528.5131589998491,528.4870048000012,528.4870215000119,528.5131589998491,528.5131589998491,528.5131589998491,0.01648129988461733,531.1066302999388,right,0,2.590551400091499,None,531.1071462999098,531.1197237998713,531.1222885398893,531.1222885398893,532.1035956998821,531.3954304999206,531.3954304999206,532.1196935998742,,,,,,,,sophTest,001,25,F,German,2024-02-20_18h19.28.442,CatRev1_within,2023.2.3,59.98152574491557,2024-02-20 18h19.53.030400 -0500,
 2:4, 32:48,6,partial,1,images/Ex10.jpg,left,0,0,0,1,0,0,0,0,4,15,79,1,532.1196935998742,,,,,,,,,,,,,,,,,,,,,,,532.1039400000591,1.0,532.1196935998742,533.1296298999805,533.1035472999793,533.1035656998865,533.1296298999805,533.1296298999805,533.1296298999805,0.01607059990055859,534.8732151000295,right,0,1.7520002000965178,None,534.8736896000337,534.8864984998945,534.8888615398901,534.8888615398901,535.8701762999408,535.1214844998904,535.1214844998904,535.8862165999599,,,,,,,,sophTest,001,25,F,German,2024-02-20_18h19.28.442,CatRev1_within,2023.2.3,59.98152574491557,2024-02-20 18h19.53.030400 -0500,
 2:4, 32:48,6,partial,1,images/Ex11.jpg,left,0,0,0,1,0,0,0,0,5,0,80,2,535.8862165999599,,,,,,,,,,,,,,,,,,,,,,,535.8705434000585,0.5,535.8862165999599,536.3973876999225,536.370082499925,536.3701094998978,536.3973876999225,536.3973876999225,536.3973876999225,0.017455300083383918,537.8063688999973,left,1,1.4138249999377877,None,537.8068233998492,537.8199662000407,537.8220417400589,537.8220417400589,538.8033352000639,538.0415540998802,538.0415540998802,538.8193295998499,,,,,,,,sophTest,001,25,F,German,2024-02-20_18h19.28.442,CatRev1_within,2023.2.3,59.98152574491557,2024-02-20 18h19.53.030400 -0500,
 2:4, 32:48,6,partial,1,images/Ex16.jpg,right,0,0,0,1,0,0,0,0,5,1,81,15,538.8193295998499,,,,,,,,,,,,,,,,,,,,,,,538.8036930998787,0.9,538.8193295998499,539.7292881000321,539.7031612000428,539.7031928000506,539.7292881000321,539.7292881000321,539.7292881000321,0.016874699853360653,540.356348299887,right,1,0.6335261999629438,None,540.3568219998851,540.369440899929,540.3717872399138,540.3717872399138,541.3532821999397,,,541.3694126999471,,,,,,,,sophTest,001,25,F,German,2024-02-20_18h19.28.442,CatRev1_within,2023.2.3,59.98152574491557,2024-02-20 18h19.53.030400 -0500,
 2:4, 32:48,6,partial,1,images/Ex10.jpg,left,0,0,0,1,0,0,0,0,5,2,82,1,541.3694126999471,,,,,,,,,,,,,,,,,,,,,,,541.3536233999766,1.3,541.3694126999471,542.6781669000629,542.6529459999874,542.6529645998962,542.6781669000629,542.6781669000629,542.6781669000629,0.015343000181019306,544.8558364000637,right,0,2.1705669998191297,None,544.8562979998533,544.8691902998835,544.8715577399125,544.8715577399125,545.853194499854,,,545.8693689999636,,,,,,,,sophTest,001,25,F,German,2024-02-20_18h19.28.442,CatRev1_within,2023.2.3,59.98152574491557,2024-02-20 18h19.53.030400 -0500,
 2:4, 32:48,6,partial,1,images/Ex11.jpg,left,0,0,0,1,0,0,0,0,5,3,83,10,545.8693689999636,,,,,,,,,,,,,,,,,,,,,,,545.853554100031,0.9,545.8693689999636,546.7789052999578,546.7528623999096,546.7528816000558,546.7789052999578,546.7789052999578,546.7789052999578,0.016350700054317713,547.7391075000633,left,1,0.9682361001614481,None,547.7395852999762,547.7523364999797,547.7547301399754,547.7547301399754,548.7361312999856,,,548.7521209998522,,,,,,,,sophTest,001,25,F,German,2024-02-20_18h19.28.442,CatRev1_within,2023.2.3,59.98152574491557,2024-02-20 18h19.53.030400 -0500,
 2:4, 32:48,6,partial,1,images/Ex16.jpg,right,0,0,0,1,0,0,0,0,5,4,84,7,548.7521209998522,,,,,,,,,,,,,,,,,,,,,,,548.7364773999434,0.8,548.7521209998522,549.562428599922,549.5362094999291,549.5362261999398,549.562428599922,549.562428599922,549.562428599922,0.016747300047427416,550.1557797999121,right,1,0.5885390001349151,None,550.1562361998949,550.169200199889,550.1714909399161,550.1714909399161,551.1527479998767,,,551.1687042000704,,,,,,,,sophTest,001,25,F,German,2024-02-20_18h19.28.442,CatRev1_within,2023.2.3,59.98152574491557,2024-02-20 18h19.53.030400 -0500,
 2:4, 32:48,6,partial,1,images/Ex9.jpg,left,0,0,0,1,0,0,0,0,5,5,85,0,551.1687042000704,,,,,,,,,,,,,,,,,,,,,,,551.1531219000462,1.0,551.1687042000704,552.1748114000075,552.1524914000183,552.1525101999287,552.1748114000075,552.1748114000075,552.1748114000075,0.012497399933636189,553.8723021999467,left,1,1.6909924000501633,None,553.8727406999096,553.8857076999266,553.8880733399419,553.8880733399419,554.8691680000629,554.1169280998874,554.1169280998874,554.8852148000151,,,,,,,,sophTest,001,25,F,German,2024-02-20_18h19.28.442,CatRev1_within,2023.2.3,59.98152574491557,2024-02-20 18h19.53.030400 -0500,
 2:4, 32:48,6,partial,1,images/Ex15.jpg,right,0,0,0,1,0,0,0,0,5,6,86,14,554.8852148000151,,,,,,,,,,,,,,,,,,,,,,,554.8695318999235,1.0,554.8852148000151,555.8977029998787,555.8690338998567,555.8690506999847,555.8977029998787,555.8977029998787,555.8977029998787,0.018914999905973673,556.906014499953,left,0,1.010994599899277,None,556.9064819000196,556.9184776998591,556.9211239399156,556.9211239399156,557.9024801000487,557.1351566000376,557.1351566000376,557.918594900053,,,,,,,,sophTest,001,25,F,German,2024-02-20_18h19.28.442,CatRev1_within,2023.2.3,59.98152574491557,2024-02-20 18h19.53.030400 -0500,
 2:4, 32:48,6,partial,1,images/Ex14.jpg,right,0,0,0,1,0,0,0,0,5,7,87,13,557.918594900053,,,,,,,,,,,,,,,,,,,,,,,557.9029069000389,1.3,557.918594900053,559.2277911999263,559.2021051000338,559.2021218999289,559.2277911999263,559.2277911999263,559.2277911999263,0.015979700023308396,560.3217165998649,right,1,1.1000884999521077,None,560.3221698000561,560.3349812000524,560.3373661398655,560.3373661398655,561.3189115000423,,,561.3348968999926,,,,,,,,sophTest,001,25,F,German,2024-02-20_18h19.28.442,CatRev1_within,2023.2.3,59.98152574491557,2024-02-20 18h19.53.030400 -0500,
 2:4, 32:48,6,partial,1,images/Ex10.jpg,left,0,0,0,1,0,0,0,0,5,8,88,9,561.3348968999926,,,,,,,,,,,,,,,,,,,,,,,561.3192634999286,1.4,561.3348968999926,562.743070699973,562.7186811999418,562.7187005998567,562.743070699973,562.743070699973,562.743070699973,0.015008099842816591,563.7048016998451,right,0,0.959794000023976,None,563.7052541999146,563.7181879000273,563.7205128398491,563.7205128398491,564.7019279999658,,,564.7180409000721,,,,,,,,sophTest,001,25,F,German,2024-02-20_18h19.28.442,CatRev1_within,2023.2.3,59.98152574491557,2024-02-20 18h19.53.030400 -0500,
 2:4, 32:48,6,partial,1,images/Ex12.jpg,left,0,0,0,1,0,0,0,0,5,9,89,3,564.7180409000721,,,,,,,,,,,,,,,,,,,,,,,564.7022790999617,1.3,564.7180409000721,566.0332432000432,566.001967899967,566.001986999996,566.0332432000432,566.0332432000432,566.0332432000432,0.0211020999122411,567.6712640998885,left,1,1.6326722998637706,None,567.6717274000403,567.6846453999169,567.6869984400691,567.6869984400691,568.668313199887,567.9607372998726,567.9607372998726,568.6844113999978,,,,,,,,sophTest,001,25,F,German,2024-02-20_18h19.28.442,CatRev1_within,2023.2.3,59.98152574491557,2024-02-20 18h19.53.030400 -0500,
 2:4, 32:48,6,partial,1,images/Ex15.jpg,right,0,0,0,1,0,0,0,0,5,10,90,6,568.6844113999978,,,,,,,,,,,,,,,,,,,,,,,568.6686610998586,1.5,568.6844113999978,570.1954508000053,570.1685991999693,570.1686227000318,570.1954508000053,570.1954508000053,570.1954508000053,0.01697629992850125,571.7877901999746,left,0,1.6006838001776487,None,571.7882501999848,571.8010720000602,571.8033920399612,571.8033920399612,572.784737000009,,,572.8009786999319,,,,,,,,sophTest,001,25,F,German,2024-02-20_18h19.28.442,CatRev1_within,2023.2.3,59.98152574491557,2024-02-20 18h19.53.030400 -0500,
 2:4, 32:48,6,partial,1,images/Ex14.jpg,right,0,0,0,1,0,0,0,0,5,11,91,5,572.8009786999319,,,,,,,,,,,,,,,,,,,,,,,572.7850808999501,1.3,572.8009786999319,574.1106811999343,574.0848970999941,574.0849176000338,574.1106811999343,574.1106811999343,574.1106811999343,0.015679600182920694,575.4543922999874,right,1,1.3380086000543088,None,575.4548182999715,575.46759809996,575.4699667399982,575.4699667399982,576.4514784999192,575.69746509986,575.69746509986,576.4674026998691,,,,,,,,sophTest,001,25,F,German,2024-02-20_18h19.28.442,CatRev1_within,2023.2.3,59.98152574491557,2024-02-20 18h19.53.030400 -0500,
 2:4, 32:48,6,partial,1,images/Ex9.jpg,left,0,0,0,1,0,0,0,0,5,12,92,8,576.4674026998691,,,,,,,,,,,,,,,,,,,,,,,576.4518416000064,0.6,576.4674026998691,577.0747658999171,577.0512222000398,577.0512393000536,577.0747658999171,577.0747658999171,577.0747658999171,0.01387519994750619,578.47071829997,right,0,1.4008202000986785,None,578.4711589999497,578.4840299999341,578.4863964399556,578.4863964399556,579.4679328999482,578.7023443998769,578.7023443998769,579.4838691998739,,,,,,,,sophTest,001,25,F,German,2024-02-20_18h19.28.442,CatRev1_within,2023.2.3,59.98152574491557,2024-02-20 18h19.53.030400 -0500,
 2:4, 32:48,6,partial,1,images/Ex12.jpg,left,0,0,0,1,0,0,0,0,5,13,93,11,579.4838691998739,,,,,,,,,,,,,,,,,,,,,,,579.4682895999867,0.7,579.4838691998739,580.1967620998621,580.167663600063,580.1676807999611,580.1967620998621,580.1967620998621,580.1967620998621,0.019559100037440658,581.1874438000377,left,1,0.9955651999916881,None,581.1878883999307,581.2007081999909,581.2030731398845,581.2030731398845,582.184728999855,581.4608604998793,581.4608604998793,582.2007251998875,,,,,,,,sophTest,001,25,F,German,2024-02-20_18h19.28.442,CatRev1_within,2023.2.3,59.98152574491557,2024-02-20 18h19.53.030400 -0500,
 2:4, 32:48,6,partial,1,images/Ex13.jpg,right,0,0,0,1,0,0,0,0,5,14,94,4,582.2007251998875,,,,,,,,,,,,,,,,,,,,,,,582.1850870999042,1.3,582.2007251998875,583.50677550002,583.4843067999464,583.484327999875,583.50677550002,583.50677550002,583.50677550002,0.012691100127995014,584.603602899937,right,1,1.0922991000115871,None,584.6040246000048,584.6171289000195,584.6193693400128,584.6193693400128,585.6009923999663,584.8957519000396,584.8957519000396,585.6170518998988,,,,,,,,sophTest,001,25,F,German,2024-02-20_18h19.28.442,CatRev1_within,2023.2.3,59.98152574491557,2024-02-20 18h19.53.030400 -0500,
 2:4, 32:48,6,partial,1,images/Ex13.jpg,right,0,0,0,1,0,0,0,0,5,15,95,12,585.6170518998988,,,,,,,,,,,,,,,,,,,,,,,585.6013698999304,0.7,585.6170518998988,586.3231976998504,586.3010774999857,586.301095899893,586.3231976998504,586.3231976998504,586.3231976998504,0.012372000142931938,587.303826399846,right,1,0.9794514998793602,None,587.3042597000021,587.316947599873,587.3194340398768,587.3194340398768,588.3007640000433,587.5546218999662,587.5546218999662,588.3167705000378,,,,,,,,sophTest,001,25,F,German,2024-02-20_18h19.28.442,CatRev1_within,2023.2.3,59.98152574491557,2024-02-20 18h19.53.030400 -0500,
 2:4, 48:64,6,partial,2,images/Ex11.jpg,right,0,0,0,1,0,1,1,1,0,0,0,2,588.3167705000378,,,,,,,,,,,,,,,,,,,,,,,588.3074163999408,1.4,588.3167705000378,589.7269267998636,589.7008044000249,589.7008235999383,589.7269267998636,589.7269267998636,589.7269267998636,0.016324999975040555,592.4536184000317,right,1,2.726589199854061,None,592.4542906999122,592.4666496000718,592.4692990399199,592.4692990399199,593.450700599933,592.7019839999266,592.7019839999266,593.4666617000476,,,,,,,,sophTest,001,25,F,German,2024-02-20_18h19.28.442,CatRev1_within,2023.2.3,59.98152574491557,2024-02-20 18h19.53.030400 -0500,
 2:4, 48:64,6,partial,2,images/Ex9.jpg,left,0,0,0,1,0,1,1,1,0,1,1,0,593.4666617000476,,,,,,,,,,,,,,,,,,,,,,,593.4510725999717,1.4,593.4666617000476,594.8735660999082,594.8505827998742,594.8506004000083,594.8735660999082,594.8735660999082,594.8735660999082,0.012953000143170357,597.2374001999851,left,1,2.3448518000077456,None,597.2386628999375,597.2650877998676,597.2680523800664,597.2680523800664,598.2506784000434,,,,,,,,,,,sophTest,001,25,F,German,2024-02-20_18h19.28.442,CatRev1_within,2023.2.3,59.98152574491557,2024-02-20 18h19.53.030400 -0500,
 2:4, 48:64,6,partial,2,images/Ex13.jpg,left,0,0,0,1,0,1,1,1,0,2,2,12,598.2669480999466,,,,,,,,,,,,,,,,,,,,,,,598.2517057000659,0.7,598.2669480999466,599.009376599919,598.9522317000665,598.9522877999116,599.009376599919,599.009376599919,599.009376599919,0.03909499989822507,599.7355122999288,right,0,0.7208256998565048,None,599.7368532998953,599.7595917999279,599.7494443400064,599.7494443400064,600.7503404000308,599.9692726000212,599.9692726000212,,,,,,,,,sophTest,001,25,F,German,2024-02-20_18h19.28.442,CatRev1_within,2023.2.3,59.98152574491557,2024-02-20 18h19.53.030400 -0500,
 2:4, 48:64,6,partial,2,images/Ex12.jpg,right,0,0,0,1,0,1,1,1,0,3,3,3,600.76673449995,,,,,,,,,,,,,,,,,,,,,,,600.7514062998816,1.2,600.76673449995,602.036992700072,601.9517045998946,601.9517614999786,602.036992700072,602.036992700072,602.036992700072,0.06691870000213385,605.5737788998522,left,0,3.5360653998795897,None,605.5750625999644,605.6477629998699,605.6379204599652,605.6379204599652,606.5834091000725,605.8936679000035,605.8936679000035,,,,,,,,,sophTest,001,25,F,German,2024-02-20_18h19.28.442,CatRev1_within,2023.2.3,59.98152574491557,2024-02-20 18h19.53.030400 -0500,
 2:4, 48:64,6,partial,2,images/Ex12.jpg,right,0,0,0,1,0,1,1,1,0,4,4,11,606.5995801999234,,,,,,,,,,,,,,,,,,,,,,,606.584530599881,1.0,606.5995801999234,607.6656527998857,607.5842802000698,607.5843805999029,607.6656527998857,607.6656527998857,607.6656527998857,0.05876659997738898,608.1550993998535,left,0,0.5067902998998761,None,608.1564233999234,608.1804720999207,608.1688927399227,608.1688927399227,609.1667317999527,608.3935642999131,608.3935642999131,,,,,,,,,sophTest,001,25,F,German,2024-02-20_18h19.28.442,CatRev1_within,2023.2.3,59.98152574491557,2024-02-20 18h19.53.030400 -0500,
 2:4, 48:64,6,partial,2,images/Ex15.jpg,right,0,0,0,1,0,1,1,1,0,5,5,14,609.182828299934,,,,,,,,,,,,,,,,,,,,,,,609.168327299878,0.6,609.182828299934,609.8403274999,609.7679518999066,609.7680091999937,609.8403274999,609.8403274999,609.8403274999,0.054506100015714765,611.1561775999144,right,1,1.3290472000371665,None,611.1573952999897,611.1846336999442,611.1852257798892,611.1852257798892,612.167073099874,611.4003500000108,611.4003500000108,,,,,,,,,sophTest,001,25,F,German,2024-02-20_18h19.28.442,CatRev1_within,2023.2.3,59.98152574491557,2024-02-20 18h19.53.030400 -0500,
 2:4, 48:64,6,partial,2,images/Ex9.jpg,left,0,0,0,1,0,1,1,1,0,6,6,8,612.1827779000159,,,,,,,,,,,,,,,,,,,,,,,612.168196399929,1.3,612.1827779000159,613.5340634000022,613.4678962999023,613.4679845999926,613.5340634000022,613.5340634000022,613.5340634000022,0.04800570011138916,615.1885947999544,right,0,1.6595201001036912,None,615.1899031999055,615.2169981000479,615.2185976798646,615.2185976798646,616.1994278000202,,,,,,,,,,,sophTest,001,25,F,German,2024-02-20_18h19.28.442,CatRev1_within,2023.2.3,59.98152574491557,2024-02-20 18h19.53.030400 -0500,
 2:4, 48:64,6,partial,2,images/Ex16.jpg,right,0,0,0,1,0,1,1,1,0,7,7,15,616.2158345000353,,,,,,,,,,,,,,,,,,,,,,,616.2003870999906,1.3,616.2158345000353,617.5753907999024,617.5009027998894,617.5009585998487,617.5753907999024,617.5753907999024,617.5753907999024,0.055026899790391326,618.2070438000374,right,1,0.6367919999174774,None,618.2083542000037,618.2411940998863,618.2373230799567,618.2373230799567,619.2169373000506,,,,,,,,,,,sophTest,001,25,F,German,2024-02-20_18h19.28.442,CatRev1_within,2023.2.3,59.98152574491557,2024-02-20 18h19.53.030400 -0500,
 2:4, 48:64,6,partial,2,images/Ex11.jpg,right,0,0,0,1,0,1,1,1,0,8,8,10,619.232229999965,,,,,,,,,,,,,,,,,,,,,,,619.2179813999683,1.2,619.232229999965,620.4832647999283,620.4170488999225,620.4171039999928,620.4832647999283,620.4832647999283,620.4832647999283,0.04901940003037453,622.4737207998987,right,1,2.0001751999370754,None,622.4750403999351,622.5056038999464,622.5035552799236,622.5035552799236,623.4824444998521,,,,,,,,,,,sophTest,001,25,F,German,2024-02-20_18h19.28.442,CatRev1_within,2023.2.3,59.98152574491557,2024-02-20 18h19.53.030400 -0500,
 2:4, 48:64,6,partial,2,images/Ex15.jpg,right,0,0,0,1,0,1,1,1,0,9,9,6,623.4987047999166,,,,,,,,,,,,,,,,,,,,,,,623.4834324000403,1.2,623.4987047999166,624.7606683999766,624.6834424000699,624.6834968999028,624.7606683999766,624.7606683999766,624.7606683999766,0.058777400059625506,626.6374560999684,right,1,1.884948599850759,None,626.6387642000336,626.6777116998564,626.667809179984,626.667809179984,627.649403099902,626.8891298999079,626.8891298999079,,,,,,,,,sophTest,001,25,F,German,2024-02-20_18h19.28.442,CatRev1_within,2023.2.3,59.98152574491557,2024-02-20 18h19.53.030400 -0500,
 2:4, 48:64,6,partial,2,images/Ex14.jpg,left,0,0,0,1,0,1,1,1,0,10,10,13,627.6651538999286,,,,,,,,,,,,,,,,,,,,,,,627.650387099944,1.1,627.6651538999286,628.8286317000166,628.7499495998491,628.7500054999255,628.8286317000166,628.8286317000166,628.8286317000166,0.05923849996179342,630.0044787998777,right,0,1.1849625997710973,None,630.0057897998486,630.0324611000251,630.0181923400378,630.0181923400378,631.0158613000531,630.2798148000147,630.2798148000147,,,,,,,,,sophTest,001,25,F,German,2024-02-20_18h19.28.442,CatRev1_within,2023.2.3,59.98152574491557,2024-02-20 18h19.53.030400 -0500,
 2:4, 48:64,6,partial,2,images/Ex14.jpg,left,0,0,0,1,0,1,1,1,0,11,11,5,631.0316397999413,,,,,,,,,,,,,,,,,,,,,,,631.0168612999842,0.9,631.0316397999413,631.9791432998609,631.9163897000253,631.91644489998,631.9791432998609,631.9791432998609,631.9791432998609,0.044666700065135956,632.7239699999336,left,1,0.7412256998941302,None,632.7252274998464,632.7590011998545,632.754693179857,632.754693179857,633.7321834000759,632.9687733999453,632.9687733999453,,,,,,,,,sophTest,001,25,F,German,2024-02-20_18h19.28.442,CatRev1_within,2023.2.3,59.98152574491557,2024-02-20 18h19.53.030400 -0500,
 2:4, 48:64,6,partial,2,images/Ex13.jpg,left,0,0,0,1,0,1,1,1,0,12,12,4,633.748487399891,,,,,,,,,,,,,,,,,,,,,,,633.7332059000619,0.8,633.748487399891,634.5910700999666,634.5329026998952,634.532958699856,634.5910700999666,634.5910700999666,634.5910700999666,0.04068419989198446,635.4546864000149,right,0,0.8769735000096262,None,635.4559249999002,635.4810098998714,635.484407979995,635.484407979995,636.4650524000172,635.7076481999829,635.7076481999829,,,,,,,,,sophTest,001,25,F,German,2024-02-20_18h19.28.442,CatRev1_within,2023.2.3,59.98152574491557,2024-02-20 18h19.53.030400 -0500,
 2:4, 48:64,6,partial,2,images/Ex10.jpg,left,0,0,0,1,0,1,1,1,0,13,13,1,636.4815012998879,,,,,,,,,,,,,,,,,,,,,,,636.4660135000013,1.1,636.4815012998879,637.6337421999779,637.5664897998795,637.5665465998463,637.6337421999779,637.6337421999779,637.6337421999779,0.04930599988438189,639.2392201998737,left,1,1.6176328998990357,None,639.2406434998848,639.2713708998635,639.2675761799328,639.2675761799328,640.248293899931,,,,,,,,,,,sophTest,001,25,F,German,2024-02-20_18h19.28.442,CatRev1_within,2023.2.3,59.98152574491557,2024-02-20 18h19.53.030400 -0500,
 2:4, 48:64,6,partial,2,images/Ex10.jpg,left,0,0,0,1,0,1,1,1,0,14,14,9,640.2648612000048,,,,,,,,,,,,,,,,,,,,,,,640.249307999853,1.0,640.2648612000048,641.3173946999013,641.2494608999696,641.2495158000384,641.3173946999013,641.3173946999013,641.3173946999013,0.0495769998524338,641.8424182999879,left,1,0.5398020001593977,None,641.8437605998479,641.873552300036,641.8723930800334,641.8723930800334,642.8480982000474,642.1134217998479,642.1134217998479,,,,,,,,,sophTest,001,25,F,German,2024-02-20_18h19.28.442,CatRev1_within,2023.2.3,59.98152574491557,2024-02-20 18h19.53.030400 -0500,
 2:4, 48:64,6,partial,2,images/Ex16.jpg,right,0,0,0,1,0,1,1,1,0,15,15,7,642.8644303998444,,,,,,,,,,,,,,,,,,,,,,,642.8491024000105,1.1,642.8644303998444,644.0415510998573,643.9493783998769,643.9494328000583,644.0415510998573,644.0415510998573,644.0415510998573,0.053977099945768714,644.6202032000292,right,1,0.6039395001716912,None,644.6215863998514,644.654335899977,644.6507827800233,644.6507827800233,645.6314191999845,644.8906803999562,644.8906803999562,,,,,,,,,sophTest,001,25,F,German,2024-02-20_18h19.28.442,CatRev1_within,2023.2.3,59.98152574491557,2024-02-20 18h19.53.030400 -0500,
 2:4, 48:64,6,partial,2,images/Ex14.jpg,left,0,0,0,1,0,1,1,1,1,0,16,13,645.6477069000248,,,,,,,,,,,,,,,,,,,,,,,645.6324272998609,1.1,645.6477069000248,646.803240200039,646.7325813998468,646.7326390000526,646.803240200039,646.803240200039,646.803240200039,0.046511400025337934,647.9568018999416,right,0,1.1556428000330925,None,647.9581195998471,647.983797099907,647.9876100800466,647.9876100800466,648.9644140999299,648.2083032999653,648.2083032999653,,,,,,,,,sophTest,001,25,F,German,2024-02-20_18h19.28.442,CatRev1_within,2023.2.3,59.98152574491557,2024-02-20 18h19.53.030400 -0500,
 2:4, 48:64,6,partial,2,images/Ex11.jpg,right,0,0,0,1,0,1,1,1,1,1,17,10,648.9808884998783,,,,,,,,,,,,,,,,,,,,,,,648.9654196999036,1.0,648.9808884998783,649.9914396998938,649.9642993998714,649.964318000013,649.9914396998938,649.9914396998938,649.9914396998938,0.01737289992161095,651.650413800031,right,1,1.6600067999679595,None,651.650879399851,651.6635781000368,651.6658426398644,651.6658426398644,652.6473939998541,651.8938539999072,651.8938539999072,652.6633901000023,,,,,,,,sophTest,001,25,F,German,2024-02-20_18h19.28.442,CatRev1_within,2023.2.3,59.98152574491557,2024-02-20 18h19.53.030400 -0500,
 2:4, 48:64,6,partial,2,images/Ex12.jpg,right,0,0,0,1,0,1,1,1,1,2,18,11,652.6633901000023,,,,,,,,,,,,,,,,,,,,,,,652.6477536000311,0.6,652.6633901000023,653.2783933000173,653.2472738998476,653.2472935998812,653.2783933000173,653.2783933000173,653.2783933000173,0.020221699960529804,655.0835358998738,right,1,1.8109271000139415,None,655.0839992000256,655.0967369000427,655.0991207399638,655.0991207399638,656.0805311999284,,,656.0965684000403,,,,,,,,sophTest,001,25,F,German,2024-02-20_18h19.28.442,CatRev1_within,2023.2.3,59.98152574491557,2024-02-20 18h19.53.030400 -0500,
 2:4, 48:64,6,partial,2,images/Ex14.jpg,left,0,0,0,1,0,1,1,1,1,3,19,5,656.0965684000403,,,,,,,,,,,,,,,,,,,,,,,656.0808715000749,1.1,656.0965684000403,657.2059273999184,657.1803421999793,657.1803619998973,657.2059273999184,657.2059273999184,657.2059273999184,0.01567250001244247,657.7164119998924,left,1,0.5140464000869542,None,657.7168669998646,657.7299983999692,657.7322113398695,657.7322113398695,658.713711099932,657.9609618000686,657.9609618000686,658.7297435000073,,,,,,,,sophTest,001,25,F,German,2024-02-20_18h19.28.442,CatRev1_within,2023.2.3,59.98152574491557,2024-02-20 18h19.53.030400 -0500,
 2:4, 48:64,6,partial,2,images/Ex12.jpg,right,0,0,0,1,0,1,1,1,1,4,20,3,658.7297435000073,,,,,,,,,,,,,,,,,,,,,,,658.7140548999887,0.6,658.7297435000073,659.3421107998583,659.3135803998448,659.3135997999925,659.3421107998583,659.3421107998583,659.3421107998583,0.018876199843361974,660.3330061000306,right,1,0.9909764998592436,None,660.3334586999845,660.3464381999802,660.348705940065,660.348705940065,661.3303821000736,,,661.3464001999237,,,,,,,,sophTest,001,25,F,German,2024-02-20_18h19.28.442,CatRev1_within,2023.2.3,59.98152574491557,2024-02-20 18h19.53.030400 -0500,
 2:4, 48:64,6,partial,2,images/Ex9.jpg,left,0,0,0,1,0,1,1,1,1,5,21,0,661.3464001999237,,,,,,,,,,,,,,,,,,,,,,,661.330733000068,0.7,661.3464001999237,662.0521690999158,662.0302851998713,662.0303046999034,662.0521690999158,662.0521690999158,662.0521690999158,0.011950400192290545,663.7497421000153,left,1,1.6960304998792708,None,663.7501638999674,663.7629628998693,663.7653622400248,663.7653622400248,664.7468981998973,,,664.7627679998986,,,,,,,,sophTest,001,25,F,German,2024-02-20_18h19.28.442,CatRev1_within,2023.2.3,59.98152574491557,2024-02-20 18h19.53.030400 -0500,
 2:4, 48:64,6,partial,2,images/Ex15.jpg,right,0,0,0,1,0,1,1,1,1,6,22,6,664.7627679998986,,,,,,,,,,,,,,,,,,,,,,,664.7472387999296,1.1,664.7627679998986,665.8738724000286,665.8466684999876,665.8466876000166,665.8738724000286,665.8738724000286,665.8738724000286,0.01718820002861321,667.9827972999774,left,0,2.108205499825999,None,667.983251699945,667.9959770999849,667.9984231399139,667.9984231399139,668.9797477000393,,,668.9959138999693,,,,,,,,sophTest,001,25,F,German,2024-02-20_18h19.28.442,CatRev1_within,2023.2.3,59.98152574491557,2024-02-20 18h19.53.030400 -0500,
 2:4, 48:64,6,partial,2,images/Ex11.jpg,right,0,0,0,1,0,1,1,1,1,7,23,2,668.9959138999693,,,,,,,,,,,,,,,,,,,,,,,668.9800766999833,0.6,668.9959138999693,669.6049752999097,669.579741399968,669.5797577998601,669.6049752999097,669.6049752999097,669.6049752999097,0.015833099838346243,670.832413099939,left,0,1.2337887999601662,None,670.8329771000426,670.8458463000134,670.8481684400467,670.8481684400467,671.8297253998462,,,671.8457927999552,,,,,,,,sophTest,001,25,F,German,2024-02-20_18h19.28.442,CatRev1_within,2023.2.3,59.98152574491557,2024-02-20 18h19.53.030400 -0500,
 2:4, 48:64,6,partial,2,images/Ex10.jpg,left,0,0,0,1,0,1,1,1,1,8,24,9,671.8457927999552,,,,,,,,,,,,,,,,,,,,,,,671.8300832998939,1.3,671.8457927999552,673.1546429998707,673.1294722999446,673.129491499858,673.1546429998707,673.1546429998707,673.1546429998707,0.015334200114011765,674.5495640998706,left,1,1.3977818998973817,None,674.5500215999782,674.5624840999953,674.5652340400266,674.5652340400266,675.5463103000075,674.7829942000099,674.7829942000099,675.5622628999408,,,,,,,,sophTest,001,25,F,German,2024-02-20_18h19.28.442,CatRev1_within,2023.2.3,59.98152574491557,2024-02-20 18h19.53.030400 -0500,
 2:4, 48:64,6,partial,2,images/Ex16.jpg,right,0,0,0,1,0,1,1,1,1,9,25,7,675.5622628999408,,,,,,,,,,,,,,,,,,,,,,,675.5467027998529,0.9,675.5622628999408,676.47278309986,676.4459987999871,676.4460189000238,676.47278309986,676.47278309986,676.47278309986,0.01723160012625158,677.032283199951,right,1,0.5578636999707669,None,677.0327381999232,677.0455880998634,677.0479586400324,677.0479586400324,678.0296455998905,677.2770020999014,677.2770020999014,678.045684899902,,,,,,,,sophTest,001,25,F,German,2024-02-20_18h19.28.442,CatRev1_within,2023.2.3,59.98152574491557,2024-02-20 18h19.53.030400 -0500,
 2:4, 48:64,6,partial,2,images/Ex13.jpg,left,0,0,0,1,0,1,1,1,1,10,26,4,678.045684899902,,,,,,,,,,,,,,,,,,,,,,,678.0300240998622,0.6,678.045684899902,678.6520102999639,678.6292649998795,678.6292844000272,678.6520102999639,678.6520102999639,678.6520102999639,0.012986700050532818,679.3486407999881,right,0,0.6941067001316696,None,679.3491372000426,679.3620774999727,679.364390439936,679.364390439936,680.3458964000456,,,680.3619977000635,,,,,,,,sophTest,001,25,F,German,2024-02-20_18h19.28.442,CatRev1_within,2023.2.3,59.98152574491557,2024-02-20 18h19.53.030400 -0500,
 2:4, 48:64,6,partial,2,images/Ex15.jpg,right,0,0,0,1,0,1,1,1,1,11,27,14,680.3619977000635,,,,,,,,,,,,,,,,,,,,,,,680.3462616999168,1.0,680.3619977000635,681.372908399906,681.3457770999521,681.3457944998518,681.372908399906,681.372908399906,681.372908399906,0.017373999813571572,682.9319593999535,left,0,1.560306299943477,None,682.9324211999774,682.945201799972,682.9476309398888,682.9476309398888,683.9289843998849,,,683.9451253998559,,,,,,,,sophTest,001,25,F,German,2024-02-20_18h19.28.442,CatRev1_within,2023.2.3,59.98152574491557,2024-02-20 18h19.53.030400 -0500,
 2:4, 48:64,6,partial,2,images/Ex9.jpg,left,0,0,0,1,0,1,1,1,1,12,28,8,683.9451253998559,,,,,,,,,,,,,,,,,,,,,,,683.9293565999251,1.4,683.9451253998559,685.3509497998748,685.3289578999393,685.3289763999637,685.3509497998748,685.3509497998748,685.3509497998748,0.012292400002479553,686.7485487998929,left,1,1.403815499972552,None,686.7489962999243,686.7618322998751,686.7642615399091,686.7642615399091,687.7454985999502,687.041030399967,687.041030399967,687.7616041998845,,,,,,,,sophTest,001,25,F,German,2024-02-20_18h19.28.442,CatRev1_within,2023.2.3,59.98152574491557,2024-02-20 18h19.53.030400 -0500,
 2:4, 48:64,6,partial,2,images/Ex10.jpg,left,0,0,0,1,0,1,1,1,1,13,29,1,687.7616041998845,,,,,,,,,,,,,,,,,,,,,,,687.7458500000648,0.9,687.7616041998845,688.6705384999514,688.6453877000604,688.6454078999814,688.6705384999514,688.6705384999514,688.6705384999514,0.015400900039821863,690.1817781999707,right,0,1.5115435998886824,None,690.1822172000539,690.1952338998672,690.1974970399169,690.1974970399169,691.1787062999792,,,691.1946977998596,,,,,,,,sophTest,001,25,F,German,2024-02-20_18h19.28.442,CatRev1_within,2023.2.3,59.98152574491557,2024-02-20 18h19.53.030400 -0500,
 2:4, 48:64,6,partial,2,images/Ex13.jpg,left,0,0,0,1,0,1,1,1,1,14,30,12,691.1946977998596,,,,,,,,,,,,,,,,,,,,,,,691.1790739998687,0.5,691.1946977998596,691.7008080000523,691.6785424998961,691.6785619000439,691.7008080000523,691.7008080000523,691.7008080000523,0.012610599864274263,692.3483084999025,right,0,0.6551731000654399,None,692.348773600068,692.3614334999584,692.3639037400717,692.3639037400717,693.3452285998501,,,693.3614282000344,,,,,,,,sophTest,001,25,F,German,2024-02-20_18h19.28.442,CatRev1_within,2023.2.3,59.98152574491557,2024-02-20 18h19.53.030400 -0500,
 2:4, 48:64,6,partial,2,images/Ex16.jpg,right,0,0,0,1,0,1,1,1,1,15,31,15,693.3614282000344,,,,,,,,,,,,,,,,,,,,,,,693.3455961998552,1.0,693.3614282000344,694.3731289000716,694.3453750999179,694.3453921000473,694.3731289000716,694.3731289000716,694.3731289000716,0.017923299921676517,695.0647326000035,right,1,0.6941101001575589,None,695.0651978999376,695.0779569000006,695.0803740400588,695.0803740400588,696.0617674000096,,,696.0777487999294,,,,,,,,sophTest,001,25,F,German,2024-02-20_18h19.28.442,CatRev1_within,2023.2.3,59.98152574491557,2024-02-20 18h19.53.030400 -0500,
 2:4, 48:64,6,partial,2,images/Ex12.jpg,right,0,0,0,1,0,1,1,1,2,0,32,11,696.0777487999294,,,,,,,,,,,,,,,,,,,,,,,696.0621080999263,1.1,696.0777487999294,697.1891278000548,697.1617058999836,697.161724699894,697.1891278000548,697.1891278000548,697.1891278000548,0.017870600102469325,698.6481073999312,left,0,1.4656332000158727,None,698.6485848999582,698.661082400009,698.6635953398654,698.6635953398654,699.6448754998855,698.8929822999053,698.8929822999053,699.6609157000203,,,,,,,,sophTest,001,25,F,German,2024-02-20_18h19.28.442,CatRev1_within,2023.2.3,59.98152574491557,2024-02-20 18h19.53.030400 -0500,
 2:4, 48:64,6,partial,2,images/Ex9.jpg,left,0,0,0,1,0,1,1,1,2,1,33,8,699.6609157000203,,,,,,,,,,,,,,,,,,,,,,,699.6452506000642,1.4,699.6609157000203,701.0667683999054,701.0447269999422,701.0447468999773,701.0667683999054,701.0667683999054,701.0667683999054,0.012268000049516559,702.4645264998544,left,1,1.3955337000079453,None,702.4649622999132,702.4779618999455,702.4802212399663,702.4802212399663,703.4613407000434,702.696845700033,702.696845700033,703.4774519000202,,,,,,,,sophTest,001,25,F,German,2024-02-20_18h19.28.442,CatRev1_within,2023.2.3,59.98152574491557,2024-02-20 18h19.53.030400 -0500,
 2:4, 48:64,6,partial,2,images/Ex15.jpg,right,0,0,0,1,0,1,1,1,2,2,34,6,703.4774519000202,,,,,,,,,,,,,,,,,,,,,,,703.4616803000681,1.1,703.4774519000202,704.5893472998869,704.5612687000539,704.5612877998501,704.5893472998869,704.5893472998869,704.5893472998869,0.018476400058716536,706.3977772998624,right,1,1.8152433999348432,None,706.3982174000703,706.4131642000284,706.4133856400149,706.4133856400149,707.4107363999356,706.6294368999079,706.6294368999079,,,,,,,,,sophTest,001,25,F,German,2024-02-20_18h19.28.442,CatRev1_within,2023.2.3,59.98152574491557,2024-02-20 18h19.53.030400 -0500,
 2:4, 48:64,6,partial,2,images/Ex13.jpg,left,0,0,0,1,0,1,1,1,2,3,35,12,707.4272197999526,,,,,,,,,,,,,,,,,,,,,,,707.4110953998752,1.0,707.4272197999526,708.4341996998992,708.4110683000181,708.411087699933,708.4341996998992,708.4341996998992,708.4341996998992,0.01356870005838573,709.0972247999161,right,0,0.6611446999013424,None,709.0976941999979,709.1104830999393,709.1129600399872,709.1129600399872,710.0945897998754,709.3841353999451,709.3841353999451,710.1106499000452,,,,,,,,sophTest,001,25,F,German,2024-02-20_18h19.28.442,CatRev1_within,2023.2.3,59.98152574491557,2024-02-20 18h19.53.030400 -0500,
 2:4, 48:64,6,partial,2,images/Ex11.jpg,right,0,0,0,1,0,1,1,1,2,4,36,10,710.1106499000452,,,,,,,,,,,,,,,,,,,,,,,710.0949587998912,1.1,710.1106499000452,711.2205302999355,711.1943327998742,711.1943532000296,711.2205302999355,711.2205302999355,711.2205302999355,0.016704500187188387,712.9137945999391,right,1,1.6858127999585122,None,712.9142741998658,712.9270826999564,712.9294693398988,712.9294693398988,713.9109612000175,,,713.9269453999586,,,,,,,,sophTest,001,25,F,German,2024-02-20_18h19.28.442,CatRev1_within,2023.2.3,59.98152574491557,2024-02-20 18h19.53.030400 -0500,
 2:4, 48:64,6,partial,2,images/Ex16.jpg,right,0,0,0,1,0,1,1,1,2,5,37,15,713.9269453999586,,,,,,,,,,,,,,,,,,,,,,,713.9113258998841,1.0,713.9269453999586,714.936733599985,714.9107289998792,714.9107482999098,714.936733599985,714.936733599985,714.936733599985,0.01653790008276701,715.5802539999131,right,1,0.6376960999332368,None,715.5807286000345,715.5935448000673,715.5959653399186,715.5959653399186,716.5774101999123,,,716.5933681000024,,,,,,,,sophTest,001,25,F,German,2024-02-20_18h19.28.442,CatRev1_within,2023.2.3,59.98152574491557,2024-02-20 18h19.53.030400 -0500,
 2:4, 48:64,6,partial,2,images/Ex10.jpg,left,0,0,0,1,0,1,1,1,2,6,38,1,716.5933681000024,,,,,,,,,,,,,,,,,,,,,,,716.5777809000574,1.4,716.5933681000024,718.0029980000108,717.9773822999559,717.9773993999697,718.0029980000108,718.0029980000108,718.0029980000108,0.015425699995830655,719.9966655999888,right,0,1.9889636000152677,None,719.9971298999153,720.0099321000744,720.0123556399485,720.0123556399485,720.9936800000723,,,721.0098131999839,,,,,,,,sophTest,001,25,F,German,2024-02-20_18h19.28.442,CatRev1_within,2023.2.3,59.98152574491557,2024-02-20 18h19.53.030400 -0500,
 2:4, 48:64,6,partial,2,images/Ex14.jpg,left,0,0,0,1,0,1,1,1,2,7,39,13,721.0098131999839,,,,,,,,,,,,,,,,,,,,,,,720.994036699878,0.6,721.0098131999839,721.6175130999181,721.5937099999283,721.5937284999527,721.6175130999181,721.6175130999181,721.6175130999181,0.014476299984380603,722.1804337999783,left,1,0.5707036000676453,None,722.1808654000051,722.1935022999533,722.1958750399062,722.1958750399062,723.1772093998734,722.4643613998778,722.4643613998778,723.1930585999507,,,,,,,,sophTest,001,25,F,German,2024-02-20_18h19.28.442,CatRev1_within,2023.2.3,59.98152574491557,2024-02-20 18h19.53.030400 -0500,
 2:4, 48:64,6,partial,2,images/Ex16.jpg,right,0,0,0,1,0,1,1,1,2,8,40,7,723.1930585999507,,,,,,,,,,,,,,,,,,,,,,,723.1775819000322,1.5,723.1930585999507,724.7043926999904,724.67684249999,724.6768618999049,724.7043926999904,724.7043926999904,724.7043926999904,0.01780760008841753,725.2464661998674,right,1,0.5348309001419693,None,725.2469142000191,725.2597777999472,725.2621425400721,725.2621425400721,726.2437100999523,725.4764634999447,725.4764634999447,726.2598037999123,,,,,,,,sophTest,001,25,F,German,2024-02-20_18h19.28.442,CatRev1_within,2023.2.3,59.98152574491557,2024-02-20 18h19.53.030400 -0500,
 2:4, 48:64,6,partial,2,images/Ex11.jpg,right,0,0,0,1,0,1,1,1,2,9,41,2,726.2598037999123,,,,,,,,,,,,,,,,,,,,,,,726.2440605999436,0.6,726.2598037999123,726.8688435000367,726.84339919989,726.8434267998673,726.8688435000367,726.8688435000367,726.8688435000367,0.01597559987567365,728.2963244998828,right,1,1.4199000999797136,None,728.2967775999568,728.3096183000598,728.3120885399403,728.3120885399403,729.2935816999525,728.5420500999317,728.5420500999317,729.3095398999285,,,,,,,,sophTest,001,25,F,German,2024-02-20_18h19.28.442,CatRev1_within,2023.2.3,59.98152574491557,2024-02-20 18h19.53.030400 -0500,
 2:4, 48:64,6,partial,2,images/Ex10.jpg,left,0,0,0,1,0,1,1,1,2,10,42,9,729.3095398999285,,,,,,,,,,,,,,,,,,,,,,,729.2939502999652,0.6,729.3095398999285,729.9185017999262,729.8933448998723,729.89336430002,729.9185017999262,729.9185017999262,729.9185017999262,0.01517180004157126,730.4131407998502,left,1,0.48987659998238087,None,730.4136069000233,730.4264980999287,730.4288532399805,730.4288532399805,731.4099617998581,,,731.4259186999407,,,,,,,,sophTest,001,25,F,German,2024-02-20_18h19.28.442,CatRev1_within,2023.2.3,59.98152574491557,2024-02-20 18h19.53.030400 -0500,
 2:4, 48:64,6,partial,2,images/Ex13.jpg,left,0,0,0,1,0,1,1,1,2,11,43,4,731.4259186999407,,,,,,,,,,,,,,,,,,,,,,,731.4103242000565,0.8,731.4259186999407,732.232471199939,732.2098008999601,732.2098194998689,732.232471199939,732.232471199939,732.232471199939,0.01301689981482923,733.4293124999385,right,0,1.193742400035262,None,733.4298853999935,733.4424995998852,733.4449720400153,733.4449720400153,734.4266830000561,,,734.4427443998866,,,,,,,,sophTest,001,25,F,German,2024-02-20_18h19.28.442,CatRev1_within,2023.2.3,59.98152574491557,2024-02-20 18h19.53.030400 -0500,
 2:4, 48:64,6,partial,2,images/Ex12.jpg,right,0,0,0,1,0,1,1,1,2,12,44,3,734.4427443998866,,,,,,,,,,,,,,,,,,,,,,,734.4270124998875,0.8,734.4427443998866,735.2546934999991,735.2263617999852,735.2263789998833,735.2546934999991,735.2546934999991,735.2546934999991,0.018685099901631474,736.9625828000717,right,1,1.7094552000053227,None,736.9630440999754,736.9758917998988,736.9783149400027,736.9783149400027,737.9597533000633,737.1950918000657,737.1950918000657,737.9759029999841,,,,,,,,sophTest,001,25,F,German,2024-02-20_18h19.28.442,CatRev1_within,2023.2.3,59.98152574491557,2024-02-20 18h19.53.030400 -0500,
 2:4, 48:64,6,partial,2,images/Ex14.jpg,left,0,0,0,1,0,1,1,1,2,13,45,5,737.9759029999841,,,,,,,,,,,,,,,,,,,,,,,737.9601201000623,1.4,737.9759029999841,739.3840214000084,739.3593472000211,739.35936579993,739.3840214000084,739.3840214000084,739.3840214000084,0.015000799903646111,740.5289829999674,left,1,1.1408683001063764,None,740.5294403999578,740.542284199968,740.5446010398446,740.5446010398446,741.5262231000233,740.7683586999774,740.7683586999774,741.5422237999737,,,,,,,,sophTest,001,25,F,German,2024-02-20_18h19.28.442,CatRev1_within,2023.2.3,59.98152574491557,2024-02-20 18h19.53.030400 -0500,
 2:4, 48:64,6,partial,2,images/Ex9.jpg,left,0,0,0,1,0,1,1,1,2,14,46,0,741.5422237999737,,,,,,,,,,,,,,,,,,,,,,,741.5265563998837,0.5,741.5422237999737,742.048255099915,742.0260958999861,742.0261154999025,742.048255099915,742.048255099915,742.048255099915,0.012006400153040886,743.4788553998806,left,1,1.42615140019916,None,743.47932579997,743.4920950999949,743.4945419399301,743.4945419399301,744.4759585999418,,,744.4919850998558,,,,,,,,sophTest,001,25,F,German,2024-02-20_18h19.28.442,CatRev1_within,2023.2.3,59.98152574491557,2024-02-20 18h19.53.030400 -0500,
 2:4, 48:64,6,partial,2,images/Ex15.jpg,right,0,0,0,1,0,1,1,1,2,15,47,14,744.4919850998558,,,,,,,,,,,,,,,,,,,,,,,744.4763086999301,0.8,744.4919850998558,745.3028489998542,745.2758220999967,745.2758416000288,745.3028489998542,745.3028489998542,745.3028489998542,0.01727529987692833,747.3288771999069,left,0,2.032177200075239,None,747.3293198000174,747.3418906000443,747.3444003398763,747.3444003398763,748.3256047000177,,,748.341720599914,,,,,,,,sophTest,001,25,F,German,2024-02-20_18h19.28.442,CatRev1_within,2023.2.3,59.98152574491557,2024-02-20 18h19.53.030400 -0500,
 2:4, 48:64,6,partial,2,images/Ex15.jpg,right,0,0,0,1,0,1,1,1,3,0,48,14,748.341720599914,,,,,,,,,,,,,,,,,,,,,,,748.3259608000517,0.8,748.341720599914,749.1515583998989,749.1255423000548,749.1255608999636,749.1515583998989,749.1515583998989,749.1515583998989,0.0166830001398921,749.7789932999294,right,1,0.6354704999830574,None,749.7794445999898,749.791894499911,749.7942194399657,749.7942194399657,750.7754750000313,750.0525084000546,750.0525084000546,750.7915912999306,,,,,,,,sophTest,001,25,F,German,2024-02-20_18h19.28.442,CatRev1_within,2023.2.3,59.98152574491557,2024-02-20 18h19.53.030400 -0500,
 2:4, 48:64,6,partial,2,images/Ex15.jpg,right,0,0,0,1,0,1,1,1,3,1,49,6,750.7915912999306,,,,,,,,,,,,,,,,,,,,,,,750.7758430000395,1.0,750.7915912999306,751.8015492998529,751.7753252000548,751.7753445999697,751.8015492998529,751.8015492998529,751.8015492998529,0.016903999960049987,752.5785045998637,right,1,0.7826900000218302,None,752.5789971000049,752.5916389999911,752.5941267398885,752.5941267398885,753.5755127999,,,753.5915538999252,,,,,,,,sophTest,001,25,F,German,2024-02-20_18h19.28.442,CatRev1_within,2023.2.3,59.98152574491557,2024-02-20 18h19.53.030400 -0500,
 2:4, 48:64,6,partial,2,images/Ex11.jpg,right,0,0,0,1,0,1,1,1,3,2,50,2,753.5915538999252,,,,,,,,,,,,,,,,,,,,,,,753.5758757998701,0.9,753.5915538999252,754.5014170999639,754.4755567999091,754.4755742000416,754.5014170999639,754.5014170999639,754.5014170999639,0.015894500073045492,755.7287184000015,right,1,1.2289916998706758,None,755.7291848999448,755.7414464999456,755.7439648398431,755.7439648398431,756.7252527999226,755.9644013999496,755.9644013999496,756.7413463999983,,,,,,,,sophTest,001,25,F,German,2024-02-20_18h19.28.442,CatRev1_within,2023.2.3,59.98152574491557,2024-02-20 18h19.53.030400 -0500,
 2:4, 48:64,6,partial,2,images/Ex10.jpg,left,0,0,0,1,0,1,1,1,3,3,51,9,756.7413463999983,,,,,,,,,,,,,,,,,,,,,,,756.7256298998836,1.0,756.7413463999983,757.7520562999416,757.725218599895,757.7252382000443,757.7520562999416,757.7520562999416,757.7520562999416,0.016996300080791116,759.077879599994,left,1,1.3190490999259055,None,759.0783164999448,759.0913054000121,759.0936626399634,759.0936626399634,760.07503800001,,,760.0911395000294,,,,,,,,sophTest,001,25,F,German,2024-02-20_18h19.28.442,CatRev1_within,2023.2.3,59.98152574491557,2024-02-20 18h19.53.030400 -0500,
 2:4, 48:64,6,partial,2,images/Ex12.jpg,right,0,0,0,1,0,1,1,1,3,4,52,11,760.0911395000294,,,,,,,,,,,,,,,,,,,,,,,760.0753828999586,1.0,760.0911395000294,761.1047445998993,761.0749496000353,761.0749683999456,761.1047445998993,761.1047445998993,761.1047445998993,0.019910200033336878,762.4949314000551,right,1,1.3965832001995295,None,762.495367599884,762.5081442999654,762.5104925398482,762.5104925398482,763.4915720999707,,,763.5076383000705,,,,,,,,sophTest,001,25,F,German,2024-02-20_18h19.28.442,CatRev1_within,2023.2.3,59.98152574491557,2024-02-20 18h19.53.030400 -0500,
 2:4, 48:64,6,partial,2,images/Ex13.jpg,left,0,0,0,1,0,1,1,1,3,5,53,4,763.5076383000705,,,,,,,,,,,,,,,,,,,,,,,763.4919230998494,1.3,763.5076383000705,764.8146827998571,764.7913527998608,764.7913701999933,764.8146827998571,764.8146827998571,764.8146827998571,0.013245899928733706,766.2777253999375,left,1,1.4558653000276536,None,766.2781390999444,766.291228499962,766.293501239852,766.293501239852,767.2747181998566,,,767.2907318000216,,,,,,,,sophTest,001,25,F,German,2024-02-20_18h19.28.442,CatRev1_within,2023.2.3,59.98152574491557,2024-02-20 18h19.53.030400 -0500,
 2:4, 48:64,6,partial,2,images/Ex16.jpg,right,0,0,0,1,0,1,1,1,3,6,54,15,767.2907318000216,,,,,,,,,,,,,,,,,,,,,,,767.2750756999012,0.7,767.2907318000216,768.0011046999134,767.9745298998896,767.9745469999034,768.0011046999134,768.0011046999134,768.0011046999134,0.016946200048550963,768.6275261000264,right,1,0.6231830001343042,None,768.6279831998982,768.6408140000422,768.6432005398674,768.6432005398674,769.6246394000482,768.8862794998568,768.8862794998568,769.6407663999125,,,,,,,,sophTest,001,25,F,German,2024-02-20_18h19.28.442,CatRev1_within,2023.2.3,59.98152574491557,2024-02-20 18h19.53.030400 -0500,
 2:4, 48:64,6,partial,2,images/Ex12.jpg,right,0,0,0,1,0,1,1,1,3,7,55,3,769.6407663999125,,,,,,,,,,,,,,,,,,,,,,,769.6250050999224,0.6,769.6407663999125,770.2535244999453,770.224635399878,770.2246546000242,770.2535244999453,770.2535244999453,770.2535244999453,0.019291199976578355,771.1940270999912,right,1,0.9478639999870211,None,771.1944780999329,771.2082127998583,771.2096352399094,771.2096352399094,772.191053800052,,,772.2071690000594,,,,,,,,sophTest,001,25,F,German,2024-02-20_18h19.28.442,CatRev1_within,2023.2.3,59.98152574491557,2024-02-20 18h19.53.030400 -0500,
 2:4, 48:64,6,partial,2,images/Ex9.jpg,left,0,0,0,1,0,1,1,1,3,8,56,8,772.2071690000594,,,,,,,,,,,,,,,,,,,,,,,772.1914246999659,1.2,772.2071690000594,773.4133317999076,773.3911007998977,773.3911198000424,773.4133317999076,773.4133317999076,773.4133317999076,0.012198199983686209,775.4105276998598,left,1,1.9969932998064905,None,775.4109795999248,775.4237152000424,775.4261867400492,775.4261867400492,776.4076199000701,,,776.423566600075,,,,,,,,sophTest,001,25,F,German,2024-02-20_18h19.28.442,CatRev1_within,2023.2.3,59.98152574491557,2024-02-20 18h19.53.030400 -0500,
 2:4, 48:64,6,partial,2,images/Ex13.jpg,left,0,0,0,1,0,1,1,1,3,9,57,12,776.423566600075,,,,,,,,,,,,,,,,,,,,,,,776.4079851999413,1.2,776.423566600075,777.6295636999421,777.6075219998602,777.6075410998892,777.6295636999421,777.6295636999421,777.6295636999421,0.01247230009175837,778.4271859000437,left,1,0.8052656999789178,None,778.4276471999474,778.4405030000489,778.4428790399106,778.4428790399106,779.4240683000535,,,779.4401741998736,,,,,,,,sophTest,001,25,F,German,2024-02-20_18h19.28.442,CatRev1_within,2023.2.3,59.98152574491557,2024-02-20 18h19.53.030400 -0500,
 2:4, 48:64,6,partial,2,images/Ex9.jpg,left,0,0,0,1,0,1,1,1,3,10,58,0,779.4401741998736,,,,,,,,,,,,,,,,,,,,,,,779.4244230999611,0.9,779.4401741998736,780.3450070999097,780.323914400069,780.3239337999839,780.3450070999097,780.3450070999097,780.3450070999097,0.011806799797341228,782.3936906000599,left,1,2.04908369993791,None,782.3941446000244,782.4071165998466,782.4093773398781,782.4093773398781,783.3905358000193,782.6253074998967,782.6253074998967,783.4065399998799,,,,,,,,sophTest,001,25,F,German,2024-02-20_18h19.28.442,CatRev1_within,2023.2.3,59.98152574491557,2024-02-20 18h19.53.030400 -0500,
 2:4, 48:64,6,partial,2,images/Ex10.jpg,left,0,0,0,1,0,1,1,1,3,11,59,1,783.4065399998799,,,,,,,,,,,,,,,,,,,,,,,783.3908965999726,1.4,783.4065399998799,784.8161347999703,784.790211699903,784.7902317000553,784.8161347999703,784.8161347999703,784.8161347999703,0.01618800009600818,785.843436999945,left,1,1.019620600156486,None,785.8439368999097,785.8566000000574,785.8591484400677,785.8591484400677,786.8404655999038,,,786.8563681000378,,,,,,,,sophTest,001,25,F,German,2024-02-20_18h19.28.442,CatRev1_within,2023.2.3,59.98152574491557,2024-02-20 18h19.53.030400 -0500,
 2:4, 48:64,6,partial,2,images/Ex14.jpg,left,0,0,0,1,0,1,1,1,3,12,60,5,786.8563681000378,,,,,,,,,,,,,,,,,,,,,,,786.8408417999744,1.4,786.8563681000378,788.26423719991,788.2402385999449,788.2402576999739,788.26423719991,788.26423719991,788.26423719991,0.014476099982857704,789.3597345000599,left,1,1.1001756999175996,None,789.3601865000091,789.3731477998663,789.3754293400561,789.3754293400561,790.3571490000468,,,790.3732793000527,,,,,,,,sophTest,001,25,F,German,2024-02-20_18h19.28.442,CatRev1_within,2023.2.3,59.98152574491557,2024-02-20 18h19.53.030400 -0500,
 2:4, 48:64,6,partial,2,images/Ex14.jpg,left,0,0,0,1,0,1,1,1,3,13,61,13,790.3732793000527,,,,,,,,,,,,,,,,,,,,,,,790.3574812998995,1.5,790.3732793000527,791.8803610000759,791.8566781999543,791.8566975998692,791.8803610000759,791.8803610000759,791.8803610000759,0.014261000091210008,792.5262172999792,left,1,0.6443513999693096,None,792.5266630998813,792.5395376000088,792.5418389398837,792.5418389398837,793.5233716999646,792.770260399906,792.770260399906,793.5393443000503,,,,,,,,sophTest,001,25,F,German,2024-02-20_18h19.28.442,CatRev1_within,2023.2.3,59.98152574491557,2024-02-20 18h19.53.030400 -0500,
 2:4, 48:64,6,partial,2,images/Ex16.jpg,right,0,0,0,1,0,1,1,1,3,14,62,7,793.5393443000503,,,,,,,,,,,,,,,,,,,,,,,793.5237318999134,1.5,793.5393443000503,795.0507910999004,795.0232579000294,795.0232774000615,795.0507910999004,795.0507910999004,795.0507910999004,0.01783979986794293,795.7593435999006,right,1,0.7040579998865724,None,795.7598242000677,795.77274509985,795.7750821398804,795.7750821398804,796.7567344999406,,,796.7725320998579,,,,,,,,sophTest,001,25,F,German,2024-02-20_18h19.28.442,CatRev1_within,2023.2.3,59.98152574491557,2024-02-20 18h19.53.030400 -0500,
 2:4, 48:64,6,partial,2,images/Ex11.jpg,right,0,0,0,1,0,1,1,1,3,15,63,10,796.7725320998579,,,,,,,,,,,,,,,,,,,,,,,796.7570996999275,1.0,796.7725320998579,797.7819769000635,797.7565534000751,797.7565706998575,797.7819769000635,797.7819769000635,797.7819769000635,0.015760400099679828,798.7595366998576,left,0,0.9736118000000715,None,798.7600006998982,798.7728802999482,798.7752337398706,798.7752337398706,799.7563372000586,,,799.7723894999363,,,,,,,,sophTest,001,25,F,German,2024-02-20_18h19.28.442,CatRev1_within,2023.2.3,59.98152574491557,2024-02-20 18h19.53.030400 -0500,
 2:4, 48:64,6,partial,2,images/Ex9.jpg,left,0,0,0,1,0,1,1,1,4,0,64,8,799.7723894999363,,,,,,,,,,,,,,,,,,,,,,,799.7566990999039,0.6,799.7723894999363,800.3785000999924,800.356234600069,800.3562541999854,800.3785000999924,800.3785000999924,800.3785000999924,0.012605699943378568,802.3927064000163,left,1,2.015286900103092,None,802.3931791998912,802.4058972999919,802.4082152399933,802.4082152399933,803.3894368000329,802.6313602000009,802.6313602000009,803.4054844998755,,,,,,,,sophTest,001,25,F,German,2024-02-20_18h19.28.442,CatRev1_within,2023.2.3,59.98152574491557,2024-02-20 18h19.53.030400 -0500,
 2:4, 48:64,6,partial,2,images/Ex15.jpg,right,0,0,0,1,0,1,1,1,4,1,65,6,803.4054844998755,,,,,,,,,,,,,,,,,,,,,,,803.3897887000348,0.6,803.4054844998755,804.017268900061,803.9893606000114,803.989379900042,804.017268900061,804.017268900061,804.017268900061,0.018467499874532223,804.9425949000288,right,1,0.9298510001972318,None,804.943079299992,804.9555289000273,804.9582185399486,804.9582185399486,805.9394878000021,,,805.955584499985,,,,,,,,sophTest,001,25,F,German,2024-02-20_18h19.28.442,CatRev1_within,2023.2.3,59.98152574491557,2024-02-20 18h19.53.030400 -0500,
 2:4, 48:64,6,partial,2,images/Ex11.jpg,right,0,0,0,1,0,1,1,1,4,2,66,10,805.955584499985,,,,,,,,,,,,,,,,,,,,,,,805.9398370999843,0.8,805.955584499985,806.7686858000234,806.7396764999721,806.7396949999966,806.7686858000234,806.7686858000234,806.7686858000234,0.019236999796703458,808.2086568998639,right,1,1.4423506997991353,None,808.209123800043,808.2220493999775,808.2243934400612,808.2243934400612,809.2058043000288,808.4686914000195,808.4686914000195,809.2218690000009,,,,,,,,sophTest,001,25,F,German,2024-02-20_18h19.28.442,CatRev1_within,2023.2.3,59.98152574491557,2024-02-20 18h19.53.030400 -0500,
 2:4, 48:64,6,partial,2,images/Ex14.jpg,left,0,0,0,1,0,1,1,1,4,3,67,13,809.2218690000009,,,,,,,,,,,,,,,,,,,,,,,809.2061652999837,1.4,809.2218690000009,810.6324616000056,810.6059210998937,810.6059389000293,810.6324616000056,810.6324616000056,810.6324616000056,0.01664300006814301,811.3251990000717,left,1,0.6907655000686646,None,811.32567010005,811.3385246999096,811.3408703400055,811.3408703400055,812.3224859999027,,,812.3384255999699,,,,,,,,sophTest,001,25,F,German,2024-02-20_18h19.28.442,CatRev1_within,2023.2.3,59.98152574491557,2024-02-20 18h19.53.030400 -0500,
 2:4, 48:64,6,partial,2,images/Ex15.jpg,right,0,0,0,1,0,1,1,1,4,4,68,14,812.3384255999699,,,,,,,,,,,,,,,,,,,,,,,812.3228358998895,0.9,812.3384255999699,813.2504270998761,813.2222611999605,813.2222784999758,813.2504270998761,813.2504270998761,813.2504270998761,0.018438500119373202,814.8086095999461,right,1,1.5645496000070125,None,814.8090701000765,814.8217006998602,814.8242122399388,814.8242122399388,815.805542399874,815.0400518998504,815.0400518998504,815.8215528000146,,,,,,,,sophTest,001,25,F,German,2024-02-20_18h19.28.442,CatRev1_within,2023.2.3,59.98152574491557,2024-02-20 18h19.53.030400 -0500,
 2:4, 48:64,6,partial,2,images/Ex10.jpg,left,0,0,0,1,0,1,1,1,4,5,69,9,815.8215528000146,,,,,,,,,,,,,,,,,,,,,,,815.805902000051,0.9,815.8215528000146,816.7310355000664,816.7053759000264,816.7053948000539,816.7310355000664,816.7310355000664,816.7310355000664,0.016012900043278933,817.8419552000705,left,1,1.119064399972558,None,817.8424297999591,817.8549856999889,817.8574660400627,817.8574660400627,818.8387887000572,,,818.8547155999113,,,,,,,,sophTest,001,25,F,German,2024-02-20_18h19.28.442,CatRev1_within,2023.2.3,59.98152574491557,2024-02-20 18h19.53.030400 -0500,
