infCons.started,infCons.stopped,resp_consent.keys,resp_consent.rt,resp_consent.duration,participant,session,Age?,Gender?,Nationality?,date,expName,psychopyVersion,OS,frameRate,instructions.started,instructions.stopped,resp_instructions.keys,resp_instructions.rt,resp_instructions.duration,nextTask.started,nextTask.stopped,ready_task.keys,ready_task.rt,ready_task.duration,fixation.started,ITI,fixation.stopped,stim.started,stim.stopped,response.keys,response.corr,response.rt,response.duration,feedback.started,feedback.stopped,trials.thisRepN,trials.thisTrialN,trials.thisN,trials.thisIndex,trials.ran,task,phase,Exemplars,r_correct,end.started,end.stopped,resp_end.keys,resp_end.rt,resp_end.duration
0.0002,71.454,space,71.4313,,262721,001,30,male,Dutch,2024-02-21_19h59.55.055,CategoryRev1_within,2023.2.3,MacIntel,60.24096386,,,,,,,,,,,,,,,,,,,,,,,,,,,,,,,,,,,
,,,,,262721,001,30,male,Dutch,2024-02-21_19h59.55.055,CategoryRev1_within,2023.2.3,MacIntel,60.24096386,71.4541,113.3396,space,41.8653,,,,,,,,,,,,,,,,,,,,,,,,,,,,,,,
,,,,,262721,001,30,male,Dutch,2024-02-21_19h59.55.055,CategoryRev1_within,2023.2.3,MacIntel,60.24096386,,,,,,113.3511,115.8089,space,2.4452,,115.8125,1,116.8098,116.8098,119.3124,left,1,2.4888,,119.3125,120.313,0,0,0,1,1,partial,1,images/Ex10.jpg,left,,,,,
,,,,,262721,001,30,male,Dutch,2024-02-21_19h59.55.055,CategoryRev1_within,2023.2.3,MacIntel,60.24096386,,,,,,,,,,,120.3133,0.9,121.2136,121.2136,124.4162,right,1,3.1989,,124.4163,125.4174,0,1,1,4,1,partial,1,images/Ex13.jpg,right,,,,,
,,,,,262721,001,30,male,Dutch,2024-02-21_19h59.55.055,CategoryRev1_within,2023.2.3,MacIntel,60.24096386,,,,,,,,,,,125.4255,1.1,126.5182,126.5182,130.0538,left,0,3.5347,,130.0539,131.0556,0,2,2,14,1,partial,1,images/Ex15.jpg,right,,,,,
,,,,,262721,001,30,male,Dutch,2024-02-21_19h59.55.055,CategoryRev1_within,2023.2.3,MacIntel,60.24096386,,,,,,,,,,,131.0641,0.6,131.6558,131.6558,132.6728,right,0,1.0073,,132.6728,133.6743,0,3,3,8,1,partial,1,images/Ex9.jpg,left,,,,,
,,,,,262721,001,30,male,Dutch,2024-02-21_19h59.55.055,CategoryRev1_within,2023.2.3,MacIntel,60.24096386,,,,,,,,,,,133.6746,1.2,134.8747,134.8747,136.6268,right,1,1.749,,136.6269,137.6269,0,4,4,15,1,partial,1,images/Ex16.jpg,right,,,,,
,,,,,262721,001,30,male,Dutch,2024-02-21_19h59.55.055,CategoryRev1_within,2023.2.3,MacIntel,60.24096386,,,,,,,,,,,137.6349,0.6,138.2281,138.2281,139.7968,left,1,1.5614,,139.7968,140.7971,0,5,5,0,1,partial,1,images/Ex9.jpg,left,,,,,
,,,,,262721,001,30,male,Dutch,2024-02-21_19h59.55.055,CategoryRev1_within,2023.2.3,MacIntel,60.24096386,,,,,,,,,,,140.7974,1,141.7982,141.7982,143.8994,left,1,2.089,,143.8995,144.901,0,6,6,2,1,partial,1,images/Ex11.jpg,left,,,,,
,,,,,262721,001,30,male,Dutch,2024-02-21_19h59.55.055,CategoryRev1_within,2023.2.3,MacIntel,60.24096386,,,,,,,,,,,144.9013,0.7,145.6015,145.6016,146.8028,right,0,1.194,,146.8028,147.8034,0,7,7,9,1,partial,1,images/Ex10.jpg,left,,,,,
,,,,,262721,001,30,male,Dutch,2024-02-21_19h59.55.055,CategoryRev1_within,2023.2.3,MacIntel,60.24096386,,,,,,,,,,,147.8037,0.7,148.5036,148.5036,149.8717,left,1,1.356,,149.8718,150.8728,0,8,8,3,1,partial,1,images/Ex12.jpg,left,,,,,
,,,,,262721,001,30,male,Dutch,2024-02-21_19h59.55.055,CategoryRev1_within,2023.2.3,MacIntel,60.24096386,,,,,,,,,,,150.8731,1.1,151.9733,151.9733,153.4417,left,0,1.4556,,153.4417,154.4422,0,9,9,12,1,partial,1,images/Ex13.jpg,right,,,,,
,,,,,262721,001,30,male,Dutch,2024-02-21_19h59.55.055,CategoryRev1_within,2023.2.3,MacIntel,60.24096386,,,,,,,,,,,154.4425,1,155.4435,155.4435,157.0116,left,0,1.5559,,157.0117,158.0121,0,10,10,7,1,partial,1,images/Ex16.jpg,right,,,,,
,,,,,262721,001,30,male,Dutch,2024-02-21_19h59.55.055,CategoryRev1_within,2023.2.3,MacIntel,60.24096386,,,,,,,,,,,158.0124,1.2,159.2122,159.2123,160.7142,left,0,1.491,,160.7144,161.7154,0,11,11,5,1,partial,1,images/Ex14.jpg,right,,,,,
,,,,,262721,001,30,male,Dutch,2024-02-21_19h59.55.055,CategoryRev1_within,2023.2.3,MacIntel,60.24096386,,,,,,,,,,,161.7235,0.8,162.5162,162.5163,164.1834,left,1,1.6639,,164.1834,165.1846,0,12,12,10,1,partial,1,images/Ex11.jpg,left,,,,,
,,,,,262721,001,30,male,Dutch,2024-02-21_19h59.55.055,CategoryRev1_within,2023.2.3,MacIntel,60.24096386,,,,,,,,,,,165.1848,1.1,166.2862,166.2862,168.2047,right,1,1.9144,,168.2047,169.2047,0,13,13,13,1,partial,1,images/Ex14.jpg,right,,,,,
,,,,,262721,001,30,male,Dutch,2024-02-21_19h59.55.055,CategoryRev1_within,2023.2.3,MacIntel,60.24096386,,,,,,,,,,,169.2051,0.8,170.0058,170.0059,172.2076,left,0,2.1998,,172.2076,173.208,0,14,14,6,1,partial,1,images/Ex15.jpg,right,,,,,
,,,,,262721,001,30,male,Dutch,2024-02-21_19h59.55.055,CategoryRev1_within,2023.2.3,MacIntel,60.24096386,,,,,,,,,,,173.2083,1.1,174.309,174.3091,176.2113,left,1,1.8899,,176.2114,177.2124,0,15,15,11,1,partial,1,images/Ex12.jpg,left,,,,,
,,,,,262721,001,30,male,Dutch,2024-02-21_19h59.55.055,CategoryRev1_within,2023.2.3,MacIntel,60.24096386,,,,,,,,,,,177.2127,0.9,178.1132,178.1132,180.0641,right,1,1.9392,,180.0643,181.0656,1,0,16,5,1,partial,1,images/Ex14.jpg,right,,,,,
,,,,,262721,001,30,male,Dutch,2024-02-21_19h59.55.055,CategoryRev1_within,2023.2.3,MacIntel,60.24096386,,,,,,,,,,,181.0658,0.6,181.6655,181.6655,183.2175,right,1,1.5511,,183.2175,184.2177,1,1,17,4,1,partial,1,images/Ex13.jpg,right,,,,,
,,,,,262721,001,30,male,Dutch,2024-02-21_19h59.55.055,CategoryRev1_within,2023.2.3,MacIntel,60.24096386,,,,,,,,,,,184.2181,1.4,185.6191,185.6192,187.2213,left,1,1.5897,,187.2213,188.2212,1,2,18,8,1,partial,1,images/Ex9.jpg,left,,,,,
,,,,,262721,001,30,male,Dutch,2024-02-21_19h59.55.055,CategoryRev1_within,2023.2.3,MacIntel,60.24096386,,,,,,,,,,,188.2215,1.5,189.7227,189.7228,191.208,left,1,1.475,,191.208,192.2088,1,3,19,0,1,partial,1,images/Ex9.jpg,left,,,,,
,,,,,262721,001,30,male,Dutch,2024-02-21_19h59.55.055,CategoryRev1_within,2023.2.3,MacIntel,60.24096386,,,,,,,,,,,192.209,0.8,193.0089,193.0089,194.8439,right,0,1.8333,,194.8439,195.8444,1,4,20,11,1,partial,1,images/Ex12.jpg,left,,,,,
,,,,,262721,001,30,male,Dutch,2024-02-21_19h59.55.055,CategoryRev1_within,2023.2.3,MacIntel,60.24096386,,,,,,,,,,,195.8529,0.5,196.3455,196.3455,197.4126,left,0,1.0622,,197.4127,198.414,1,5,21,15,1,partial,1,images/Ex16.jpg,right,,,,,
,,,,,262721,001,30,male,Dutch,2024-02-21_19h59.55.055,CategoryRev1_within,2023.2.3,MacIntel,60.24096386,,,,,,,,,,,198.4144,1,199.4146,199.4146,201.1494,left,0,1.729,,201.1494,202.1508,1,6,22,6,1,partial,1,images/Ex15.jpg,right,,,,,
,,,,,262721,001,30,male,Dutch,2024-02-21_19h59.55.055,CategoryRev1_within,2023.2.3,MacIntel,60.24096386,,,,,,,,,,,202.1511,0.5,202.6508,202.6509,204.5365,left,1,1.8823,,204.5366,205.537,1,7,23,3,1,partial,1,images/Ex12.jpg,left,,,,,
,,,,,262721,001,30,male,Dutch,2024-02-21_19h59.55.055,CategoryRev1_within,2023.2.3,MacIntel,60.24096386,,,,,,,,,,,205.5452,1.4,206.9384,206.9384,208.1053,right,1,1.1648,,208.1053,209.1062,1,8,24,13,1,partial,1,images/Ex14.jpg,right,,,,,
,,,,,262721,001,30,male,Dutch,2024-02-21_19h59.55.055,CategoryRev1_within,2023.2.3,MacIntel,60.24096386,,,,,,,,,,,209.1065,1.3,210.4074,210.4074,211.4416,right,1,1.0258,,211.4416,212.4431,1,9,25,12,1,partial,1,images/Ex13.jpg,right,,,,,
,,,,,262721,001,30,male,Dutch,2024-02-21_19h59.55.055,CategoryRev1_within,2023.2.3,MacIntel,60.24096386,,,,,,,,,,,212.4435,0.6,213.0437,213.0437,214.2948,right,0,1.24,,214.2949,215.2956,1,10,26,1,1,partial,1,images/Ex10.jpg,left,,,,,
,,,,,262721,001,30,male,Dutch,2024-02-21_19h59.55.055,CategoryRev1_within,2023.2.3,MacIntel,60.24096386,,,,,,,,,,,215.2959,1.4,216.6969,216.6969,218.6153,left,0,1.9074,,218.6153,219.6158,1,11,27,14,1,partial,1,images/Ex15.jpg,right,,,,,
,,,,,262721,001,30,male,Dutch,2024-02-21_19h59.55.055,CategoryRev1_within,2023.2.3,MacIntel,60.24096386,,,,,,,,,,,219.624,0.7,220.3161,220.3162,221.4179,left,1,1.0928,,221.418,222.418,1,12,28,2,1,partial,1,images/Ex11.jpg,left,,,,,
,,,,,262721,001,30,male,Dutch,2024-02-21_19h59.55.055,CategoryRev1_within,2023.2.3,MacIntel,60.24096386,,,,,,,,,,,222.4184,0.7,223.1181,223.1181,224.9203,left,1,1.7908,,224.9203,225.9217,1,13,29,9,1,partial,1,images/Ex10.jpg,left,,,,,
,,,,,262721,001,30,male,Dutch,2024-02-21_19h59.55.055,CategoryRev1_within,2023.2.3,MacIntel,60.24096386,,,,,,,,,,,225.93,1.1,227.0217,227.0217,229.7743,left,0,2.7433,,229.7743,230.7758,1,14,30,7,1,partial,1,images/Ex16.jpg,right,,,,,
,,,,,262721,001,30,male,Dutch,2024-02-21_19h59.55.055,CategoryRev1_within,2023.2.3,MacIntel,60.24096386,,,,,,,,,,,230.7839,1.4,232.1767,232.1767,233.5773,left,1,1.3981,,233.5774,234.5788,1,15,31,10,1,partial,1,images/Ex11.jpg,left,,,,,
,,,,,262721,001,30,male,Dutch,2024-02-21_19h59.55.055,CategoryRev1_within,2023.2.3,MacIntel,60.24096386,,,,,,,,,,,234.579,0.9,235.48,235.48,237.6486,right,1,2.1613,,237.6486,238.649,2,0,32,7,1,partial,1,images/Ex16.jpg,right,,,,,
,,,,,262721,001,30,male,Dutch,2024-02-21_19h59.55.055,CategoryRev1_within,2023.2.3,MacIntel,60.24096386,,,,,,,,,,,238.6493,0.9,239.5503,239.5503,241.7513,left,0,2.1896,,241.7513,242.7529,2,1,33,6,1,partial,1,images/Ex15.jpg,right,,,,,
,,,,,262721,001,30,male,Dutch,2024-02-21_19h59.55.055,CategoryRev1_within,2023.2.3,MacIntel,60.24096386,,,,,,,,,,,242.7532,0.7,243.4534,243.4534,245.3381,left,1,1.8822,,245.3381,246.3395,2,2,34,9,1,partial,1,images/Ex10.jpg,left,,,,,
,,,,,262721,001,30,male,Dutch,2024-02-21_19h59.55.055,CategoryRev1_within,2023.2.3,MacIntel,60.24096386,,,,,,,,,,,246.3398,1.3,247.6396,247.6396,248.5073,right,1,0.8623,,248.5074,249.5083,2,3,35,5,1,partial,1,images/Ex14.jpg,right,,,,,
,,,,,262721,001,30,male,Dutch,2024-02-21_19h59.55.055,CategoryRev1_within,2023.2.3,MacIntel,60.24096386,,,,,,,,,,,249.5087,0.7,250.209,250.2091,250.9765,right,0,0.7554,,250.9765,251.9776,2,4,36,8,1,partial,1,images/Ex9.jpg,left,,,,,
,,,,,262721,001,30,male,Dutch,2024-02-21_19h59.55.055,CategoryRev1_within,2023.2.3,MacIntel,60.24096386,,,,,,,,,,,251.9778,1.4,253.3779,253.378,254.4134,right,0,1.0227,,254.4134,255.4141,2,5,37,1,1,partial,1,images/Ex10.jpg,left,,,,,
,,,,,262721,001,30,male,Dutch,2024-02-21_19h59.55.055,CategoryRev1_within,2023.2.3,MacIntel,60.24096386,,,,,,,,,,,255.4144,1.3,256.7142,256.7142,258.1165,right,0,1.3902,,258.1166,259.1163,2,6,38,2,1,partial,1,images/Ex11.jpg,left,,,,,
,,,,,262721,001,30,male,Dutch,2024-02-21_19h59.55.055,CategoryRev1_within,2023.2.3,MacIntel,60.24096386,,,,,,,,,,,259.1166,1.4,260.5184,260.5184,262.6194,right,0,2.0985,,262.6194,263.6205,2,7,39,3,1,partial,1,images/Ex12.jpg,left,,,,,
,,,,,262721,001,30,male,Dutch,2024-02-21_19h59.55.055,CategoryRev1_within,2023.2.3,MacIntel,60.24096386,,,,,,,,,,,263.6285,1.1,264.7222,264.7222,266.1402,left,0,1.4057,,266.1402,267.1407,2,8,40,15,1,partial,1,images/Ex16.jpg,right,,,,,
,,,,,262721,001,30,male,Dutch,2024-02-21_19h59.55.055,CategoryRev1_within,2023.2.3,MacIntel,60.24096386,,,,,,,,,,,267.1411,1.4,268.542,268.542,271.2612,right,0,2.7155,,271.2613,272.2618,2,9,41,10,1,partial,1,images/Ex11.jpg,left,,,,,
,,,,,262721,001,30,male,Dutch,2024-02-21_19h59.55.055,CategoryRev1_within,2023.2.3,MacIntel,60.24096386,,,,,,,,,,,272.27,0.6,272.8625,272.8626,273.9469,right,1,1.08,,273.947,274.9473,2,10,42,4,1,partial,1,images/Ex13.jpg,right,,,,,
,,,,,262721,001,30,male,Dutch,2024-02-21_19h59.55.055,CategoryRev1_within,2023.2.3,MacIntel,60.24096386,,,,,,,,,,,274.9475,1.1,276.0485,276.0485,277.2658,right,1,1.2098,,277.2658,278.2673,2,11,43,12,1,partial,1,images/Ex13.jpg,right,,,,,
,,,,,262721,001,30,male,Dutch,2024-02-21_19h59.55.055,CategoryRev1_within,2023.2.3,MacIntel,60.24096386,,,,,,,,,,,278.2675,1.4,279.6675,279.6676,282.0698,right,0,2.3911,,282.0698,283.071,2,12,44,11,1,partial,1,images/Ex12.jpg,left,,,,,
,,,,,262721,001,30,male,Dutch,2024-02-21_19h59.55.055,CategoryRev1_within,2023.2.3,MacIntel,60.24096386,,,,,,,,,,,283.0714,1.5,284.5722,284.5723,285.3061,right,1,0.7272,,285.3061,286.3076,2,13,45,13,1,partial,1,images/Ex14.jpg,right,,,,,
,,,,,262721,001,30,male,Dutch,2024-02-21_19h59.55.055,CategoryRev1_within,2023.2.3,MacIntel,60.24096386,,,,,,,,,,,286.308,0.9,287.2078,287.2078,288.5096,right,1,1.301,,288.5096,289.5101,2,14,46,14,1,partial,1,images/Ex15.jpg,right,,,,,
,,,,,262721,001,30,male,Dutch,2024-02-21_19h59.55.055,CategoryRev1_within,2023.2.3,MacIntel,60.24096386,,,,,,,,,,,289.5181,0.6,290.1102,290.1102,291.1944,right,0,1.0835,,291.1945,292.1958,2,15,47,0,1,partial,1,images/Ex9.jpg,left,,,,,
,,,,,262721,001,30,male,Dutch,2024-02-21_19h59.55.055,CategoryRev1_within,2023.2.3,MacIntel,60.24096386,,,,,,,,,,,292.1961,1,293.1963,293.1963,293.8805,right,1,0.6827,,293.8805,294.8817,3,0,48,5,1,partial,1,images/Ex14.jpg,right,,,,,
,,,,,262721,001,30,male,Dutch,2024-02-21_19h59.55.055,CategoryRev1_within,2023.2.3,MacIntel,60.24096386,,,,,,,,,,,294.882,0.7,295.5825,295.5825,296.7502,right,0,1.1617,,296.7503,297.7506,3,1,49,1,1,partial,1,images/Ex10.jpg,left,,,,,
,,,,,262721,001,30,male,Dutch,2024-02-21_19h59.55.055,CategoryRev1_within,2023.2.3,MacIntel,60.24096386,,,,,,,,,,,297.7509,1.2,298.9512,298.9512,301.5044,right,0,2.5484,,301.5045,302.505,3,2,50,10,1,partial,1,images/Ex11.jpg,left,,,,,
,,,,,262721,001,30,male,Dutch,2024-02-21_19h59.55.055,CategoryRev1_within,2023.2.3,MacIntel,60.24096386,,,,,,,,,,,302.5132,1.1,303.605,303.605,304.6571,left,1,1.0452,,304.6571,305.6571,3,3,51,3,1,partial,1,images/Ex12.jpg,left,,,,,
,,,,,262721,001,30,male,Dutch,2024-02-21_19h59.55.055,CategoryRev1_within,2023.2.3,MacIntel,60.24096386,,,,,,,,,,,305.6574,1.4,307.0592,307.0592,307.8756,left,1,0.8048,,307.8757,308.8772,3,4,52,11,1,partial,1,images/Ex12.jpg,left,,,,,
,,,,,262721,001,30,male,Dutch,2024-02-21_19h59.55.055,CategoryRev1_within,2023.2.3,MacIntel,60.24096386,,,,,,,,,,,308.8775,1.2,310.0785,310.0785,310.9293,right,1,0.8415,,310.9294,311.9295,3,5,53,4,1,partial,1,images/Ex13.jpg,right,,,,,
,,,,,262721,001,30,male,Dutch,2024-02-21_19h59.55.055,CategoryRev1_within,2023.2.3,MacIntel,60.24096386,,,,,,,,,,,311.9298,1.5,313.4313,313.4313,315.4658,right,1,2.0229,,315.4658,316.4673,3,6,54,7,1,partial,1,images/Ex16.jpg,right,,,,,
,,,,,262721,001,30,male,Dutch,2024-02-21_19h59.55.055,CategoryRev1_within,2023.2.3,MacIntel,60.24096386,,,,,,,,,,,316.4755,0.6,317.0678,317.0678,318.5021,left,1,1.4286,,318.5021,319.5034,3,7,55,8,1,partial,1,images/Ex9.jpg,left,,,,,
,,,,,262721,001,30,male,Dutch,2024-02-21_19h59.55.055,CategoryRev1_within,2023.2.3,MacIntel,60.24096386,,,,,,,,,,,319.5036,1.4,320.904,320.904,322.7896,right,1,1.8818,,322.7896,323.7902,3,8,56,12,1,partial,1,images/Ex13.jpg,right,,,,,
,,,,,262721,001,30,male,Dutch,2024-02-21_19h59.55.055,CategoryRev1_within,2023.2.3,MacIntel,60.24096386,,,,,,,,,,,323.7982,1.4,325.1918,325.1919,326.5587,left,1,1.3608,,326.5587,327.5602,3,9,57,9,1,partial,1,images/Ex10.jpg,left,,,,,
,,,,,262721,001,30,male,Dutch,2024-02-21_19h59.55.055,CategoryRev1_within,2023.2.3,MacIntel,60.24096386,,,,,,,,,,,327.5683,1,328.5611,328.5611,329.7622,left,0,1.2004,,329.7622,330.7625,3,10,58,14,1,partial,1,images/Ex15.jpg,right,,,,,
,,,,,262721,001,30,male,Dutch,2024-02-21_19h59.55.055,CategoryRev1_within,2023.2.3,MacIntel,60.24096386,,,,,,,,,,,330.7628,1,331.7639,331.7639,332.8975,left,0,1.1327,,332.8975,333.8988,3,11,59,15,1,partial,1,images/Ex16.jpg,right,,,,,
,,,,,262721,001,30,male,Dutch,2024-02-21_19h59.55.055,CategoryRev1_within,2023.2.3,MacIntel,60.24096386,,,,,,,,,,,333.8991,0.6,334.4989,334.4989,335.7007,right,1,1.1902,,335.7007,336.701,3,12,60,6,1,partial,1,images/Ex15.jpg,right,,,,,
,,,,,262721,001,30,male,Dutch,2024-02-21_19h59.55.055,CategoryRev1_within,2023.2.3,MacIntel,60.24096386,,,,,,,,,,,336.7014,0.5,337.2019,337.202,337.8189,right,1,0.6048,,337.8189,338.8191,3,13,61,13,1,partial,1,images/Ex14.jpg,right,,,,,
,,,,,262721,001,30,male,Dutch,2024-02-21_19h59.55.055,CategoryRev1_within,2023.2.3,MacIntel,60.24096386,,,,,,,,,,,338.8195,0.8,339.6204,339.6205,340.6052,left,1,0.9727,,340.6052,341.6053,3,14,62,0,1,partial,1,images/Ex9.jpg,left,,,,,
,,,,,262721,001,30,male,Dutch,2024-02-21_19h59.55.055,CategoryRev1_within,2023.2.3,MacIntel,60.24096386,,,,,,,,,,,341.6055,0.9,342.5059,342.5059,343.6902,right,0,1.1762,,343.6903,344.6915,3,15,63,2,1,partial,1,images/Ex11.jpg,left,,,,,
,,,,,262721,001,30,male,Dutch,2024-02-21_19h59.55.055,CategoryRev1_within,2023.2.3,MacIntel,60.24096386,,,,,,,,,,,344.6918,0.5,345.1915,345.1916,347.2274,right,0,2.0309,,347.2275,348.2278,4,0,64,3,1,partial,1,images/Ex12.jpg,left,,,,,
,,,,,262721,001,30,male,Dutch,2024-02-21_19h59.55.055,CategoryRev1_within,2023.2.3,MacIntel,60.24096386,,,,,,,,,,,348.2359,0.9,349.1291,349.1292,349.7799,right,1,0.644,,349.78,350.7799,4,1,65,13,1,partial,1,images/Ex14.jpg,right,,,,,
,,,,,262721,001,30,male,Dutch,2024-02-21_19h59.55.055,CategoryRev1_within,2023.2.3,MacIntel,60.24096386,,,,,,,,,,,350.7801,1.2,351.9816,351.9816,352.9821,left,1,0.9898,,352.9822,353.9833,4,2,66,1,1,partial,1,images/Ex10.jpg,left,,,,,
,,,,,262721,001,30,male,Dutch,2024-02-21_19h59.55.055,CategoryRev1_within,2023.2.3,MacIntel,60.24096386,,,,,,,,,,,353.9837,1.1,355.0842,355.0842,357.0863,left,0,1.995,,357.0863,358.0863,4,3,67,4,1,partial,1,images/Ex13.jpg,right,,,,,
,,,,,262721,001,30,male,Dutch,2024-02-21_19h59.55.055,CategoryRev1_within,2023.2.3,MacIntel,60.24096386,,,,,,,,,,,358.0943,0.6,358.6864,358.6864,360.3721,right,0,1.677,,360.3721,361.3722,4,4,68,2,1,partial,1,images/Ex11.jpg,left,,,,,
,,,,,262721,001,30,male,Dutch,2024-02-21_19h59.55.055,CategoryRev1_within,2023.2.3,MacIntel,60.24096386,,,,,,,,,,,361.3724,0.9,362.274,362.274,364.208,left,0,1.93,,364.208,365.2099,4,5,69,7,1,partial,1,images/Ex16.jpg,right,,,,,
,,,,,262721,001,30,male,Dutch,2024-02-21_19h59.55.055,CategoryRev1_within,2023.2.3,MacIntel,60.24096386,,,,,,,,,,,365.2102,1.1,366.3108,366.3108,367.5786,left,1,1.2551,,367.5787,368.5789,4,6,70,11,1,partial,1,images/Ex12.jpg,left,,,,,
,,,,,262721,001,30,male,Dutch,2024-02-21_19h59.55.055,CategoryRev1_within,2023.2.3,MacIntel,60.24096386,,,,,,,,,,,368.5792,1,369.5804,369.5805,370.7311,right,1,1.1489,,370.7311,371.7312,4,7,71,14,1,partial,1,images/Ex15.jpg,right,,,,,
,,,,,262721,001,30,male,Dutch,2024-02-21_19h59.55.055,CategoryRev1_within,2023.2.3,MacIntel,60.24096386,,,,,,,,,,,371.7315,0.9,372.6329,372.6329,373.5331,left,1,0.8895,,373.5331,374.5346,4,8,72,9,1,partial,1,images/Ex10.jpg,left,,,,,
,,,,,262721,001,30,male,Dutch,2024-02-21_19h59.55.055,CategoryRev1_within,2023.2.3,MacIntel,60.24096386,,,,,,,,,,,374.535,1.1,375.6354,375.6354,377.0532,right,1,1.4101,,377.0533,378.0535,4,9,73,6,1,partial,1,images/Ex15.jpg,right,,,,,
,,,,,262721,001,30,male,Dutch,2024-02-21_19h59.55.055,CategoryRev1_within,2023.2.3,MacIntel,60.24096386,,,,,,,,,,,378.0539,0.9,378.9551,378.9552,379.5392,right,1,0.5794,,379.5392,380.5397,4,10,74,5,1,partial,1,images/Ex14.jpg,right,,,,,
,,,,,262721,001,30,male,Dutch,2024-02-21_19h59.55.055,CategoryRev1_within,2023.2.3,MacIntel,60.24096386,,,,,,,,,,,380.5399,0.8,381.3397,381.3397,382.2415,right,1,0.8958,,382.2415,383.2418,4,11,75,15,1,partial,1,images/Ex16.jpg,right,,,,,
,,,,,262721,001,30,male,Dutch,2024-02-21_19h59.55.055,CategoryRev1_within,2023.2.3,MacIntel,60.24096386,,,,,,,,,,,383.2421,0.6,383.8418,383.8418,384.9101,right,0,1.063,,384.9101,385.9112,4,12,76,10,1,partial,1,images/Ex11.jpg,left,,,,,
,,,,,262721,001,30,male,Dutch,2024-02-21_19h59.55.055,CategoryRev1_within,2023.2.3,MacIntel,60.24096386,,,,,,,,,,,385.9115,1.4,387.312,387.3121,388.2463,left,1,0.9232,,388.2463,389.2473,4,13,77,8,1,partial,1,images/Ex9.jpg,left,,,,,
,,,,,262721,001,30,male,Dutch,2024-02-21_19h59.55.055,CategoryRev1_within,2023.2.3,MacIntel,60.24096386,,,,,,,,,,,389.2476,1.4,390.6483,390.6483,391.4322,left,0,0.7725,,391.4322,392.4335,4,14,78,12,1,partial,1,images/Ex13.jpg,right,,,,,
,,,,,262721,001,30,male,Dutch,2024-02-21_19h59.55.055,CategoryRev1_within,2023.2.3,MacIntel,60.24096386,,,,,,,,,,,392.4338,1,393.4344,393.4344,394.2518,left,1,0.8049,,394.2518,395.2525,4,15,79,0,1,partial,1,images/Ex9.jpg,left,,,,,
,,,,,262721,001,30,male,Dutch,2024-02-21_19h59.55.055,CategoryRev1_within,2023.2.3,MacIntel,60.24096386,,,,,,,,,,,395.2528,0.7,395.9526,395.9526,396.9869,right,1,1.0289,,396.9869,397.9884,5,0,80,7,1,partial,1,images/Ex16.jpg,right,,,,,
,,,,,262721,001,30,male,Dutch,2024-02-21_19h59.55.055,CategoryRev1_within,2023.2.3,MacIntel,60.24096386,,,,,,,,,,,397.9886,0.5,398.488,398.488,399.0889,right,1,0.5941,,399.0889,400.0894,5,1,81,5,1,partial,1,images/Ex14.jpg,right,,,,,
,,,,,262721,001,30,male,Dutch,2024-02-21_19h59.55.055,CategoryRev1_within,2023.2.3,MacIntel,60.24096386,,,,,,,,,,,400.0898,0.9,400.9907,400.9907,401.9911,left,1,0.9887,,401.9911,402.9927,5,2,82,2,1,partial,1,images/Ex11.jpg,left,,,,,
,,,,,262721,001,30,male,Dutch,2024-02-21_19h59.55.055,CategoryRev1_within,2023.2.3,MacIntel,60.24096386,,,,,,,,,,,402.993,1.3,404.2931,404.2932,405.7454,right,1,1.4484,,405.7455,406.7453,5,3,83,14,1,partial,1,images/Ex15.jpg,right,,,,,
,,,,,262721,001,30,male,Dutch,2024-02-21_19h59.55.055,CategoryRev1_within,2023.2.3,MacIntel,60.24096386,,,,,,,,,,,406.7456,0.7,407.4468,407.4468,409.1976,right,1,1.7454,,409.1977,410.1992,5,4,84,12,1,partial,1,images/Ex13.jpg,right,,,,,
,,,,,262721,001,30,male,Dutch,2024-02-21_19h59.55.055,CategoryRev1_within,2023.2.3,MacIntel,60.24096386,,,,,,,,,,,410.2075,1.2,411.3996,411.3996,412.301,left,1,0.8972,,412.3011,413.3007,5,5,85,3,1,partial,1,images/Ex12.jpg,left,,,,,
,,,,,262721,001,30,male,Dutch,2024-02-21_19h59.55.055,CategoryRev1_within,2023.2.3,MacIntel,60.24096386,,,,,,,,,,,413.3011,1.1,414.4017,414.4018,415.4028,left,1,1.0002,,415.4029,416.4038,5,6,86,9,1,partial,1,images/Ex10.jpg,left,,,,,
,,,,,262721,001,30,male,Dutch,2024-02-21_19h59.55.055,CategoryRev1_within,2023.2.3,MacIntel,60.24096386,,,,,,,,,,,416.404,1.5,417.9057,417.9057,419.0901,left,1,1.1724,,419.0902,420.0902,5,7,87,8,1,partial,1,images/Ex9.jpg,left,,,,,
,,,,,262721,001,30,male,Dutch,2024-02-21_19h59.55.055,CategoryRev1_within,2023.2.3,MacIntel,60.24096386,,,,,,,,,,,420.0905,1.4,421.4922,421.4922,422.2595,right,1,0.7653,,422.2596,423.2603,5,8,88,15,1,partial,1,images/Ex16.jpg,right,,,,,
,,,,,262721,001,30,male,Dutch,2024-02-21_19h59.55.055,CategoryRev1_within,2023.2.3,MacIntel,60.24096386,,,,,,,,,,,423.2605,0.6,423.8602,423.8603,426.3466,left,1,2.4774,,426.3467,427.3465,5,9,89,10,1,partial,1,images/Ex11.jpg,left,,,,,
,,,,,262721,001,30,male,Dutch,2024-02-21_19h59.55.055,CategoryRev1_within,2023.2.3,MacIntel,60.24096386,,,,,,,,,,,427.3468,1.4,428.748,428.7481,429.3648,right,1,0.6054,,429.3648,430.3667,5,10,90,13,1,partial,1,images/Ex14.jpg,right,,,,,
,,,,,262721,001,30,male,Dutch,2024-02-21_19h59.55.055,CategoryRev1_within,2023.2.3,MacIntel,60.24096386,,,,,,,,,,,430.367,1.1,431.4667,431.4667,432.7011,left,1,1.2315,,432.7012,433.7029,5,11,91,0,1,partial,1,images/Ex9.jpg,left,,,,,
,,,,,262721,001,30,male,Dutch,2024-02-21_19h59.55.055,CategoryRev1_within,2023.2.3,MacIntel,60.24096386,,,,,,,,,,,433.7113,0.9,434.6029,434.603,435.7212,right,1,1.1116,,435.7213,436.7221,5,12,92,4,1,partial,1,images/Ex13.jpg,right,,,,,
,,,,,262721,001,30,male,Dutch,2024-02-21_19h59.55.055,CategoryRev1_within,2023.2.3,MacIntel,60.24096386,,,,,,,,,,,436.7225,1.3,438.0224,438.0224,439.2735,right,1,1.2462,,439.2735,440.2753,5,13,93,6,1,partial,1,images/Ex15.jpg,right,,,,,
,,,,,262721,001,30,male,Dutch,2024-02-21_19h59.55.055,CategoryRev1_within,2023.2.3,MacIntel,60.24096386,,,,,,,,,,,440.2755,1.2,441.4754,441.4754,442.1762,left,1,0.6889,,442.1762,443.1775,5,14,94,1,1,partial,1,images/Ex10.jpg,left,,,,,
,,,,,262721,001,30,male,Dutch,2024-02-21_19h59.55.055,CategoryRev1_within,2023.2.3,MacIntel,60.24096386,,,,,,,,,,,443.1777,1.4,444.5792,444.5792,445.8297,right,0,1.2452,,445.8297,446.831,5,15,95,11,1,partial,1,images/Ex12.jpg,left,,,,,
,,,,,262721,001,30,male,Dutch,2024-02-21_19h59.55.055,CategoryRev1_within,2023.2.3,MacIntel,60.24096386,,,,,,,,,,,446.8349,1.2,448.0318,448.0318,449.0992,right,1,1.0625,,449.0992,450.0999,0,0,0,12,1,partial,2,images/Ex13.jpg,right,,,,,
,,,,,262721,001,30,male,Dutch,2024-02-21_19h59.55.055,CategoryRev1_within,2023.2.3,MacIntel,60.24096386,,,,,,,,,,,450.1002,1.1,451.2005,451.2006,452.0182,left,0,0.806,,452.0182,453.0196,0,1,1,0,1,partial,2,images/Ex9.jpg,right,,,,,
,,,,,262721,001,30,male,Dutch,2024-02-21_19h59.55.055,CategoryRev1_within,2023.2.3,MacIntel,60.24096386,,,,,,,,,,,453.0199,1.4,454.4201,454.4202,455.2384,right,0,0.8097,,455.2384,456.2383,0,2,2,2,1,partial,2,images/Ex11.jpg,left,,,,,
,,,,,262721,001,30,male,Dutch,2024-02-21_19h59.55.055,CategoryRev1_within,2023.2.3,MacIntel,60.24096386,,,,,,,,,,,456.2386,1,457.2402,457.2402,458.6407,left,0,1.3952,,458.6407,459.6424,0,3,3,1,1,partial,2,images/Ex10.jpg,right,,,,,
,,,,,262721,001,30,male,Dutch,2024-02-21_19h59.55.055,CategoryRev1_within,2023.2.3,MacIntel,60.24096386,,,,,,,,,,,459.6505,1.4,461.0427,461.0427,461.6108,right,1,0.5625,,461.6109,462.6106,0,4,4,13,1,partial,2,images/Ex14.jpg,right,,,,,
,,,,,262721,001,30,male,Dutch,2024-02-21_19h59.55.055,CategoryRev1_within,2023.2.3,MacIntel,60.24096386,,,,,,,,,,,462.6109,1.1,463.7123,463.7123,464.2788,right,1,0.5631,,464.2788,465.2806,0,5,5,5,1,partial,2,images/Ex14.jpg,right,,,,,
,,,,,262721,001,30,male,Dutch,2024-02-21_19h59.55.055,CategoryRev1_within,2023.2.3,MacIntel,60.24096386,,,,,,,,,,,465.2808,0.9,466.1809,466.1809,466.815,right,0,0.6298,,466.8152,467.816,0,6,6,15,1,partial,2,images/Ex16.jpg,left,,,,,
,,,,,262721,001,30,male,Dutch,2024-02-21_19h59.55.055,CategoryRev1_within,2023.2.3,MacIntel,60.24096386,,,,,,,,,,,467.8164,0.6,468.4164,468.4165,470.1683,left,1,1.7396,,470.1683,471.1689,0,7,7,10,1,partial,2,images/Ex11.jpg,left,,,,,
,,,,,262721,001,30,male,Dutch,2024-02-21_19h59.55.055,CategoryRev1_within,2023.2.3,MacIntel,60.24096386,,,,,,,,,,,471.1693,1.3,472.4693,472.4693,473.0707,right,0,0.5964,,473.0707,474.0714,0,8,8,14,1,partial,2,images/Ex15.jpg,left,,,,,
,,,,,262721,001,30,male,Dutch,2024-02-21_19h59.55.055,CategoryRev1_within,2023.2.3,MacIntel,60.24096386,,,,,,,,,,,474.0716,0.9,474.9714,474.9714,476.0057,right,0,1.0226,,476.0057,477.0074,0,9,9,7,1,partial,2,images/Ex16.jpg,left,,,,,
,,,,,262721,001,30,male,Dutch,2024-02-21_19h59.55.055,CategoryRev1_within,2023.2.3,MacIntel,60.24096386,,,,,,,,,,,477.0077,0.8,477.8076,477.8076,479.71,left,0,1.8903,,479.7101,480.7097,0,10,10,4,1,partial,2,images/Ex13.jpg,right,,,,,
,,,,,262721,001,30,male,Dutch,2024-02-21_19h59.55.055,CategoryRev1_within,2023.2.3,MacIntel,60.24096386,,,,,,,,,,,480.7101,0.8,481.5113,481.5113,483.3621,right,0,1.8455,,483.3621,484.3636,0,11,11,11,1,partial,2,images/Ex12.jpg,left,,,,,
,,,,,262721,001,30,male,Dutch,2024-02-21_19h59.55.055,CategoryRev1_within,2023.2.3,MacIntel,60.24096386,,,,,,,,,,,484.3718,1.2,485.5641,485.5641,486.8323,right,1,1.258,,486.8323,487.8335,0,12,12,8,1,partial,2,images/Ex9.jpg,right,,,,,
,,,,,262721,001,30,male,Dutch,2024-02-21_19h59.55.055,CategoryRev1_within,2023.2.3,MacIntel,60.24096386,,,,,,,,,,,487.8415,0.8,488.6341,488.6341,490.5524,left,1,1.9085,,490.5525,491.5525,0,13,13,6,1,partial,2,images/Ex15.jpg,left,,,,,
,,,,,262721,001,30,male,Dutch,2024-02-21_19h59.55.055,CategoryRev1_within,2023.2.3,MacIntel,60.24096386,,,,,,,,,,,491.5527,1.1,492.6537,492.6538,494.1887,right,1,1.5226,,494.1887,495.1901,0,14,14,9,1,partial,2,images/Ex10.jpg,right,,,,,
,,,,,262721,001,30,male,Dutch,2024-02-21_19h59.55.055,CategoryRev1_within,2023.2.3,MacIntel,60.24096386,,,,,,,,,,,495.1904,1.5,496.6907,496.6908,497.7749,left,1,1.0817,,497.7749,498.7763,0,15,15,3,1,partial,2,images/Ex12.jpg,left,,,,,
,,,,,262721,001,30,male,Dutch,2024-02-21_19h59.55.055,CategoryRev1_within,2023.2.3,MacIntel,60.24096386,,,,,,,,,,,498.7766,0.9,499.6769,499.6769,500.8444,left,0,1.1564,,500.8446,501.8453,1,0,16,13,1,partial,2,images/Ex14.jpg,right,,,,,
,,,,,262721,001,30,male,Dutch,2024-02-21_19h59.55.055,CategoryRev1_within,2023.2.3,MacIntel,60.24096386,,,,,,,,,,,501.8456,0.7,502.5464,502.5464,503.7799,left,0,1.2276,,503.7799,504.7812,1,1,17,9,1,partial,2,images/Ex10.jpg,right,,,,,
,,,,,262721,001,30,male,Dutch,2024-02-21_19h59.55.055,CategoryRev1_within,2023.2.3,MacIntel,60.24096386,,,,,,,,,,,504.7816,1.3,506.0817,506.0817,507.4836,left,1,1.3964,,507.4837,508.484,1,2,18,7,1,partial,2,images/Ex16.jpg,left,,,,,
,,,,,262721,001,30,male,Dutch,2024-02-21_19h59.55.055,CategoryRev1_within,2023.2.3,MacIntel,60.24096386,,,,,,,,,,,508.4843,0.9,509.3852,509.3852,510.6198,right,1,1.2289,,510.6198,511.6202,1,3,19,5,1,partial,2,images/Ex14.jpg,right,,,,,
,,,,,262721,001,30,male,Dutch,2024-02-21_19h59.55.055,CategoryRev1_within,2023.2.3,MacIntel,60.24096386,,,,,,,,,,,511.6205,1.1,512.7217,512.7217,514.0731,left,0,1.3421,,514.0731,515.0739,1,4,20,4,1,partial,2,images/Ex13.jpg,right,,,,,
,,,,,262721,001,30,male,Dutch,2024-02-21_19h59.55.055,CategoryRev1_within,2023.2.3,MacIntel,60.24096386,,,,,,,,,,,515.0742,0.7,515.7739,515.7741,517.1081,left,1,1.3229,,517.1081,518.1099,1,5,21,11,1,partial,2,images/Ex12.jpg,left,,,,,
,,,,,262721,001,30,male,Dutch,2024-02-21_19h59.55.055,CategoryRev1_within,2023.2.3,MacIntel,60.24096386,,,,,,,,,,,518.1101,1,519.1101,519.1101,520.212,left,1,1.0891,,520.212,521.2118,1,6,22,10,1,partial,2,images/Ex11.jpg,left,,,,,
,,,,,262721,001,30,male,Dutch,2024-02-21_19h59.55.055,CategoryRev1_within,2023.2.3,MacIntel,60.24096386,,,,,,,,,,,521.2121,1.5,522.7138,522.7138,523.8142,left,1,1.0889,,523.8142,524.8159,1,7,23,2,1,partial,2,images/Ex11.jpg,left,,,,,
,,,,,262721,001,30,male,Dutch,2024-02-21_19h59.55.055,CategoryRev1_within,2023.2.3,MacIntel,60.24096386,,,,,,,,,,,524.8162,1.5,526.3165,526.3165,527.7685,right,1,1.4433,,527.7685,528.7681,1,8,24,1,1,partial,2,images/Ex10.jpg,right,,,,,
,,,,,262721,001,30,male,Dutch,2024-02-21_19h59.55.055,CategoryRev1_within,2023.2.3,MacIntel,60.24096386,,,,,,,,,,,528.7683,0.5,529.2687,529.2687,531.321,right,0,2.0467,,531.321,532.3223,1,9,25,3,1,partial,2,images/Ex12.jpg,left,,,,,
,,,,,262721,001,30,male,Dutch,2024-02-21_19h59.55.055,CategoryRev1_within,2023.2.3,MacIntel,60.24096386,,,,,,,,,,,532.3307,1.4,533.723,533.723,534.8248,left,1,1.0898,,534.8249,535.8251,1,10,26,15,1,partial,2,images/Ex16.jpg,left,,,,,
,,,,,262721,001,30,male,Dutch,2024-02-21_19h59.55.055,CategoryRev1_within,2023.2.3,MacIntel,60.24096386,,,,,,,,,,,535.8255,0.5,536.3252,536.3252,537.1096,left,0,0.7801,,537.1096,538.1106,1,11,27,12,1,partial,2,images/Ex13.jpg,right,,,,,
,,,,,262721,001,30,male,Dutch,2024-02-21_19h59.55.055,CategoryRev1_within,2023.2.3,MacIntel,60.24096386,,,,,,,,,,,538.111,0.9,539.0113,539.0113,540.0618,left,1,1.0495,,540.0618,541.0633,1,12,28,6,1,partial,2,images/Ex15.jpg,left,,,,,
,,,,,262721,001,30,male,Dutch,2024-02-21_19h59.55.055,CategoryRev1_within,2023.2.3,MacIntel,60.24096386,,,,,,,,,,,541.0636,0.6,541.6637,541.6637,542.8476,right,1,1.1728,,542.8477,543.8488,1,13,29,8,1,partial,2,images/Ex9.jpg,right,,,,,
,,,,,262721,001,30,male,Dutch,2024-02-21_19h59.55.055,CategoryRev1_within,2023.2.3,MacIntel,60.24096386,,,,,,,,,,,543.8573,1.3,545.1497,545.1498,545.6999,right,1,0.5392,,545.6999,546.7015,1,14,30,0,1,partial,2,images/Ex9.jpg,right,,,,,
,,,,,262721,001,30,male,Dutch,2024-02-21_19h59.55.055,CategoryRev1_within,2023.2.3,MacIntel,60.24096386,,,,,,,,,,,546.7019,0.8,547.5018,547.5018,548.9202,left,1,1.4091,,548.9202,549.9211,1,15,31,14,1,partial,2,images/Ex15.jpg,left,,,,,
,,,,,262721,001,30,male,Dutch,2024-02-21_19h59.55.055,CategoryRev1_within,2023.2.3,MacIntel,60.24096386,,,,,,,,,,,549.9291,1.4,551.322,551.3221,552.4223,right,0,1.0888,,552.4223,553.424,2,0,32,3,1,partial,2,images/Ex12.jpg,left,,,,,
,,,,,262721,001,30,male,Dutch,2024-02-21_19h59.55.055,CategoryRev1_within,2023.2.3,MacIntel,60.24096386,,,,,,,,,,,553.4243,1.1,554.5243,554.5244,555.3084,left,0,0.7781,,555.3084,556.3099,2,1,33,12,1,partial,2,images/Ex13.jpg,right,,,,,
,,,,,262721,001,30,male,Dutch,2024-02-21_19h59.55.055,CategoryRev1_within,2023.2.3,MacIntel,60.24096386,,,,,,,,,,,556.3102,1.2,557.5105,557.5105,559.0282,left,0,1.5125,,559.0283,560.0294,2,2,34,9,1,partial,2,images/Ex10.jpg,right,,,,,
,,,,,262721,001,30,male,Dutch,2024-02-21_19h59.55.055,CategoryRev1_within,2023.2.3,MacIntel,60.24096386,,,,,,,,,,,560.0375,1.4,561.4308,561.4308,562.698,right,1,1.2554,,562.698,563.6988,2,3,35,4,1,partial,2,images/Ex13.jpg,right,,,,,
,,,,,262721,001,30,male,Dutch,2024-02-21_19h59.55.055,CategoryRev1_within,2023.2.3,MacIntel,60.24096386,,,,,,,,,,,563.699,1.4,565.1012,565.1012,566.0686,right,1,0.9561,,566.0686,567.069,2,4,36,1,1,partial,2,images/Ex10.jpg,right,,,,,
,,,,,262721,001,30,male,Dutch,2024-02-21_19h59.55.055,CategoryRev1_within,2023.2.3,MacIntel,60.24096386,,,,,,,,,,,567.0692,1.1,568.1703,568.1704,569.5548,left,1,1.3718,,569.5548,570.5552,2,5,37,2,1,partial,2,images/Ex11.jpg,left,,,,,
,,,,,262721,001,30,male,Dutch,2024-02-21_19h59.55.055,CategoryRev1_within,2023.2.3,MacIntel,60.24096386,,,,,,,,,,,570.5555,1.2,571.7558,571.7558,572.3734,right,1,0.6169,,572.3734,573.3748,2,6,38,13,1,partial,2,images/Ex14.jpg,right,,,,,
,,,,,262721,001,30,male,Dutch,2024-02-21_19h59.55.055,CategoryRev1_within,2023.2.3,MacIntel,60.24096386,,,,,,,,,,,573.3751,1.5,574.8754,574.8755,575.676,left,1,0.7975,,575.6761,576.6767,2,7,39,10,1,partial,2,images/Ex11.jpg,left,,,,,
,,,,,262721,001,30,male,Dutch,2024-02-21_19h59.55.055,CategoryRev1_within,2023.2.3,MacIntel,60.24096386,,,,,,,,,,,576.677,0.5,577.1777,577.1777,577.928,left,1,0.7453,,577.928,578.9295,2,8,40,7,1,partial,2,images/Ex16.jpg,left,,,,,
,,,,,262721,001,30,male,Dutch,2024-02-21_19h59.55.055,CategoryRev1_within,2023.2.3,MacIntel,60.24096386,,,,,,,,,,,578.9299,1.4,580.331,580.331,580.848,right,1,0.5052,,580.848,581.848,2,9,41,5,1,partial,2,images/Ex14.jpg,right,,,,,
,,,,,262721,001,30,male,Dutch,2024-02-21_19h59.55.055,CategoryRev1_within,2023.2.3,MacIntel,60.24096386,,,,,,,,,,,581.8483,1.5,583.3501,583.3502,583.9003,left,1,0.5432,,583.9004,584.9015,2,10,42,6,1,partial,2,images/Ex15.jpg,left,,,,,
,,,,,262721,001,30,male,Dutch,2024-02-21_19h59.55.055,CategoryRev1_within,2023.2.3,MacIntel,60.24096386,,,,,,,,,,,584.9019,0.7,585.602,585.602,586.1523,left,1,0.5418,,586.1524,587.1536,2,11,43,15,1,partial,2,images/Ex16.jpg,left,,,,,
,,,,,262721,001,30,male,Dutch,2024-02-21_19h59.55.055,CategoryRev1_within,2023.2.3,MacIntel,60.24096386,,,,,,,,,,,587.1539,0.9,588.0542,588.0542,589.1719,right,0,1.1051,,589.1719,590.1725,2,12,44,11,1,partial,2,images/Ex12.jpg,left,,,,,
,,,,,262721,001,30,male,Dutch,2024-02-21_19h59.55.055,CategoryRev1_within,2023.2.3,MacIntel,60.24096386,,,,,,,,,,,590.1728,1.2,591.3739,591.3739,591.9908,right,1,0.6053,,591.9908,592.9916,2,13,45,0,1,partial,2,images/Ex9.jpg,right,,,,,
,,,,,262721,001,30,male,Dutch,2024-02-21_19h59.55.055,CategoryRev1_within,2023.2.3,MacIntel,60.24096386,,,,,,,,,,,592.9919,1.3,594.2922,594.2922,594.7929,right,1,0.492,,594.7929,595.7945,2,14,46,8,1,partial,2,images/Ex9.jpg,right,,,,,
,,,,,262721,001,30,male,Dutch,2024-02-21_19h59.55.055,CategoryRev1_within,2023.2.3,MacIntel,60.24096386,,,,,,,,,,,595.7947,1.1,596.895,596.895,597.4283,left,1,0.5223,,597.4283,598.4289,2,15,47,14,1,partial,2,images/Ex15.jpg,left,,,,,
,,,,,262721,001,30,male,Dutch,2024-02-21_19h59.55.055,CategoryRev1_within,2023.2.3,MacIntel,60.24096386,,,,,,,,,,,598.4292,1.3,599.731,599.731,600.2308,left,1,0.4983,,600.2308,601.2324,3,0,48,10,1,partial,2,images/Ex11.jpg,left,,,,,
,,,,,262721,001,30,male,Dutch,2024-02-21_19h59.55.055,CategoryRev1_within,2023.2.3,MacIntel,60.24096386,,,,,,,,,,,601.2327,1.5,602.7332,602.7332,603.317,left,1,0.5725,,603.317,604.3173,3,1,49,7,1,partial,2,images/Ex16.jpg,left,,,,,
,,,,,262721,001,30,male,Dutch,2024-02-21_19h59.55.055,CategoryRev1_within,2023.2.3,MacIntel,60.24096386,,,,,,,,,,,604.3177,0.8,605.1193,605.1193,605.7356,right,0,0.6156,,605.7356,606.7372,3,2,50,3,1,partial,2,images/Ex12.jpg,left,,,,,
,,,,,262721,001,30,male,Dutch,2024-02-21_19h59.55.055,CategoryRev1_within,2023.2.3,MacIntel,60.24096386,,,,,,,,,,,606.7376,0.9,607.6375,607.6375,608.5056,right,1,0.8578,,608.5056,609.5056,3,3,51,4,1,partial,2,images/Ex13.jpg,right,,,,,
,,,,,262721,001,30,male,Dutch,2024-02-21_19h59.55.055,CategoryRev1_within,2023.2.3,MacIntel,60.24096386,,,,,,,,,,,609.5059,0.7,610.207,610.207,611.0739,left,1,0.8557,,611.0739,612.0745,3,4,52,11,1,partial,2,images/Ex12.jpg,left,,,,,
,,,,,262721,001,30,male,Dutch,2024-02-21_19h59.55.055,CategoryRev1_within,2023.2.3,MacIntel,60.24096386,,,,,,,,,,,612.0748,1.1,613.1758,613.1759,613.9262,right,1,0.7494,,613.9262,614.9278,3,5,53,1,1,partial,2,images/Ex10.jpg,right,,,,,
,,,,,262721,001,30,male,Dutch,2024-02-21_19h59.55.055,CategoryRev1_within,2023.2.3,MacIntel,60.24096386,,,,,,,,,,,614.9282,1.3,616.228,616.2281,616.8296,right,1,0.5925,,616.8296,617.8295,3,6,54,8,1,partial,2,images/Ex9.jpg,right,,,,,
,,,,,262721,001,30,male,Dutch,2024-02-21_19h59.55.055,CategoryRev1_within,2023.2.3,MacIntel,60.24096386,,,,,,,,,,,617.8298,0.9,618.7308,618.7308,619.2814,left,1,0.5392,,619.2814,620.2823,3,7,55,15,1,partial,2,images/Ex16.jpg,left,,,,,
,,,,,262721,001,30,male,Dutch,2024-02-21_19h59.55.055,CategoryRev1_within,2023.2.3,MacIntel,60.24096386,,,,,,,,,,,620.2826,1.2,621.4832,621.4832,622.0005,left,1,0.5127,,622.0005,623.0005,3,8,56,6,1,partial,2,images/Ex15.jpg,left,,,,,
,,,,,262721,001,30,male,Dutch,2024-02-21_19h59.55.055,CategoryRev1_within,2023.2.3,MacIntel,60.24096386,,,,,,,,,,,623.0008,0.6,623.6019,623.6019,624.1022,right,1,0.4945,,624.1023,625.1026,3,9,57,0,1,partial,2,images/Ex9.jpg,right,,,,,
,,,,,262721,001,30,male,Dutch,2024-02-21_19h59.55.055,CategoryRev1_within,2023.2.3,MacIntel,60.24096386,,,,,,,,,,,625.1028,1.3,626.4044,626.4045,627.1386,right,1,0.7219,,627.1386,628.1388,3,10,58,9,1,partial,2,images/Ex10.jpg,right,,,,,
,,,,,262721,001,30,male,Dutch,2024-02-21_19h59.55.055,CategoryRev1_within,2023.2.3,MacIntel,60.24096386,,,,,,,,,,,628.1392,1,629.14,629.14,629.7901,left,1,0.6419,,629.7902,630.7911,3,11,59,2,1,partial,2,images/Ex11.jpg,left,,,,,
,,,,,262721,001,30,male,Dutch,2024-02-21_19h59.55.055,CategoryRev1_within,2023.2.3,MacIntel,60.24096386,,,,,,,,,,,630.7913,0.6,631.3922,631.3922,631.8928,left,1,0.4893,,631.8928,632.8931,3,12,60,14,1,partial,2,images/Ex15.jpg,left,,,,,
,,,,,262721,001,30,male,Dutch,2024-02-21_19h59.55.055,CategoryRev1_within,2023.2.3,MacIntel,60.24096386,,,,,,,,,,,632.8933,1.4,634.2945,634.2946,634.8788,right,1,0.5725,,634.8789,635.8792,3,13,61,13,1,partial,2,images/Ex14.jpg,right,,,,,
,,,,,262721,001,30,male,Dutch,2024-02-21_19h59.55.055,CategoryRev1_within,2023.2.3,MacIntel,60.24096386,,,,,,,,,,,635.8795,1.4,637.2806,637.2806,638.0474,right,1,0.7546,,638.0475,639.0487,3,14,62,12,1,partial,2,images/Ex13.jpg,right,,,,,
,,,,,262721,001,30,male,Dutch,2024-02-21_19h59.55.055,CategoryRev1_within,2023.2.3,MacIntel,60.24096386,,,,,,,,,,,639.0489,0.7,639.7494,639.7495,640.1833,left,0,0.428,,640.1833,641.1835,3,15,63,5,1,partial,2,images/Ex14.jpg,right,,,,,
,,,,,262721,001,30,male,Dutch,2024-02-21_19h59.55.055,CategoryRev1_within,2023.2.3,MacIntel,60.24096386,,,,,,,,,,,641.1838,1,642.1839,642.1839,643.0859,left,1,0.8899,,643.0859,644.0857,4,0,64,11,1,partial,2,images/Ex12.jpg,left,,,,,
,,,,,262721,001,30,male,Dutch,2024-02-21_19h59.55.055,CategoryRev1_within,2023.2.3,MacIntel,60.24096386,,,,,,,,,,,644.086,1.4,645.4878,645.4879,646.1219,left,1,0.6299,,646.1219,647.122,4,1,65,3,1,partial,2,images/Ex12.jpg,left,,,,,
,,,,,262721,001,30,male,Dutch,2024-02-21_19h59.55.055,CategoryRev1_within,2023.2.3,MacIntel,60.24096386,,,,,,,,,,,647.1222,0.7,647.8231,647.8231,648.4234,left,1,0.5896,,648.4234,649.424,4,2,66,14,1,partial,2,images/Ex15.jpg,left,,,,,
,,,,,262721,001,30,male,Dutch,2024-02-21_19h59.55.055,CategoryRev1_within,2023.2.3,MacIntel,60.24096386,,,,,,,,,,,649.4243,0.5,649.9241,649.9241,650.3582,left,1,0.4243,,650.3583,651.3588,4,3,67,6,1,partial,2,images/Ex15.jpg,left,,,,,
,,,,,262721,001,30,male,Dutch,2024-02-21_19h59.55.055,CategoryRev1_within,2023.2.3,MacIntel,60.24096386,,,,,,,,,,,651.3591,1.1,652.4602,652.4602,653.1602,right,1,0.6939,,653.1603,654.1618,4,4,68,4,1,partial,2,images/Ex13.jpg,right,,,,,
,,,,,262721,001,30,male,Dutch,2024-02-21_19h59.55.055,CategoryRev1_within,2023.2.3,MacIntel,60.24096386,,,,,,,,,,,654.1622,1.3,655.4624,655.4625,655.9294,right,1,0.4656,,655.9294,656.9304,4,5,69,5,1,partial,2,images/Ex14.jpg,right,,,,,
,,,,,262721,001,30,male,Dutch,2024-02-21_19h59.55.055,CategoryRev1_within,2023.2.3,MacIntel,60.24096386,,,,,,,,,,,656.9307,0.8,657.7307,657.7307,658.3148,right,1,0.5726,,658.3148,659.3165,4,6,70,8,1,partial,2,images/Ex9.jpg,right,,,,,
,,,,,262721,001,30,male,Dutch,2024-02-21_19h59.55.055,CategoryRev1_within,2023.2.3,MacIntel,60.24096386,,,,,,,,,,,659.3168,1.4,660.7172,660.7173,661.2509,right,1,0.5224,,661.2509,662.2516,4,7,71,12,1,partial,2,images/Ex13.jpg,right,,,,,
,,,,,262721,001,30,male,Dutch,2024-02-21_19h59.55.055,CategoryRev1_within,2023.2.3,MacIntel,60.24096386,,,,,,,,,,,662.2519,1.4,663.653,663.653,664.2709,left,1,0.605,,664.2709,665.271,4,8,72,2,1,partial,2,images/Ex11.jpg,left,,,,,
,,,,,262721,001,30,male,Dutch,2024-02-21_19h59.55.055,CategoryRev1_within,2023.2.3,MacIntel,60.24096386,,,,,,,,,,,665.2712,0.8,666.0725,666.0725,666.7064,left,1,0.6267,,666.7065,667.7071,4,9,73,15,1,partial,2,images/Ex16.jpg,left,,,,,
,,,,,262721,001,30,male,Dutch,2024-02-21_19h59.55.055,CategoryRev1_within,2023.2.3,MacIntel,60.24096386,,,,,,,,,,,667.7075,1.4,669.1074,669.1074,669.7254,right,1,0.6069,,669.7254,670.7264,4,10,74,9,1,partial,2,images/Ex10.jpg,right,,,,,
,,,,,262721,001,30,male,Dutch,2024-02-21_19h59.55.055,CategoryRev1_within,2023.2.3,MacIntel,60.24096386,,,,,,,,,,,670.7267,0.5,671.2269,671.2269,671.6607,left,0,0.4226,,671.6608,672.6614,4,11,75,0,1,partial,2,images/Ex9.jpg,right,,,,,
,,,,,262721,001,30,male,Dutch,2024-02-21_19h59.55.055,CategoryRev1_within,2023.2.3,MacIntel,60.24096386,,,,,,,,,,,672.6617,0.8,673.4611,673.4612,673.9287,right,1,0.4556,,673.9288,674.9297,4,12,76,13,1,partial,2,images/Ex14.jpg,right,,,,,
,,,,,262721,001,30,male,Dutch,2024-02-21_19h59.55.055,CategoryRev1_within,2023.2.3,MacIntel,60.24096386,,,,,,,,,,,674.93,1,675.931,675.931,676.5979,right,1,0.6556,,676.5979,677.5991,4,13,77,1,1,partial,2,images/Ex10.jpg,right,,,,,
,,,,,262721,001,30,male,Dutch,2024-02-21_19h59.55.055,CategoryRev1_within,2023.2.3,MacIntel,60.24096386,,,,,,,,,,,677.5993,0.5,678.0995,678.0995,678.6999,left,1,0.5881,,678.6999,679.6998,4,14,78,7,1,partial,2,images/Ex16.jpg,left,,,,,
,,,,,262721,001,30,male,Dutch,2024-02-21_19h59.55.055,CategoryRev1_within,2023.2.3,MacIntel,60.24096386,,,,,,,,,,,679.7001,1.4,681.102,681.102,681.5861,left,1,0.478,,681.5861,682.5861,4,15,79,10,1,partial,2,images/Ex11.jpg,left,,,,,
,,,,,262721,001,30,male,Dutch,2024-02-21_19h59.55.055,CategoryRev1_within,2023.2.3,MacIntel,60.24096386,,,,,,,,,,,682.5864,1.1,683.6877,683.6877,684.1043,right,1,0.4125,,684.1043,685.1058,5,0,80,0,1,partial,2,images/Ex9.jpg,right,,,,,
,,,,,262721,001,30,male,Dutch,2024-02-21_19h59.55.055,CategoryRev1_within,2023.2.3,MacIntel,60.24096386,,,,,,,,,,,685.1061,0.5,685.6062,685.6062,686.1224,right,1,0.5045,,686.1225,687.1241,5,1,81,4,1,partial,2,images/Ex13.jpg,right,,,,,
,,,,,262721,001,30,male,Dutch,2024-02-21_19h59.55.055,CategoryRev1_within,2023.2.3,MacIntel,60.24096386,,,,,,,,,,,687.1243,1.3,688.4244,688.4244,688.8422,right,1,0.4054,,688.8422,689.8427,5,2,82,8,1,partial,2,images/Ex9.jpg,right,,,,,
,,,,,262721,001,30,male,Dutch,2024-02-21_19h59.55.055,CategoryRev1_within,2023.2.3,MacIntel,60.24096386,,,,,,,,,,,689.843,1.4,691.2435,691.2435,691.7782,left,1,0.5221,,691.7782,692.778,5,3,83,6,1,partial,2,images/Ex15.jpg,left,,,,,
,,,,,262721,001,30,male,Dutch,2024-02-21_19h59.55.055,CategoryRev1_within,2023.2.3,MacIntel,60.24096386,,,,,,,,,,,692.7782,1.5,694.2801,694.2802,694.563,right,1,0.277,,694.563,695.5649,5,4,84,5,1,partial,2,images/Ex14.jpg,right,,,,,
,,,,,262721,001,30,male,Dutch,2024-02-21_19h59.55.055,CategoryRev1_within,2023.2.3,MacIntel,60.24096386,,,,,,,,,,,695.5651,1.4,696.9649,696.9649,697.3831,right,1,0.4122,,697.3831,698.3836,5,5,85,9,1,partial,2,images/Ex10.jpg,right,,,,,
,,,,,262721,001,30,male,Dutch,2024-02-21_19h59.55.055,CategoryRev1_within,2023.2.3,MacIntel,60.24096386,,,,,,,,,,,698.384,1,699.3846,699.3846,699.9513,right,0,0.5572,,699.9514,700.9529,5,6,86,3,1,partial,2,images/Ex12.jpg,left,,,,,
,,,,,262721,001,30,male,Dutch,2024-02-21_19h59.55.055,CategoryRev1_within,2023.2.3,MacIntel,60.24096386,,,,,,,,,,,700.9532,0.6,701.5529,701.5529,702.2206,left,1,0.6554,,702.2207,703.2213,5,7,87,7,1,partial,2,images/Ex16.jpg,left,,,,,
,,,,,262721,001,30,male,Dutch,2024-02-21_19h59.55.055,CategoryRev1_within,2023.2.3,MacIntel,60.24096386,,,,,,,,,,,703.2216,1,704.2214,704.2214,704.7227,left,1,0.4904,,704.7227,705.7235,5,8,88,10,1,partial,2,images/Ex11.jpg,left,,,,,
,,,,,262721,001,30,male,Dutch,2024-02-21_19h59.55.055,CategoryRev1_within,2023.2.3,MacIntel,60.24096386,,,,,,,,,,,705.7237,0.6,706.3235,706.3236,706.9248,right,1,0.5943,,706.9249,707.9256,5,9,89,13,1,partial,2,images/Ex14.jpg,right,,,,,
,,,,,262721,001,30,male,Dutch,2024-02-21_19h59.55.055,CategoryRev1_within,2023.2.3,MacIntel,60.24096386,,,,,,,,,,,707.9258,0.9,708.8256,708.8256,709.7607,left,1,0.9262,,709.7607,710.7615,5,10,90,11,1,partial,2,images/Ex12.jpg,left,,,,,
,,,,,262721,001,30,male,Dutch,2024-02-21_19h59.55.055,CategoryRev1_within,2023.2.3,MacIntel,60.24096386,,,,,,,,,,,710.7619,0.6,711.3617,711.3617,711.9286,left,1,0.5552,,711.9286,712.93,5,11,91,14,1,partial,2,images/Ex15.jpg,left,,,,,
,,,,,262721,001,30,male,Dutch,2024-02-21_19h59.55.055,CategoryRev1_within,2023.2.3,MacIntel,60.24096386,,,,,,,,,,,712.9302,0.6,713.5299,713.5299,714.0968,right,1,0.5572,,714.0968,715.098,5,12,92,1,1,partial,2,images/Ex10.jpg,right,,,,,
,,,,,262721,001,30,male,Dutch,2024-02-21_19h59.55.055,CategoryRev1_within,2023.2.3,MacIntel,60.24096386,,,,,,,,,,,715.0983,0.9,715.9993,715.9993,716.5322,right,1,0.5213,,716.5322,717.534,5,13,93,12,1,partial,2,images/Ex13.jpg,right,,,,,
,,,,,262721,001,30,male,Dutch,2024-02-21_19h59.55.055,CategoryRev1_within,2023.2.3,MacIntel,60.24096386,,,,,,,,,,,717.5342,1.4,718.9343,718.9343,719.5023,left,1,0.5563,,719.5024,720.5024,5,14,94,2,1,partial,2,images/Ex11.jpg,left,,,,,
,,,,,262721,001,30,male,Dutch,2024-02-21_19h59.55.055,CategoryRev1_within,2023.2.3,MacIntel,60.24096386,,,,,,,,,,,720.5026,1,721.504,721.504,722.0206,left,1,0.5045,,722.0207,723.0219,5,15,95,15,1,partial,2,images/Ex16.jpg,left,,,,,
,,,,,262721,001,30,male,Dutch,2024-02-21_19h59.55.055,CategoryRev1_within,2023.2.3,MacIntel,60.24096386,,,,,,723.0226,725.8745,space,2.8355,,725.8859,1.3,727.1748,727.1748,728.3931,right,1,1.2087,,728.3931,729.3941,0,0,0,6,1,total,1,images/Ex7.jpg,right,,,,,
,,,,,262721,001,30,male,Dutch,2024-02-21_19h59.55.055,CategoryRev1_within,2023.2.3,MacIntel,60.24096386,,,,,,,,,,,729.3944,0.6,729.9941,729.9941,730.4789,right,0,0.4742,,730.4789,731.479,0,1,1,3,1,total,1,images/Ex4.jpg,left,,,,,
,,,,,262721,001,30,male,Dutch,2024-02-21_19h59.55.055,CategoryRev1_within,2023.2.3,MacIntel,60.24096386,,,,,,,,,,,731.4793,1.3,732.7803,732.7804,733.5806,left,1,0.7939,,733.5806,734.5815,0,2,2,0,1,total,1,images/Ex1.jpg,left,,,,,
,,,,,262721,001,30,male,Dutch,2024-02-21_19h59.55.055,CategoryRev1_within,2023.2.3,MacIntel,60.24096386,,,,,,,,,,,734.5818,1.2,735.7833,735.7833,736.9838,left,1,1.1952,,736.9838,737.9842,0,3,3,11,1,total,1,images/Ex4.jpg,left,,,,,
,,,,,262721,001,30,male,Dutch,2024-02-21_19h59.55.055,CategoryRev1_within,2023.2.3,MacIntel,60.24096386,,,,,,,,,,,737.9925,1.5,739.4855,739.4855,741.0714,left,0,1.5738,,741.0714,742.0717,0,4,4,4,1,total,1,images/Ex5.jpg,right,,,,,
,,,,,262721,001,30,male,Dutch,2024-02-21_19h59.55.055,CategoryRev1_within,2023.2.3,MacIntel,60.24096386,,,,,,,,,,,742.0798,1.4,743.4731,743.4732,744.1734,right,1,0.6918,,744.1734,745.1739,0,5,5,12,1,total,1,images/Ex5.jpg,right,,,,,
,,,,,262721,001,30,male,Dutch,2024-02-21_19h59.55.055,CategoryRev1_within,2023.2.3,MacIntel,60.24096386,,,,,,,,,,,745.1741,1,746.1756,746.1756,747.4101,right,1,1.2285,,747.4102,748.4102,0,6,6,7,1,total,1,images/Ex8.jpg,right,,,,,
,,,,,262721,001,30,male,Dutch,2024-02-21_19h59.55.055,CategoryRev1_within,2023.2.3,MacIntel,60.24096386,,,,,,,,,,,748.4105,1.1,749.5117,749.5118,750.579,left,1,1.0577,,750.579,751.5803,0,7,7,9,1,total,1,images/Ex2.jpg,left,,,,,
,,,,,262721,001,30,male,Dutch,2024-02-21_19h59.55.055,CategoryRev1_within,2023.2.3,MacIntel,60.24096386,,,,,,,,,,,751.5806,0.5,752.0803,752.0803,753.5146,right,0,1.4296,,753.5146,754.5161,0,8,8,8,1,total,1,images/Ex1.jpg,left,,,,,
,,,,,262721,001,30,male,Dutch,2024-02-21_19h59.55.055,CategoryRev1_within,2023.2.3,MacIntel,60.24096386,,,,,,,,,,,754.5164,0.7,755.2165,755.2165,756.0845,right,1,0.8584,,756.0846,757.0845,0,9,9,5,1,total,1,images/Ex6.jpg,right,,,,,
,,,,,262721,001,30,male,Dutch,2024-02-21_19h59.55.055,CategoryRev1_within,2023.2.3,MacIntel,60.24096386,,,,,,,,,,,757.0849,1.2,758.2862,758.2862,759.286,right,0,0.999,,759.2861,760.288,0,10,10,10,1,total,1,images/Ex3.jpg,left,,,,,
,,,,,262721,001,30,male,Dutch,2024-02-21_19h59.55.055,CategoryRev1_within,2023.2.3,MacIntel,60.24096386,,,,,,,,,,,760.2883,0.5,760.7884,760.7884,761.5214,left,1,0.7319,,761.5214,762.5231,0,11,11,1,1,total,1,images/Ex2.jpg,left,,,,,
,,,,,262721,001,30,male,Dutch,2024-02-21_19h59.55.055,CategoryRev1_within,2023.2.3,MacIntel,60.24096386,,,,,,,,,,,762.5235,1.2,763.7241,763.7241,764.5412,left,0,0.8115,,764.5413,765.5425,0,12,12,13,1,total,1,images/Ex6.jpg,right,,,,,
,,,,,262721,001,30,male,Dutch,2024-02-21_19h59.55.055,CategoryRev1_within,2023.2.3,MacIntel,60.24096386,,,,,,,,,,,765.5429,1.3,766.8427,766.8427,767.8111,left,0,0.963,,767.8111,768.8113,0,13,13,15,1,total,1,images/Ex8.jpg,right,,,,,
,,,,,262721,001,30,male,Dutch,2024-02-21_19h59.55.055,CategoryRev1_within,2023.2.3,MacIntel,60.24096386,,,,,,,,,,,768.8116,0.7,769.5125,769.5125,770.7153,left,1,1.1895,,770.7153,771.7135,0,14,14,2,1,total,1,images/Ex3.jpg,left,,,,,
,,,,,262721,001,30,male,Dutch,2024-02-21_19h59.55.055,CategoryRev1_within,2023.2.3,MacIntel,60.24096386,,,,,,,,,,,771.7139,0.9,772.6152,772.6152,773.5158,left,0,0.8907,,773.5158,774.5168,0,15,15,14,1,total,1,images/Ex7.jpg,right,,,,,
,,,,,262721,001,30,male,Dutch,2024-02-21_19h59.55.055,CategoryRev1_within,2023.2.3,MacIntel,60.24096386,,,,,,,,,,,774.5171,1.1,775.6172,775.6172,776.5356,left,1,0.9054,,776.5356,777.5358,1,0,16,3,1,total,1,images/Ex4.jpg,left,,,,,
,,,,,262721,001,30,male,Dutch,2024-02-21_19h59.55.055,CategoryRev1_within,2023.2.3,MacIntel,60.24096386,,,,,,,,,,,777.5361,1.2,778.7367,778.7367,779.8542,right,1,1.1147,,779.8542,780.8559,1,1,17,14,1,total,1,images/Ex7.jpg,right,,,,,
,,,,,262721,001,30,male,Dutch,2024-02-21_19h59.55.055,CategoryRev1_within,2023.2.3,MacIntel,60.24096386,,,,,,,,,,,780.8562,0.6,781.4561,781.4561,783.1236,right,0,1.6656,,783.1236,784.1243,1,2,18,8,1,total,1,images/Ex1.jpg,left,,,,,
,,,,,262721,001,30,male,Dutch,2024-02-21_19h59.55.055,CategoryRev1_within,2023.2.3,MacIntel,60.24096386,,,,,,,,,,,784.1324,1.4,785.526,785.526,786.2265,left,1,0.6891,,786.2266,787.2278,1,3,19,0,1,total,1,images/Ex1.jpg,left,,,,,
,,,,,262721,001,30,male,Dutch,2024-02-21_19h59.55.055,CategoryRev1_within,2023.2.3,MacIntel,60.24096386,,,,,,,,,,,787.2281,0.6,787.8285,787.8285,788.829,right,1,0.9942,,788.829,789.8297,1,4,20,5,1,total,1,images/Ex6.jpg,right,,,,,
,,,,,262721,001,30,male,Dutch,2024-02-21_19h59.55.055,CategoryRev1_within,2023.2.3,MacIntel,60.24096386,,,,,,,,,,,789.8299,0.6,790.4307,790.4307,791.3141,left,1,0.8816,,791.3141,792.3149,1,5,21,2,1,total,1,images/Ex3.jpg,left,,,,,
,,,,,262721,001,30,male,Dutch,2024-02-21_19h59.55.055,CategoryRev1_within,2023.2.3,MacIntel,60.24096386,,,,,,,,,,,792.3152,1,793.3168,793.3168,794.7343,left,1,1.4158,,794.7343,795.735,1,6,22,1,1,total,1,images/Ex2.jpg,left,,,,,
,,,,,262721,001,30,male,Dutch,2024-02-21_19h59.55.055,CategoryRev1_within,2023.2.3,MacIntel,60.24096386,,,,,,,,,,,795.7352,1.3,797.0366,797.0366,797.6032,right,1,0.5612,,797.6032,798.6046,1,7,23,12,1,total,1,images/Ex5.jpg,right,,,,,
,,,,,262721,001,30,male,Dutch,2024-02-21_19h59.55.055,CategoryRev1_within,2023.2.3,MacIntel,60.24096386,,,,,,,,,,,798.6049,0.8,799.4052,799.4052,800.3731,right,1,0.9552,,800.3731,801.3732,1,8,24,6,1,total,1,images/Ex7.jpg,right,,,,,
,,,,,262721,001,30,male,Dutch,2024-02-21_19h59.55.055,CategoryRev1_within,2023.2.3,MacIntel,60.24096386,,,,,,,,,,,801.3736,1,802.3746,802.3746,803.2412,left,1,0.8635,,803.2412,804.2418,1,9,25,11,1,total,1,images/Ex4.jpg,left,,,,,
,,,,,262721,001,30,male,Dutch,2024-02-21_19h59.55.055,CategoryRev1_within,2023.2.3,MacIntel,60.24096386,,,,,,,,,,,804.2421,0.7,804.9435,804.9436,805.8937,right,0,0.9383,,805.8937,806.8952,1,10,26,9,1,total,1,images/Ex2.jpg,left,,,,,
,,,,,262721,001,30,male,Dutch,2024-02-21_19h59.55.055,CategoryRev1_within,2023.2.3,MacIntel,60.24096386,,,,,,,,,,,806.8955,1.3,808.1957,808.1957,809.163,right,1,0.9562,,809.163,810.1638,1,11,27,13,1,total,1,images/Ex6.jpg,right,,,,,
,,,,,262721,001,30,male,Dutch,2024-02-21_19h59.55.055,CategoryRev1_within,2023.2.3,MacIntel,60.24096386,,,,,,,,,,,810.1641,1.1,811.2651,811.2651,811.8322,right,0,0.5556,,811.8322,812.8336,1,12,28,10,1,total,1,images/Ex3.jpg,left,,,,,
,,,,,262721,001,30,male,Dutch,2024-02-21_19h59.55.055,CategoryRev1_within,2023.2.3,MacIntel,60.24096386,,,,,,,,,,,812.8339,1.2,814.034,814.0341,814.9859,left,0,0.9392,,814.9859,815.9857,1,13,29,7,1,total,1,images/Ex8.jpg,right,,,,,
,,,,,262721,001,30,male,Dutch,2024-02-21_19h59.55.055,CategoryRev1_within,2023.2.3,MacIntel,60.24096386,,,,,,,,,,,815.986,0.6,816.5862,816.5862,817.5376,right,1,0.9477,,817.5376,818.5384,1,14,30,4,1,total,1,images/Ex5.jpg,right,,,,,
,,,,,262721,001,30,male,Dutch,2024-02-21_19h59.55.055,CategoryRev1_within,2023.2.3,MacIntel,60.24096386,,,,,,,,,,,818.5387,1.1,819.6395,819.6395,820.2062,right,1,0.5553,,820.2063,821.2079,1,15,31,15,1,total,1,images/Ex8.jpg,right,,,,,
,,,,,262721,001,30,male,Dutch,2024-02-21_19h59.55.055,CategoryRev1_within,2023.2.3,MacIntel,60.24096386,,,,,,,,,,,821.2082,1.1,822.3086,822.3086,823.2763,left,1,0.9563,,823.2763,824.2767,2,0,32,10,1,total,1,images/Ex3.jpg,left,,,,,
,,,,,262721,001,30,male,Dutch,2024-02-21_19h59.55.055,CategoryRev1_within,2023.2.3,MacIntel,60.24096386,,,,,,,,,,,824.277,1.1,825.3781,825.3781,826.2292,left,0,0.8416,,826.2292,827.2288,2,1,33,5,1,total,1,images/Ex6.jpg,right,,,,,
,,,,,262721,001,30,male,Dutch,2024-02-21_19h59.55.055,CategoryRev1_within,2023.2.3,MacIntel,60.24096386,,,,,,,,,,,827.2291,0.7,827.9302,827.9302,829.2148,left,1,1.2745,,829.2148,830.215,2,2,34,8,1,total,1,images/Ex1.jpg,left,,,,,
,,,,,262721,001,30,male,Dutch,2024-02-21_19h59.55.055,CategoryRev1_within,2023.2.3,MacIntel,60.24096386,,,,,,,,,,,830.223,0.8,831.016,831.016,831.6493,right,1,0.6219,,831.6494,832.651,2,3,35,7,1,total,1,images/Ex8.jpg,right,,,,,
,,,,,262721,001,30,male,Dutch,2024-02-21_19h59.55.055,CategoryRev1_within,2023.2.3,MacIntel,60.24096386,,,,,,,,,,,832.6513,0.5,833.1512,833.1512,834.2021,right,0,1.0491,,834.2022,835.2032,2,4,36,1,1,total,1,images/Ex2.jpg,left,,,,,
,,,,,262721,001,30,male,Dutch,2024-02-21_19h59.55.055,CategoryRev1_within,2023.2.3,MacIntel,60.24096386,,,,,,,,,,,835.2034,0.6,835.8034,835.8034,837.0877,left,1,1.2778,,837.0877,838.0891,2,5,37,0,1,total,1,images/Ex1.jpg,left,,,,,
,,,,,262721,001,30,male,Dutch,2024-02-21_19h59.55.055,CategoryRev1_within,2023.2.3,MacIntel,60.24096386,,,,,,,,,,,838.0971,0.6,838.6896,838.6896,839.5897,right,0,0.8959,,839.5898,840.5913,2,6,38,9,1,total,1,images/Ex2.jpg,left,,,,,
,,,,,262721,001,30,male,Dutch,2024-02-21_19h59.55.055,CategoryRev1_within,2023.2.3,MacIntel,60.24096386,,,,,,,,,,,840.5916,1,841.5918,841.5918,842.5255,right,1,0.9219,,842.5255,843.5271,2,7,39,12,1,total,1,images/Ex5.jpg,right,,,,,
,,,,,262721,001,30,male,Dutch,2024-02-21_19h59.55.055,CategoryRev1_within,2023.2.3,MacIntel,60.24096386,,,,,,,,,,,843.5274,1,844.5279,844.528,845.962,left,0,1.4226,,845.962,846.9635,2,8,40,13,1,total,1,images/Ex6.jpg,right,,,,,
,,,,,262721,001,30,male,Dutch,2024-02-21_19h59.55.055,CategoryRev1_within,2023.2.3,MacIntel,60.24096386,,,,,,,,,,,846.9638,1.3,848.2641,848.2642,849.516,left,0,1.239,,849.516,850.5159,2,9,41,6,1,total,1,images/Ex7.jpg,right,,,,,
,,,,,262721,001,30,male,Dutch,2024-02-21_19h59.55.055,CategoryRev1_within,2023.2.3,MacIntel,60.24096386,,,,,,,,,,,850.5161,0.9,851.4169,851.4169,852.2507,right,1,0.8294,,852.2507,853.2521,2,10,42,4,1,total,1,images/Ex5.jpg,right,,,,,
,,,,,262721,001,30,male,Dutch,2024-02-21_19h59.55.055,CategoryRev1_within,2023.2.3,MacIntel,60.24096386,,,,,,,,,,,853.2523,1,854.2525,854.2525,855.3044,left,1,1.0392,,855.3044,856.3046,2,11,43,2,1,total,1,images/Ex3.jpg,left,,,,,
,,,,,262721,001,30,male,Dutch,2024-02-21_19h59.55.055,CategoryRev1_within,2023.2.3,MacIntel,60.24096386,,,,,,,,,,,856.3049,1.4,857.7062,857.7062,858.4904,right,0,0.7808,,858.4904,859.4909,2,12,44,3,1,total,1,images/Ex4.jpg,left,,,,,
,,,,,262721,001,30,male,Dutch,2024-02-21_19h59.55.055,CategoryRev1_within,2023.2.3,MacIntel,60.24096386,,,,,,,,,,,859.4912,1.1,860.5922,860.5922,861.343,left,0,0.7448,,861.343,862.343,2,13,45,15,1,total,1,images/Ex8.jpg,right,,,,,
,,,,,262721,001,30,male,Dutch,2024-02-21_19h59.55.055,CategoryRev1_within,2023.2.3,MacIntel,60.24096386,,,,,,,,,,,862.3434,0.8,863.1442,863.1442,863.9782,right,0,0.833,,863.9782,864.9791,2,14,46,11,1,total,1,images/Ex4.jpg,left,,,,,
,,,,,262721,001,30,male,Dutch,2024-02-21_19h59.55.055,CategoryRev1_within,2023.2.3,MacIntel,60.24096386,,,,,,,,,,,864.9795,1.3,866.2804,866.2804,867.7151,right,1,1.4222,,867.7151,868.7155,2,15,47,14,1,total,1,images/Ex7.jpg,right,,,,,
,,,,,262721,001,30,male,Dutch,2024-02-21_19h59.55.055,CategoryRev1_within,2023.2.3,MacIntel,60.24096386,,,,,,,,,,,868.7159,0.7,869.4154,869.4154,870.451,right,1,1.029,,870.4511,871.4515,3,0,48,12,1,total,1,images/Ex5.jpg,right,,,,,
,,,,,262721,001,30,male,Dutch,2024-02-21_19h59.55.055,CategoryRev1_within,2023.2.3,MacIntel,60.24096386,,,,,,,,,,,871.4518,0.7,872.1516,872.1517,873.1357,left,1,0.976,,873.1358,874.1371,3,1,49,11,1,total,1,images/Ex4.jpg,left,,,,,
,,,,,262721,001,30,male,Dutch,2024-02-21_19h59.55.055,CategoryRev1_within,2023.2.3,MacIntel,60.24096386,,,,,,,,,,,874.1374,1.4,875.538,875.538,876.622,right,1,1.0722,,876.6221,877.6236,3,2,50,15,1,total,1,images/Ex8.jpg,right,,,,,
,,,,,262721,001,30,male,Dutch,2024-02-21_19h59.55.055,CategoryRev1_within,2023.2.3,MacIntel,60.24096386,,,,,,,,,,,877.6238,1.4,879.024,879.024,880.0423,left,1,1.0063,,880.0423,881.0424,3,3,51,0,1,total,1,images/Ex1.jpg,left,,,,,
,,,,,262721,001,30,male,Dutch,2024-02-21_19h59.55.055,CategoryRev1_within,2023.2.3,MacIntel,60.24096386,,,,,,,,,,,881.0428,0.9,881.9435,881.9436,882.7444,left,1,0.7885,,882.7444,883.7458,3,4,52,3,1,total,1,images/Ex4.jpg,left,,,,,
,,,,,262721,001,30,male,Dutch,2024-02-21_19h59.55.055,CategoryRev1_within,2023.2.3,MacIntel,60.24096386,,,,,,,,,,,883.746,1.5,885.2464,885.2464,886.0145,left,1,0.7555,,886.0145,887.0142,3,5,53,10,1,total,1,images/Ex3.jpg,left,,,,,
,,,,,262721,001,30,male,Dutch,2024-02-21_19h59.55.055,CategoryRev1_within,2023.2.3,MacIntel,60.24096386,,,,,,,,,,,887.0145,1,888.016,888.016,888.8002,right,1,0.773,,888.8002,889.8007,3,6,54,4,1,total,1,images/Ex5.jpg,right,,,,,
,,,,,262721,001,30,male,Dutch,2024-02-21_19h59.55.055,CategoryRev1_within,2023.2.3,MacIntel,60.24096386,,,,,,,,,,,889.801,0.5,890.3003,890.3004,891.3848,right,1,1.0835,,891.3848,892.3865,3,7,55,7,1,total,1,images/Ex8.jpg,right,,,,,
,,,,,262721,001,30,male,Dutch,2024-02-21_19h59.55.055,CategoryRev1_within,2023.2.3,MacIntel,60.24096386,,,,,,,,,,,892.3869,0.9,893.2869,893.2869,894.305,left,0,1.0076,,894.305,895.305,3,8,56,5,1,total,1,images/Ex6.jpg,right,,,,,
,,,,,262721,001,30,male,Dutch,2024-02-21_19h59.55.055,CategoryRev1_within,2023.2.3,MacIntel,60.24096386,,,,,,,,,,,895.3054,1.2,896.5068,896.5068,897.8414,right,0,1.3285,,897.8414,898.8413,3,9,57,1,1,total,1,images/Ex2.jpg,left,,,,,
,,,,,262721,001,30,male,Dutch,2024-02-21_19h59.55.055,CategoryRev1_within,2023.2.3,MacIntel,60.24096386,,,,,,,,,,,898.8415,1.3,900.1429,900.1431,901.5614,left,0,1.4123,,901.5614,902.5614,3,10,58,13,1,total,1,images/Ex6.jpg,right,,,,,
,,,,,262721,001,30,male,Dutch,2024-02-21_19h59.55.055,CategoryRev1_within,2023.2.3,MacIntel,60.24096386,,,,,,,,,,,902.5617,0.9,903.4628,903.4628,904.5639,right,1,1.0922,,904.5639,905.5647,3,11,59,6,1,total,1,images/Ex7.jpg,right,,,,,
,,,,,262721,001,30,male,Dutch,2024-02-21_19h59.55.055,CategoryRev1_within,2023.2.3,MacIntel,60.24096386,,,,,,,,,,,905.565,1.4,906.9651,906.9652,907.7334,left,1,0.7556,,907.7334,908.7332,3,12,60,2,1,total,1,images/Ex3.jpg,left,,,,,
,,,,,262721,001,30,male,Dutch,2024-02-21_19h59.55.055,CategoryRev1_within,2023.2.3,MacIntel,60.24096386,,,,,,,,,,,908.7335,1,909.7338,909.7339,910.7519,left,0,1.006,,910.7519,911.7524,3,13,61,14,1,total,1,images/Ex7.jpg,right,,,,,
,,,,,262721,001,30,male,Dutch,2024-02-21_19h59.55.055,CategoryRev1_within,2023.2.3,MacIntel,60.24096386,,,,,,,,,,,911.7527,1.2,912.9542,912.9542,913.9043,left,1,0.9461,,913.9043,914.906,3,14,62,8,1,total,1,images/Ex1.jpg,left,,,,,
,,,,,262721,001,30,male,Dutch,2024-02-21_19h59.55.055,CategoryRev1_within,2023.2.3,MacIntel,60.24096386,,,,,,,,,,,914.9063,0.7,915.6064,915.6064,917.6077,left,1,1.9995,,917.6078,918.6085,3,15,63,9,1,total,1,images/Ex2.jpg,left,,,,,
,,,,,262721,001,30,male,Dutch,2024-02-21_19h59.55.055,CategoryRev1_within,2023.2.3,MacIntel,60.24096386,,,,,,,,,,,918.6167,1.3,919.9104,919.9104,920.4774,right,1,0.5614,,920.4774,921.4785,4,0,64,5,1,total,1,images/Ex6.jpg,right,,,,,
,,,,,262721,001,30,male,Dutch,2024-02-21_19h59.55.055,CategoryRev1_within,2023.2.3,MacIntel,60.24096386,,,,,,,,,,,921.4789,1.1,922.5786,922.5786,923.3465,right,1,0.758,,923.3465,924.3468,4,1,65,15,1,total,1,images/Ex8.jpg,right,,,,,
,,,,,262721,001,30,male,Dutch,2024-02-21_19h59.55.055,CategoryRev1_within,2023.2.3,MacIntel,60.24096386,,,,,,,,,,,924.347,0.8,925.1486,925.1486,925.949,right,0,0.7881,,925.949,926.949,4,2,66,11,1,total,1,images/Ex4.jpg,left,,,,,
,,,,,262721,001,30,male,Dutch,2024-02-21_19h59.55.055,CategoryRev1_within,2023.2.3,MacIntel,60.24096386,,,,,,,,,,,926.9493,0.8,927.7506,927.7507,928.5349,right,1,0.7776,,928.5349,929.5348,4,3,67,12,1,total,1,images/Ex5.jpg,right,,,,,
,,,,,262721,001,30,male,Dutch,2024-02-21_19h59.55.055,CategoryRev1_within,2023.2.3,MacIntel,60.24096386,,,,,,,,,,,929.5351,0.6,930.1353,930.1353,930.6034,left,1,0.4619,,930.6034,931.6034,4,4,68,8,1,total,1,images/Ex1.jpg,left,,,,,
,,,,,262721,001,30,male,Dutch,2024-02-21_19h59.55.055,CategoryRev1_within,2023.2.3,MacIntel,60.24096386,,,,,,,,,,,931.6037,0.9,932.5046,932.5046,933.5717,left,1,1.0621,,933.5718,934.5731,4,5,69,3,1,total,1,images/Ex4.jpg,left,,,,,
,,,,,262721,001,30,male,Dutch,2024-02-21_19h59.55.055,CategoryRev1_within,2023.2.3,MacIntel,60.24096386,,,,,,,,,,,934.5735,1.2,935.7735,935.7735,936.5243,right,1,0.7483,,936.5243,937.5256,4,6,70,4,1,total,1,images/Ex5.jpg,right,,,,,
,,,,,262721,001,30,male,Dutch,2024-02-21_19h59.55.055,CategoryRev1_within,2023.2.3,MacIntel,60.24096386,,,,,,,,,,,937.5259,1.3,938.827,938.827,939.2939,right,0,0.4554,,939.2939,940.295,4,7,71,0,1,total,1,images/Ex1.jpg,left,,,,,
,,,,,262721,001,30,male,Dutch,2024-02-21_19h59.55.055,CategoryRev1_within,2023.2.3,MacIntel,60.24096386,,,,,,,,,,,940.2953,1.3,941.5958,941.5958,942.8973,right,1,1.2891,,942.8974,943.897,4,8,72,13,1,total,1,images/Ex6.jpg,right,,,,,
,,,,,262721,001,30,male,Dutch,2024-02-21_19h59.55.055,CategoryRev1_within,2023.2.3,MacIntel,60.24096386,,,,,,,,,,,943.8974,0.7,944.5981,944.5981,945.8,left,0,1.1947,,945.8,946.8002,4,9,73,6,1,total,1,images/Ex7.jpg,right,,,,,
,,,,,262721,001,30,male,Dutch,2024-02-21_19h59.55.055,CategoryRev1_within,2023.2.3,MacIntel,60.24096386,,,,,,,,,,,946.8004,0.7,947.5003,947.5003,948.5859,left,1,1.0826,,948.5859,949.5863,4,10,74,1,1,total,1,images/Ex2.jpg,left,,,,,
,,,,,262721,001,30,male,Dutch,2024-02-21_19h59.55.055,CategoryRev1_within,2023.2.3,MacIntel,60.24096386,,,,,,,,,,,949.5867,1.5,951.087,951.087,952.0886,right,1,0.9914,,952.0886,953.0885,4,11,75,14,1,total,1,images/Ex7.jpg,right,,,,,
,,,,,262721,001,30,male,Dutch,2024-02-21_19h59.55.055,CategoryRev1_within,2023.2.3,MacIntel,60.24096386,,,,,,,,,,,953.0888,1.1,954.1894,954.1895,955.274,left,1,1.0728,,955.2741,956.2747,4,12,76,2,1,total,1,images/Ex3.jpg,left,,,,,
,,,,,262721,001,30,male,Dutch,2024-02-21_19h59.55.055,CategoryRev1_within,2023.2.3,MacIntel,60.24096386,,,,,,,,,,,956.275,1.2,957.4767,957.4767,958.2433,right,1,0.755,,958.2433,959.2447,4,13,77,7,1,total,1,images/Ex8.jpg,right,,,,,
,,,,,262721,001,30,male,Dutch,2024-02-21_19h59.55.055,CategoryRev1_within,2023.2.3,MacIntel,60.24096386,,,,,,,,,,,959.245,1,960.245,960.245,961.1968,left,1,0.9389,,961.1968,962.197,4,14,78,9,1,total,1,images/Ex2.jpg,left,,,,,
,,,,,262721,001,30,male,Dutch,2024-02-21_19h59.55.055,CategoryRev1_within,2023.2.3,MacIntel,60.24096386,,,,,,,,,,,962.1973,0.9,963.0972,963.0972,963.8152,left,1,0.7124,,963.8153,964.8158,4,15,79,10,1,total,1,images/Ex3.jpg,left,,,,,
,,,,,262721,001,30,male,Dutch,2024-02-21_19h59.55.055,CategoryRev1_within,2023.2.3,MacIntel,60.24096386,,,,,,,,,,,964.8161,1.3,966.1175,966.1175,966.7173,right,1,0.5889,,966.7173,967.7182,5,0,80,12,1,total,1,images/Ex5.jpg,right,,,,,
,,,,,262721,001,30,male,Dutch,2024-02-21_19h59.55.055,CategoryRev1_within,2023.2.3,MacIntel,60.24096386,,,,,,,,,,,967.7185,1.4,969.1195,969.1195,969.5873,right,0,0.4551,,969.5873,970.5876,5,1,81,8,1,total,1,images/Ex1.jpg,left,,,,,
,,,,,262721,001,30,male,Dutch,2024-02-21_19h59.55.055,CategoryRev1_within,2023.2.3,MacIntel,60.24096386,,,,,,,,,,,970.5879,1.1,971.689,971.6891,972.2554,left,1,0.5653,,972.2554,973.257,5,2,82,2,1,total,1,images/Ex3.jpg,left,,,,,
,,,,,262721,001,30,male,Dutch,2024-02-21_19h59.55.055,CategoryRev1_within,2023.2.3,MacIntel,60.24096386,,,,,,,,,,,973.2573,0.7,973.9574,973.9574,974.7581,left,1,0.7895,,974.7581,975.7593,5,3,83,9,1,total,1,images/Ex2.jpg,left,,,,,
,,,,,262721,001,30,male,Dutch,2024-02-21_19h59.55.055,CategoryRev1_within,2023.2.3,MacIntel,60.24096386,,,,,,,,,,,975.7597,0.9,976.66,976.66,977.2774,left,1,0.605,,977.2775,978.278,5,4,84,1,1,total,1,images/Ex2.jpg,left,,,,,
,,,,,262721,001,30,male,Dutch,2024-02-21_19h59.55.055,CategoryRev1_within,2023.2.3,MacIntel,60.24096386,,,,,,,,,,,978.2783,0.8,979.0781,979.0782,979.7455,right,1,0.662,,979.7455,980.7462,5,5,85,5,1,total,1,images/Ex6.jpg,right,,,,,
,,,,,262721,001,30,male,Dutch,2024-02-21_19h59.55.055,CategoryRev1_within,2023.2.3,MacIntel,60.24096386,,,,,,,,,,,980.7465,1.2,981.9478,981.9479,982.5646,left,1,0.6123,,982.5646,983.566,5,6,86,10,1,total,1,images/Ex3.jpg,left,,,,,
,,,,,262721,001,30,male,Dutch,2024-02-21_19h59.55.055,CategoryRev1_within,2023.2.3,MacIntel,60.24096386,,,,,,,,,,,983.5662,1.4,984.9663,984.9664,985.5839,left,1,0.6092,,985.584,986.5714,5,7,87,0,1,total,1,images/Ex1.jpg,left,,,,,
,,,,,262721,001,30,male,Dutch,2024-02-21_19h59.55.055,CategoryRev1_within,2023.2.3,MacIntel,60.24096386,,,,,,,,,,,986.5717,1.1,987.6686,987.6687,988.3369,right,0,0.6554,,988.3369,989.3367,5,8,88,3,1,total,1,images/Ex4.jpg,left,,,,,
,,,,,262721,001,30,male,Dutch,2024-02-21_19h59.55.055,CategoryRev1_within,2023.2.3,MacIntel,60.24096386,,,,,,,,,,,989.3369,1.3,990.6382,990.6382,991.4725,right,1,0.8325,,991.4725,992.4729,5,9,89,6,1,total,1,images/Ex7.jpg,right,,,,,
,,,,,262721,001,30,male,Dutch,2024-02-21_19h59.55.055,CategoryRev1_within,2023.2.3,MacIntel,60.24096386,,,,,,,,,,,992.4733,1.1,993.5748,993.5748,994.1589,right,1,0.5713,,994.159,995.159,5,10,90,15,1,total,1,images/Ex8.jpg,right,,,,,
,,,,,262721,001,30,male,Dutch,2024-02-21_19h59.55.055,CategoryRev1_within,2023.2.3,MacIntel,60.24096386,,,,,,,,,,,995.1594,1.3,996.4609,996.4609,997.2773,right,1,0.8155,,997.2773,998.2789,5,11,91,14,1,total,1,images/Ex7.jpg,right,,,,,
,,,,,262721,001,30,male,Dutch,2024-02-21_19h59.55.055,CategoryRev1_within,2023.2.3,MacIntel,60.24096386,,,,,,,,,,,998.2792,1.3,999.5794,999.5794,1000.1975,left,1,0.6071,,1000.1975,1001.1974,5,12,92,11,1,total,1,images/Ex4.jpg,left,,,,,
,,,,,262721,001,30,male,Dutch,2024-02-21_19h59.55.055,CategoryRev1_within,2023.2.3,MacIntel,60.24096386,,,,,,,,,,,1001.1977,1.2,1002.3991,1002.3992,1002.8658,right,1,0.4573,,1002.8658,1003.867,5,13,93,13,1,total,1,images/Ex6.jpg,right,,,,,
,,,,,262721,001,30,male,Dutch,2024-02-21_19h59.55.055,CategoryRev1_within,2023.2.3,MacIntel,60.24096386,,,,,,,,,,,1003.8673,1.2,1005.0677,1005.0677,1005.6184,right,1,0.5489,,1005.6184,1006.6191,5,14,94,7,1,total,1,images/Ex8.jpg,right,,,,,
,,,,,262721,001,30,male,Dutch,2024-02-21_19h59.55.055,CategoryRev1_within,2023.2.3,MacIntel,60.24096386,,,,,,,,,,,1006.6195,1.2,1007.8199,1007.8199,1008.3201,right,1,0.4971,,1008.3202,1009.3218,5,15,95,4,1,total,1,images/Ex5.jpg,right,,,,,
,,,,,262721,001,30,male,Dutch,2024-02-21_19h59.55.055,CategoryRev1_within,2023.2.3,MacIntel,60.24096386,,,,,,,,,,,1009.3242,1.3,1010.6221,1010.6221,1011.0402,left,1,0.411,,1011.0402,1012.0401,0,0,0,15,1,total,2,images/Ex8.jpg,left,,,,,
,,,,,262721,001,30,male,Dutch,2024-02-21_19h59.55.055,CategoryRev1_within,2023.2.3,MacIntel,60.24096386,,,,,,,,,,,1012.0404,1.1,1013.1419,1013.1419,1013.8082,right,0,0.6653,,1013.8083,1014.8098,0,1,1,12,1,total,2,images/Ex5.jpg,left,,,,,
,,,,,262721,001,30,male,Dutch,2024-02-21_19h59.55.055,CategoryRev1_within,2023.2.3,MacIntel,60.24096386,,,,,,,,,,,1014.8101,0.9,1015.7104,1015.7104,1016.1945,right,0,0.4716,,1016.1945,1017.1945,0,2,2,5,1,total,2,images/Ex6.jpg,left,,,,,
,,,,,262721,001,30,male,Dutch,2024-02-21_19h59.55.055,CategoryRev1_within,2023.2.3,MacIntel,60.24096386,,,,,,,,,,,1017.1947,1.1,1018.2964,1018.2964,1018.9636,right,0,0.6566,,1018.9636,1019.9644,0,3,3,4,1,total,2,images/Ex5.jpg,left,,,,,
,,,,,262721,001,30,male,Dutch,2024-02-21_19h59.55.055,CategoryRev1_within,2023.2.3,MacIntel,60.24096386,,,,,,,,,,,1019.9647,0.6,1020.5646,1020.5646,1021.3826,right,0,0.8051,,1021.3827,1022.3824,0,4,4,6,1,total,2,images/Ex7.jpg,left,,,,,
,,,,,262721,001,30,male,Dutch,2024-02-21_19h59.55.055,CategoryRev1_within,2023.2.3,MacIntel,60.24096386,,,,,,,,,,,1022.3826,0.9,1023.2841,1023.2841,1024.051,left,0,0.7557,,1024.051,1025.0523,0,5,5,3,1,total,2,images/Ex4.jpg,right,,,,,
,,,,,262721,001,30,male,Dutch,2024-02-21_19h59.55.055,CategoryRev1_within,2023.2.3,MacIntel,60.24096386,,,,,,,,,,,1025.0526,1.4,1026.4526,1026.4527,1027.3044,right,0,0.8406,,1027.3044,1028.305,0,6,6,7,1,total,2,images/Ex8.jpg,left,,,,,
,,,,,262721,001,30,male,Dutch,2024-02-21_19h59.55.055,CategoryRev1_within,2023.2.3,MacIntel,60.24096386,,,,,,,,,,,1028.3054,0.8,1029.1052,1029.1052,1030.14,left,0,1.0234,,1030.14,1031.1402,0,7,7,8,1,total,2,images/Ex1.jpg,right,,,,,
,,,,,262721,001,30,male,Dutch,2024-02-21_19h59.55.055,CategoryRev1_within,2023.2.3,MacIntel,60.24096386,,,,,,,,,,,1031.1404,0.7,1031.8415,1031.8415,1033.1595,left,0,1.3052,,1033.1596,1034.1595,0,8,8,9,1,total,2,images/Ex2.jpg,right,,,,,
,,,,,262721,001,30,male,Dutch,2024-02-21_19h59.55.055,CategoryRev1_within,2023.2.3,MacIntel,60.24096386,,,,,,,,,,,1034.1676,1,1035.1608,1035.1608,1036.329,right,0,1.1631,,1036.329,1037.3297,0,9,9,13,1,total,2,images/Ex6.jpg,left,,,,,
,,,,,262721,001,30,male,Dutch,2024-02-21_19h59.55.055,CategoryRev1_within,2023.2.3,MacIntel,60.24096386,,,,,,,,,,,1037.33,0.6,1037.9297,1037.9297,1038.931,right,1,0.9891,,1038.931,1039.9318,0,10,10,0,1,total,2,images/Ex1.jpg,right,,,,,
,,,,,262721,001,30,male,Dutch,2024-02-21_19h59.55.055,CategoryRev1_within,2023.2.3,MacIntel,60.24096386,,,,,,,,,,,1039.9321,1.4,1041.3326,1041.3326,1042.5502,right,1,1.2169,,1042.5502,1043.5516,0,11,11,11,1,total,2,images/Ex4.jpg,right,,,,,
,,,,,262721,001,30,male,Dutch,2024-02-21_19h59.55.055,CategoryRev1_within,2023.2.3,MacIntel,60.24096386,,,,,,,,,,,1043.5519,1.3,1044.8526,1044.8526,1045.9541,right,1,1.0891,,1045.9542,1046.9543,0,12,12,2,1,total,2,images/Ex3.jpg,right,,,,,
,,,,,262721,001,30,male,Dutch,2024-02-21_19h59.55.055,CategoryRev1_within,2023.2.3,MacIntel,60.24096386,,,,,,,,,,,1046.9546,1.3,1048.2557,1048.2557,1050.1077,left,0,1.8396,,1050.1077,1051.1084,0,13,13,1,1,total,2,images/Ex2.jpg,right,,,,,
,,,,,262721,001,30,male,Dutch,2024-02-21_19h59.55.055,CategoryRev1_within,2023.2.3,MacIntel,60.24096386,,,,,,,,,,,1051.1087,1.4,1052.5086,1052.5086,1053.4605,left,1,0.9464,,1053.4606,1054.4608,0,14,14,14,1,total,2,images/Ex7.jpg,left,,,,,
,,,,,262721,001,30,male,Dutch,2024-02-21_19h59.55.055,CategoryRev1_within,2023.2.3,MacIntel,60.24096386,,,,,,,,,,,1054.461,0.6,1055.0613,1055.0614,1055.729,right,1,0.6583,,1055.729,1056.7301,0,15,15,10,1,total,2,images/Ex3.jpg,right,,,,,
,,,,,262721,001,30,male,Dutch,2024-02-21_19h59.55.055,CategoryRev1_within,2023.2.3,MacIntel,60.24096386,,,,,,,,,,,1056.7304,0.9,1057.6306,1057.6307,1058.5812,right,1,0.9397,,1058.5812,1059.5813,1,0,16,1,1,total,2,images/Ex2.jpg,right,,,,,
,,,,,262721,001,30,male,Dutch,2024-02-21_19h59.55.055,CategoryRev1_within,2023.2.3,MacIntel,60.24096386,,,,,,,,,,,1059.5817,0.9,1060.4831,1060.4831,1061.2333,left,1,0.7423,,1061.2333,1062.2347,1,1,17,7,1,total,2,images/Ex8.jpg,left,,,,,
,,,,,262721,001,30,male,Dutch,2024-02-21_19h59.55.055,CategoryRev1_within,2023.2.3,MacIntel,60.24096386,,,,,,,,,,,1062.2351,0.9,1063.1352,1063.1352,1063.8029,right,0,0.6555,,1063.8029,1064.8034,1,2,18,5,1,total,2,images/Ex6.jpg,left,,,,,
,,,,,262721,001,30,male,Dutch,2024-02-21_19h59.55.055,CategoryRev1_within,2023.2.3,MacIntel,60.24096386,,,,,,,,,,,1064.8037,1.5,1066.3049,1066.3049,1067.2716,left,1,0.9557,,1067.2717,1068.2733,1,3,19,13,1,total,2,images/Ex6.jpg,left,,,,,
,,,,,262721,001,30,male,Dutch,2024-02-21_19h59.55.055,CategoryRev1_within,2023.2.3,MacIntel,60.24096386,,,,,,,,,,,1068.2735,1.1,1069.3731,1069.3732,1070.642,left,1,1.2578,,1070.6421,1071.6429,1,4,20,12,1,total,2,images/Ex5.jpg,left,,,,,
,,,,,262721,001,30,male,Dutch,2024-02-21_19h59.55.055,CategoryRev1_within,2023.2.3,MacIntel,60.24096386,,,,,,,,,,,1071.6433,1.2,1072.8439,1072.8439,1073.5106,right,1,0.6548,,1073.5106,1074.5119,1,5,21,2,1,total,2,images/Ex3.jpg,right,,,,,
,,,,,262721,001,30,male,Dutch,2024-02-21_19h59.55.055,CategoryRev1_within,2023.2.3,MacIntel,60.24096386,,,,,,,,,,,1074.5122,0.5,1075.012,1075.012,1075.8296,left,1,0.8096,,1075.8297,1076.8301,1,6,22,14,1,total,2,images/Ex7.jpg,left,,,,,
,,,,,262721,001,30,male,Dutch,2024-02-21_19h59.55.055,CategoryRev1_within,2023.2.3,MacIntel,60.24096386,,,,,,,,,,,1076.8304,0.7,1077.5307,1077.5308,1078.1482,right,1,0.6156,,1078.1483,1079.1493,1,7,23,9,1,total,2,images/Ex2.jpg,right,,,,,
,,,,,262721,001,30,male,Dutch,2024-02-21_19h59.55.055,CategoryRev1_within,2023.2.3,MacIntel,60.24096386,,,,,,,,,,,1079.1497,1.2,1080.3503,1080.3503,1081.4846,left,0,1.1277,,1081.4847,1082.4855,1,8,24,0,1,total,2,images/Ex1.jpg,right,,,,,
,,,,,262721,001,30,male,Dutch,2024-02-21_19h59.55.055,CategoryRev1_within,2023.2.3,MacIntel,60.24096386,,,,,,,,,,,1082.4858,1.1,1083.5857,1083.5857,1084.2539,right,1,0.6558,,1084.2539,1085.2541,1,9,25,10,1,total,2,images/Ex3.jpg,right,,,,,
,,,,,262721,001,30,male,Dutch,2024-02-21_19h59.55.055,CategoryRev1_within,2023.2.3,MacIntel,60.24096386,,,,,,,,,,,1085.2543,0.9,1086.1549,1086.1549,1086.6229,right,1,0.4553,,1086.6229,1087.6227,1,10,26,8,1,total,2,images/Ex1.jpg,right,,,,,
,,,,,262721,001,30,male,Dutch,2024-02-21_19h59.55.055,CategoryRev1_within,2023.2.3,MacIntel,60.24096386,,,,,,,,,,,1087.6231,1,1088.6241,1088.6241,1089.2584,right,0,0.623,,1089.2584,1090.259,1,11,27,6,1,total,2,images/Ex7.jpg,left,,,,,
,,,,,262721,001,30,male,Dutch,2024-02-21_19h59.55.055,CategoryRev1_within,2023.2.3,MacIntel,60.24096386,,,,,,,,,,,1090.2593,0.7,1090.959,1090.959,1091.5437,right,1,0.5835,,1091.5437,1092.5445,1,12,28,3,1,total,2,images/Ex4.jpg,right,,,,,
,,,,,262721,001,30,male,Dutch,2024-02-21_19h59.55.055,CategoryRev1_within,2023.2.3,MacIntel,60.24096386,,,,,,,,,,,1092.5447,0.8,1093.345,1093.345,1093.9453,right,1,0.5977,,1093.9453,1094.9464,1,13,29,11,1,total,2,images/Ex4.jpg,right,,,,,
,,,,,262721,001,30,male,Dutch,2024-02-21_19h59.55.055,CategoryRev1_within,2023.2.3,MacIntel,60.24096386,,,,,,,,,,,1094.9467,0.8,1095.7472,1095.7472,1096.3813,left,1,0.6256,,1096.3814,1097.3813,1,14,30,4,1,total,2,images/Ex5.jpg,left,,,,,
,,,,,262721,001,30,male,Dutch,2024-02-21_19h59.55.055,CategoryRev1_within,2023.2.3,MacIntel,60.24096386,,,,,,,,,,,1097.3817,1,1098.383,1098.383,1098.8491,right,0,0.465,,1098.8491,1099.8506,1,15,31,15,1,total,2,images/Ex8.jpg,left,,,,,
,,,,,262721,001,30,male,Dutch,2024-02-21_19h59.55.055,CategoryRev1_within,2023.2.3,MacIntel,60.24096386,,,,,,,,,,,1099.8508,0.6,1100.4507,1100.4507,1101.3693,left,1,0.9058,,1101.3693,1102.3696,2,0,32,13,1,total,2,images/Ex6.jpg,left,,,,,
,,,,,262721,001,30,male,Dutch,2024-02-21_19h59.55.055,CategoryRev1_within,2023.2.3,MacIntel,60.24096386,,,,,,,,,,,1102.37,1.1,1103.4697,1103.4697,1104.0537,right,0,0.5724,,1104.0538,1105.0553,2,1,33,15,1,total,2,images/Ex8.jpg,left,,,,,
,,,,,262721,001,30,male,Dutch,2024-02-21_19h59.55.055,CategoryRev1_within,2023.2.3,MacIntel,60.24096386,,,,,,,,,,,1105.0556,0.9,1105.9553,1105.9553,1107.0574,left,1,1.0982,,1107.0574,1108.057,2,2,34,6,1,total,2,images/Ex7.jpg,left,,,,,
,,,,,262721,001,30,male,Dutch,2024-02-21_19h59.55.055,CategoryRev1_within,2023.2.3,MacIntel,60.24096386,,,,,,,,,,,1108.0574,1.2,1109.258,1109.2581,1110.1763,left,1,0.9061,,1110.1763,1111.177,2,3,35,7,1,total,2,images/Ex8.jpg,left,,,,,
,,,,,262721,001,30,male,Dutch,2024-02-21_19h59.55.055,CategoryRev1_within,2023.2.3,MacIntel,60.24096386,,,,,,,,,,,1111.1773,1.4,1112.5776,1112.5777,1112.8457,right,1,0.2556,,1112.8457,1113.8463,2,4,36,9,1,total,2,images/Ex2.jpg,right,,,,,
,,,,,262721,001,30,male,Dutch,2024-02-21_19h59.55.055,CategoryRev1_within,2023.2.3,MacIntel,60.24096386,,,,,,,,,,,1113.8466,1.1,1114.9464,1114.9465,1115.5305,right,1,0.5722,,1115.5306,1116.5318,2,5,37,8,1,total,2,images/Ex1.jpg,right,,,,,
,,,,,262721,001,30,male,Dutch,2024-02-21_19h59.55.055,CategoryRev1_within,2023.2.3,MacIntel,60.24096386,,,,,,,,,,,1116.532,1.3,1117.8332,1117.8332,1118.3506,left,1,0.5045,,1118.3506,1119.3506,2,6,38,5,1,total,2,images/Ex6.jpg,left,,,,,
,,,,,262721,001,30,male,Dutch,2024-02-21_19h59.55.055,CategoryRev1_within,2023.2.3,MacIntel,60.24096386,,,,,,,,,,,1119.3509,0.7,1120.0508,1120.0508,1120.3523,right,1,0.2947,,1120.3524,1121.3522,2,7,39,1,1,total,2,images/Ex2.jpg,right,,,,,
,,,,,262721,001,30,male,Dutch,2024-02-21_19h59.55.055,CategoryRev1_within,2023.2.3,MacIntel,60.24096386,,,,,,,,,,,1121.3524,1.4,1122.7543,1122.7543,1123.3211,right,1,0.5613,,1123.3212,1124.3221,2,8,40,3,1,total,2,images/Ex4.jpg,right,,,,,
,,,,,262721,001,30,male,Dutch,2024-02-21_19h59.55.055,CategoryRev1_within,2023.2.3,MacIntel,60.24096386,,,,,,,,,,,1124.3224,1.4,1125.723,1125.7231,1125.9566,left,0,0.2317,,1125.9566,1126.9573,2,9,41,2,1,total,2,images/Ex3.jpg,right,,,,,
,,,,,262721,001,30,male,Dutch,2024-02-21_19h59.55.055,CategoryRev1_within,2023.2.3,MacIntel,60.24096386,,,,,,,,,,,1126.9575,0.7,1127.6578,1127.6579,1127.9914,right,1,0.3223,,1127.9914,1128.9929,2,10,42,0,1,total,2,images/Ex1.jpg,right,,,,,
,,,,,262721,001,30,male,Dutch,2024-02-21_19h59.55.055,CategoryRev1_within,2023.2.3,MacIntel,60.24096386,,,,,,,,,,,1128.9933,0.8,1129.7933,1129.7933,1130.3941,right,0,0.5889,,1130.3941,1131.3951,2,11,43,14,1,total,2,images/Ex7.jpg,left,,,,,
,,,,,262721,001,30,male,Dutch,2024-02-21_19h59.55.055,CategoryRev1_within,2023.2.3,MacIntel,60.24096386,,,,,,,,,,,1131.3954,1,1132.3953,1132.3953,1133.1963,left,1,0.7903,,1133.1963,1134.1973,2,12,44,12,1,total,2,images/Ex5.jpg,left,,,,,
,,,,,262721,001,30,male,Dutch,2024-02-21_19h59.55.055,CategoryRev1_within,2023.2.3,MacIntel,60.24096386,,,,,,,,,,,1134.1976,0.7,1134.8976,1134.8976,1135.4818,right,1,0.572,,1135.4818,1136.4824,2,13,45,10,1,total,2,images/Ex3.jpg,right,,,,,
,,,,,262721,001,30,male,Dutch,2024-02-21_19h59.55.055,CategoryRev1_within,2023.2.3,MacIntel,60.24096386,,,,,,,,,,,1136.4827,0.5,1136.9833,1136.9833,1137.3671,left,1,0.3724,,1137.3672,1138.3678,2,14,46,4,1,total,2,images/Ex5.jpg,left,,,,,
,,,,,262721,001,30,male,Dutch,2024-02-21_19h59.55.055,CategoryRev1_within,2023.2.3,MacIntel,60.24096386,,,,,,,,,,,1138.3681,0.9,1139.2679,1139.2679,1139.8353,right,1,0.5628,,1139.8353,1140.836,2,15,47,11,1,total,2,images/Ex4.jpg,right,,,,,
,,,,,262721,001,30,male,Dutch,2024-02-21_19h59.55.055,CategoryRev1_within,2023.2.3,MacIntel,60.24096386,,,,,,,,,,,1140.8362,0.7,1141.5373,1141.5373,1142.1203,right,1,0.574,,1142.1204,1143.122,3,0,48,10,1,total,2,images/Ex3.jpg,right,,,,,
,,,,,262721,001,30,male,Dutch,2024-02-21_19h59.55.055,CategoryRev1_within,2023.2.3,MacIntel,60.24096386,,,,,,,,,,,1143.1222,1.4,1144.5222,1144.5222,1145.0905,left,1,0.5589,,1145.0905,1146.0908,3,1,49,12,1,total,2,images/Ex5.jpg,left,,,,,
,,,,,262721,001,30,male,Dutch,2024-02-21_19h59.55.055,CategoryRev1_within,2023.2.3,MacIntel,60.24096386,,,,,,,,,,,1146.0911,0.9,1146.9919,1146.9919,1147.2424,right,0,0.2382,,1147.2424,1148.2424,3,2,50,7,1,total,2,images/Ex8.jpg,left,,,,,
,,,,,262721,001,30,male,Dutch,2024-02-21_19h59.55.055,CategoryRev1_within,2023.2.3,MacIntel,60.24096386,,,,,,,,,,,1148.2427,1.3,1149.5433,1149.5433,1150.1947,right,1,0.6395,,1150.1948,1151.1957,3,3,51,2,1,total,2,images/Ex3.jpg,right,,,,,
,,,,,262721,001,30,male,Dutch,2024-02-21_19h59.55.055,CategoryRev1_within,2023.2.3,MacIntel,60.24096386,,,,,,,,,,,1151.1959,1.3,1152.4966,1152.4967,1152.9967,right,0,0.4903,,1152.9968,1153.9982,3,4,52,4,1,total,2,images/Ex5.jpg,left,,,,,
,,,,,262721,001,30,male,Dutch,2024-02-21_19h59.55.055,CategoryRev1_within,2023.2.3,MacIntel,60.24096386,,,,,,,,,,,1153.9984,0.9,1154.8985,1154.8985,1156.2332,left,1,1.3291,,1156.2332,1157.2342,3,5,53,6,1,total,2,images/Ex7.jpg,left,,,,,
,,,,,262721,001,30,male,Dutch,2024-02-21_19h59.55.055,CategoryRev1_within,2023.2.3,MacIntel,60.24096386,,,,,,,,,,,1157.2346,1.3,1158.5347,1158.5347,1159.2528,right,1,0.7074,,1159.2528,1160.2532,3,6,54,8,1,total,2,images/Ex1.jpg,right,,,,,
,,,,,262721,001,30,male,Dutch,2024-02-21_19h59.55.055,CategoryRev1_within,2023.2.3,MacIntel,60.24096386,,,,,,,,,,,1160.2535,0.9,1161.1544,1161.1545,1161.7551,right,1,0.5936,,1161.7552,1162.7553,3,7,55,3,1,total,2,images/Ex4.jpg,right,,,,,
,,,,,262721,001,30,male,Dutch,2024-02-21_19h59.55.055,CategoryRev1_within,2023.2.3,MacIntel,60.24096386,,,,,,,,,,,1162.7557,1.5,1164.2571,1164.2571,1164.8577,right,1,0.5954,,1164.8577,1165.8577,3,8,56,0,1,total,2,images/Ex1.jpg,right,,,,,
,,,,,262721,001,30,male,Dutch,2024-02-21_19h59.55.055,CategoryRev1_within,2023.2.3,MacIntel,60.24096386,,,,,,,,,,,1165.858,1.1,1166.9594,1166.9595,1168.0934,left,1,1.1331,,1168.0934,1169.0936,3,9,57,15,1,total,2,images/Ex8.jpg,left,,,,,
,,,,,262721,001,30,male,Dutch,2024-02-21_19h59.55.055,CategoryRev1_within,2023.2.3,MacIntel,60.24096386,,,,,,,,,,,1169.094,0.8,1169.8952,1169.8952,1170.9457,left,1,1.0474,,1170.9457,1171.9469,3,10,58,5,1,total,2,images/Ex6.jpg,left,,,,,
,,,,,262721,001,30,male,Dutch,2024-02-21_19h59.55.055,CategoryRev1_within,2023.2.3,MacIntel,60.24096386,,,,,,,,,,,1171.9472,0.9,1172.848,1172.848,1173.4985,right,1,0.6449,,1173.4985,1174.4992,3,11,59,11,1,total,2,images/Ex4.jpg,right,,,,,
,,,,,262721,001,30,male,Dutch,2024-02-21_19h59.55.055,CategoryRev1_within,2023.2.3,MacIntel,60.24096386,,,,,,,,,,,1174.4995,0.9,1175.3996,1175.3996,1176.1003,right,1,0.6893,,1176.1003,1177.1017,3,12,60,1,1,total,2,images/Ex2.jpg,right,,,,,
,,,,,262721,001,30,male,Dutch,2024-02-21_19h59.55.055,CategoryRev1_within,2023.2.3,MacIntel,60.24096386,,,,,,,,,,,1177.102,1,1178.1023,1178.1023,1178.6854,right,0,0.581,,1178.6855,1179.6864,3,13,61,13,1,total,2,images/Ex6.jpg,left,,,,,
,,,,,262721,001,30,male,Dutch,2024-02-21_19h59.55.055,CategoryRev1_within,2023.2.3,MacIntel,60.24096386,,,,,,,,,,,1179.6866,1.5,1181.1885,1181.1885,1182.2727,right,0,1.0799,,1182.2728,1183.2726,3,14,62,14,1,total,2,images/Ex7.jpg,left,,,,,
,,,,,262721,001,30,male,Dutch,2024-02-21_19h59.55.055,CategoryRev1_within,2023.2.3,MacIntel,60.24096386,,,,,,,,,,,1183.2729,1,1184.2745,1184.2745,1184.9414,right,1,0.6641,,1184.9415,1185.9427,3,15,63,9,1,total,2,images/Ex2.jpg,right,,,,,
,,,,,262721,001,30,male,Dutch,2024-02-21_19h59.55.055,CategoryRev1_within,2023.2.3,MacIntel,60.24096386,,,,,,,,,,,1185.943,1.3,1187.2428,1187.2429,1187.511,left,0,0.2621,,1187.511,1188.5109,4,0,64,8,1,total,2,images/Ex1.jpg,right,,,,,
,,,,,262721,001,30,male,Dutch,2024-02-21_19h59.55.055,CategoryRev1_within,2023.2.3,MacIntel,60.24096386,,,,,,,,,,,1188.5111,1,1189.5124,1189.5124,1190.5803,right,1,1.0556,,1190.5803,1191.5809,4,1,65,1,1,total,2,images/Ex2.jpg,right,,,,,
,,,,,262721,001,30,male,Dutch,2024-02-21_19h59.55.055,CategoryRev1_within,2023.2.3,MacIntel,60.24096386,,,,,,,,,,,1191.5813,0.7,1192.2806,1192.2806,1193.0992,right,0,0.8056,,1193.0992,1194.0989,4,2,66,15,1,total,2,images/Ex8.jpg,left,,,,,
,,,,,262721,001,30,male,Dutch,2024-02-21_19h59.55.055,CategoryRev1_within,2023.2.3,MacIntel,60.24096386,,,,,,,,,,,1194.0993,1.3,1195.4009,1195.4009,1196.5178,left,1,1.1055,,1196.5178,1197.5186,4,3,67,14,1,total,2,images/Ex7.jpg,left,,,,,
,,,,,262721,001,30,male,Dutch,2024-02-21_19h59.55.055,CategoryRev1_within,2023.2.3,MacIntel,60.24096386,,,,,,,,,,,1197.5188,1,1198.5195,1198.5195,1199.1534,right,0,0.6253,,1199.1534,1200.1547,4,4,68,12,1,total,2,images/Ex5.jpg,left,,,,,
,,,,,262721,001,30,male,Dutch,2024-02-21_19h59.55.055,CategoryRev1_within,2023.2.3,MacIntel,60.24096386,,,,,,,,,,,1200.155,1.4,1201.5556,1201.5557,1202.5574,left,1,0.9944,,1202.5574,1203.5575,4,5,69,13,1,total,2,images/Ex6.jpg,left,,,,,
,,,,,262721,001,30,male,Dutch,2024-02-21_19h59.55.055,CategoryRev1_within,2023.2.3,MacIntel,60.24096386,,,,,,,,,,,1203.5578,0.7,1204.2579,1204.2579,1204.8416,left,1,0.5726,,1204.8416,1205.8434,4,6,70,5,1,total,2,images/Ex6.jpg,left,,,,,
,,,,,262721,001,30,male,Dutch,2024-02-21_19h59.55.055,CategoryRev1_within,2023.2.3,MacIntel,60.24096386,,,,,,,,,,,1205.8437,0.9,1206.744,1206.7441,1207.4941,right,1,0.7413,,1207.4942,1208.4947,4,7,71,2,1,total,2,images/Ex3.jpg,right,,,,,
,,,,,262721,001,30,male,Dutch,2024-02-21_19h59.55.055,CategoryRev1_within,2023.2.3,MacIntel,60.24096386,,,,,,,,,,,1208.4949,0.7,1209.1962,1209.1962,1210.2304,right,1,1.0221,,1210.2304,1211.2314,4,8,72,9,1,total,2,images/Ex2.jpg,right,,,,,
,,,,,262721,001,30,male,Dutch,2024-02-21_19h59.55.055,CategoryRev1_within,2023.2.3,MacIntel,60.24096386,,,,,,,,,,,1211.2317,1.1,1212.3324,1212.3324,1212.9497,right,1,0.6133,,1212.9497,1213.9503,4,9,73,10,1,total,2,images/Ex3.jpg,right,,,,,
,,,,,262721,001,30,male,Dutch,2024-02-21_19h59.55.055,CategoryRev1_within,2023.2.3,MacIntel,60.24096386,,,,,,,,,,,1213.9506,1.4,1215.3517,1215.3517,1216.3528,right,1,0.9886,,1216.3528,1217.3526,4,10,74,11,1,total,2,images/Ex4.jpg,right,,,,,
,,,,,262721,001,30,male,Dutch,2024-02-21_19h59.55.055,CategoryRev1_within,2023.2.3,MacIntel,60.24096386,,,,,,,,,,,1217.353,0.8,1218.1539,1218.154,1218.7874,left,1,0.6279,,1218.7874,1219.7888,4,11,75,4,1,total,2,images/Ex5.jpg,left,,,,,
,,,,,262721,001,30,male,Dutch,2024-02-21_19h59.55.055,CategoryRev1_within,2023.2.3,MacIntel,60.24096386,,,,,,,,,,,1219.7891,1.1,1220.8888,1220.8889,1221.4731,right,0,0.5781,,1221.4731,1222.4745,4,12,76,6,1,total,2,images/Ex7.jpg,left,,,,,
,,,,,262721,001,30,male,Dutch,2024-02-21_19h59.55.055,CategoryRev1_within,2023.2.3,MacIntel,60.24096386,,,,,,,,,,,1222.4749,1.2,1223.675,1223.675,1224.5093,right,0,0.822,,1224.5093,1225.5106,4,13,77,7,1,total,2,images/Ex8.jpg,left,,,,,
,,,,,262721,001,30,male,Dutch,2024-02-21_19h59.55.055,CategoryRev1_within,2023.2.3,MacIntel,60.24096386,,,,,,,,,,,1225.5108,0.8,1226.3112,1226.3112,1227.5454,right,1,1.2304,,1227.5455,1228.5464,4,14,78,0,1,total,2,images/Ex1.jpg,right,,,,,
,,,,,262721,001,30,male,Dutch,2024-02-21_19h59.55.055,CategoryRev1_within,2023.2.3,MacIntel,60.24096386,,,,,,,,,,,1228.5467,1,1229.5466,1229.5466,1230.2645,right,1,0.7112,,1230.2646,1231.2654,4,15,79,3,1,total,2,images/Ex4.jpg,right,,,,,
,,,,,262721,001,30,male,Dutch,2024-02-21_19h59.55.055,CategoryRev1_within,2023.2.3,MacIntel,60.24096386,,,,,,,,,,,1231.2658,1.5,1232.7668,1232.7668,1233.551,right,1,0.7753,,1233.551,1234.5518,5,0,80,2,1,total,2,images/Ex3.jpg,right,,,,,
,,,,,262721,001,30,male,Dutch,2024-02-21_19h59.55.055,CategoryRev1_within,2023.2.3,MacIntel,60.24096386,,,,,,,,,,,1234.5521,1,1235.5524,1235.5524,1236.0532,right,0,0.4949,,1236.0532,1237.0531,5,1,81,7,1,total,2,images/Ex8.jpg,left,,,,,
,,,,,262721,001,30,male,Dutch,2024-02-21_19h59.55.055,CategoryRev1_within,2023.2.3,MacIntel,60.24096386,,,,,,,,,,,1237.0534,0.6,1237.654,1237.6541,1238.3881,right,1,0.7217,,1238.3881,1239.3892,5,2,82,0,1,total,2,images/Ex1.jpg,right,,,,,
,,,,,262721,001,30,male,Dutch,2024-02-21_19h59.55.055,CategoryRev1_within,2023.2.3,MacIntel,60.24096386,,,,,,,,,,,1239.3895,0.8,1240.1899,1240.1899,1240.9238,right,1,0.7225,,1240.9239,1241.9241,5,3,83,11,1,total,2,images/Ex4.jpg,right,,,,,
,,,,,262721,001,30,male,Dutch,2024-02-21_19h59.55.055,CategoryRev1_within,2023.2.3,MacIntel,60.24096386,,,,,,,,,,,1241.9245,1.3,1243.2259,1243.226,1243.9924,left,1,0.7568,,1243.9924,1244.9943,5,4,84,6,1,total,2,images/Ex7.jpg,left,,,,,
,,,,,262721,001,30,male,Dutch,2024-02-21_19h59.55.055,CategoryRev1_within,2023.2.3,MacIntel,60.24096386,,,,,,,,,,,1244.9945,1.4,1246.3956,1246.3956,1246.8955,right,1,0.4972,,1246.8955,1247.8965,5,5,85,3,1,total,2,images/Ex4.jpg,right,,,,,
,,,,,262721,001,30,male,Dutch,2024-02-21_19h59.55.055,CategoryRev1_within,2023.2.3,MacIntel,60.24096386,,,,,,,,,,,1247.8968,0.7,1248.5966,1248.5966,1249.0146,left,1,0.4117,,1249.0146,1250.0145,5,6,86,15,1,total,2,images/Ex8.jpg,left,,,,,
,,,,,262721,001,30,male,Dutch,2024-02-21_19h59.55.055,CategoryRev1_within,2023.2.3,MacIntel,60.24096386,,,,,,,,,,,1250.0147,0.7,1250.7159,1250.7159,1251.6494,left,1,0.9323,,1251.6494,1252.6508,5,7,87,12,1,total,2,images/Ex5.jpg,left,,,,,
,,,,,262721,001,30,male,Dutch,2024-02-21_19h59.55.055,CategoryRev1_within,2023.2.3,MacIntel,60.24096386,,,,,,,,,,,1252.6511,1.3,1253.951,1253.951,1254.4523,right,1,0.4888,,1254.4523,1255.4527,5,8,88,10,1,total,2,images/Ex3.jpg,right,,,,,
,,,,,262721,001,30,male,Dutch,2024-02-21_19h59.55.055,CategoryRev1_within,2023.2.3,MacIntel,60.24096386,,,,,,,,,,,1255.453,0.6,1256.053,1256.0531,1256.5542,right,0,0.5004,,1256.5542,1257.5547,5,9,89,13,1,total,2,images/Ex6.jpg,left,,,,,
,,,,,262721,001,30,male,Dutch,2024-02-21_19h59.55.055,CategoryRev1_within,2023.2.3,MacIntel,60.24096386,,,,,,,,,,,1257.555,0.6,1258.1552,1258.1552,1258.7054,right,1,0.5441,,1258.7054,1259.7069,5,10,90,1,1,total,2,images/Ex2.jpg,right,,,,,
,,,,,262721,001,30,male,Dutch,2024-02-21_19h59.55.055,CategoryRev1_within,2023.2.3,MacIntel,60.24096386,,,,,,,,,,,1259.7072,1.3,1261.0073,1261.0074,1261.4422,left,1,0.4228,,1261.4423,1262.4427,5,11,91,5,1,total,2,images/Ex6.jpg,left,,,,,
,,,,,262721,001,30,male,Dutch,2024-02-21_19h59.55.055,CategoryRev1_within,2023.2.3,MacIntel,60.24096386,,,,,,,,,,,1262.443,1,1263.4431,1263.4431,1263.9937,right,0,0.539,,1263.9937,1264.9948,5,12,92,14,1,total,2,images/Ex7.jpg,left,,,,,
,,,,,262721,001,30,male,Dutch,2024-02-21_19h59.55.055,CategoryRev1_within,2023.2.3,MacIntel,60.24096386,,,,,,,,,,,1264.9951,1,1265.9956,1265.9956,1266.9637,left,0,0.956,,1266.9637,1267.9632,5,13,93,9,1,total,2,images/Ex2.jpg,right,,,,,
,,,,,262721,001,30,male,Dutch,2024-02-21_19h59.55.055,CategoryRev1_within,2023.2.3,MacIntel,60.24096386,,,,,,,,,,,1267.9635,0.8,1268.7642,1268.7642,1269.8493,left,1,1.0801,,1269.8493,1270.8498,5,14,94,4,1,total,2,images/Ex5.jpg,left,,,,,
,,,,,262721,001,30,male,Dutch,2024-02-21_19h59.55.055,CategoryRev1_within,2023.2.3,MacIntel,60.24096386,,,,,,,,,,,1270.8502,1.2,1272.0512,1272.0512,1272.8013,right,1,0.7483,,1272.8014,1273.8021,5,15,95,8,1,total,2,images/Ex1.jpg,right,,,,,
,,,,,262721,001,30,male,Dutch,2024-02-21_19h59.55.055,CategoryRev1_within,2023.2.3,MacIntel,60.24096386,,,,,,,,,,,,,,,,,,,,,,,,,,,,,,,1273.8025,1280.4081,space,6.5913,