"partId","PROLIFIC_PID","gender","nationality","education","date","task","trial","left","right","rating","rt"
"parID_1","56d6224aebdf10000c68538b","Male","UK","Masters","2024-11-07_15h03.59.789","9_to_16",1,"Ex12","Ex13",3.00511323,5.1318
"parID_1","56d6224aebdf10000c68538b","Male","UK","Masters","2024-11-07_15h03.59.789","9_to_16",2,"Ex10","Ex13",3.019904822,4.0829
"parID_1","56d6224aebdf10000c68538b","Male","UK","Masters","2024-11-07_15h03.59.789","9_to_16",3,"Ex10","Ex11",3.019904822,2.0977
"parID_1","56d6224aebdf10000c68538b","Male","UK","Masters","2024-11-07_15h03.59.789","9_to_16",4,"Ex15","Ex9",3.019904822,2.6479
"parID_1","56d6224aebdf10000c68538b","Male","UK","Masters","2024-11-07_15h03.59.789","9_to_16",5,"Ex11","Ex14",6.984112216,2.6653
"parID_1","56d6224aebdf10000c68538b","Male","UK","Masters","2024-11-07_15h03.59.789","9_to_16",6,"Ex11","Ex13",3.991234453,2.6825
"parID_1","56d6224aebdf10000c68538b","Male","UK","Masters","2024-11-07_15h03.59.789","9_to_16",7,"Ex16","Ex14",4.010956953,5.1504
"parID_1","56d6224aebdf10000c68538b","Male","UK","Masters","2024-11-07_15h03.59.789","9_to_16",8,"Ex16","Ex12",5.973337962,2.6643
"parID_1","56d6224aebdf10000c68538b","Male","UK","Masters","2024-11-07_15h03.59.789","9_to_16",9,"Ex13","Ex16",1.989408445,3.8322
"parID_1","56d6224aebdf10000c68538b","Male","UK","Masters","2024-11-07_15h03.59.789","9_to_16",10,"Ex10","Ex16",1.989408445,3.4148
"parID_1","56d6224aebdf10000c68538b","Male","UK","Masters","2024-11-07_15h03.59.789","9_to_16",11,"Ex9","Ex16",1.989408445,2.4481
"parID_1","56d6224aebdf10000c68538b","Male","UK","Masters","2024-11-07_15h03.59.789","9_to_16",12,"Ex14","Ex13",2.98539073,2.7312
"parID_1","56d6224aebdf10000c68538b","Male","UK","Masters","2024-11-07_15h03.59.789","9_to_16",13,"Ex14","Ex11",6.007852054,2.381
"parID_1","56d6224aebdf10000c68538b","Male","UK","Masters","2024-11-07_15h03.59.789","9_to_16",14,"Ex15","Ex11",6.984112216,2.5646
"parID_1","56d6224aebdf10000c68538b","Male","UK","Masters","2024-11-07_15h03.59.789","9_to_16",15,"Ex14","Ex12",6.022644023,2.9154
"parID_1","56d6224aebdf10000c68538b","Male","UK","Masters","2024-11-07_15h03.59.789","9_to_16",16,"Ex11","Ex9",5.993060838,2.9988
"parID_1","56d6224aebdf10000c68538b","Male","UK","Masters","2024-11-07_15h03.59.789","9_to_16",17,"Ex16","Ex11",5.993060838,1.8972
"parID_1","56d6224aebdf10000c68538b","Male","UK","Masters","2024-11-07_15h03.59.789","9_to_16",18,"Ex12","Ex10",4.035609984,3.6329
"parID_1","56d6224aebdf10000c68538b","Male","UK","Masters","2024-11-07_15h03.59.789","9_to_16",19,"Ex9","Ex15",4.977355677,2.8666
"parID_1","56d6224aebdf10000c68538b","Male","UK","Masters","2024-11-07_15h03.59.789","9_to_16",20,"Ex14","Ex10",7.999817377,2.714
"parID_1","56d6224aebdf10000c68538b","Male","UK","Masters","2024-11-07_15h03.59.789","9_to_16",21,"Ex15","Ex16",4.962563708,2.6017
"parID_1","56d6224aebdf10000c68538b","Male","UK","Masters","2024-11-07_15h03.59.789","9_to_16",22,"Ex12","Ex15",5.928962808,3.0008
"parID_1","56d6224aebdf10000c68538b","Male","UK","Masters","2024-11-07_15h03.59.789","9_to_16",23,"Ex9","Ex12",6.984112216,2.2478
"parID_1","56d6224aebdf10000c68538b","Male","UK","Masters","2024-11-07_15h03.59.789","9_to_16",24,"Ex11","Ex15",8.049123438,2.431
"parID_1","56d6224aebdf10000c68538b","Male","UK","Masters","2024-11-07_15h03.59.789","9_to_16",25,"Ex12","Ex16",7.038349184,4.1157
"parID_1","56d6224aebdf10000c68538b","Male","UK","Masters","2024-11-07_15h03.59.789","9_to_16",26,"Ex15","Ex12",5.006939238,2.698
"parID_1","56d6224aebdf10000c68538b","Male","UK","Masters","2024-11-07_15h03.59.789","9_to_16",27,"Ex10","Ex14",6.989043123,2.2978
"parID_1","56d6224aebdf10000c68538b","Male","UK","Masters","2024-11-07_15h03.59.789","9_to_16",28,"Ex11","Ex12",6.017713869,2.5181
"parID_1","56d6224aebdf10000c68538b","Male","UK","Masters","2024-11-07_15h03.59.789","9_to_16",29,"Ex12","Ex14",6.993973278,3.9988
"parID_1","56d6224aebdf10000c68538b","Male","UK","Masters","2024-11-07_15h03.59.789","9_to_16",30,"Ex14","Ex15",5.006939238,3.8655
"parID_1","56d6224aebdf10000c68538b","Male","UK","Masters","2024-11-07_15h03.59.789","9_to_16",31,"Ex12","Ex11",4.035609984,5.0166
"parID_1","56d6224aebdf10000c68538b","Male","UK","Masters","2024-11-07_15h03.59.789","9_to_16",32,"Ex9","Ex13",4.035609984,3.0211
"parID_1","56d6224aebdf10000c68538b","Male","UK","Masters","2024-11-07_15h03.59.789","9_to_16",33,"Ex11","Ex10",3.922205892,2.3812
"parID_1","56d6224aebdf10000c68538b","Male","UK","Masters","2024-11-07_15h03.59.789","9_to_16",34,"Ex9","Ex14",5.056245299,2.4981
"parID_1","56d6224aebdf10000c68538b","Male","UK","Masters","2024-11-07_15h03.59.789","9_to_16",35,"Ex15","Ex13",3.019904822,2.3142
"parID_1","56d6224aebdf10000c68538b","Male","UK","Masters","2024-11-07_15h03.59.789","9_to_16",36,"Ex16","Ex10",4.015887484,2.9316
"parID_1","56d6224aebdf10000c68538b","Male","UK","Masters","2024-11-07_15h03.59.789","9_to_16",37,"Ex9","Ex10",4.006026046,2.7148
"parID_1","56d6224aebdf10000c68538b","Male","UK","Masters","2024-11-07_15h03.59.789","9_to_16",38,"Ex16","Ex13",2.033783599,3.9501
"parID_1","56d6224aebdf10000c68538b","Male","UK","Masters","2024-11-07_15h03.59.789","9_to_16",39,"Ex13","Ex14",3.02483573,2.3658
"parID_1","56d6224aebdf10000c68538b","Male","UK","Masters","2024-11-07_15h03.59.789","9_to_16",40,"Ex13","Ex12",2.98539073,2.2823
"parID_1","56d6224aebdf10000c68538b","Male","UK","Masters","2024-11-07_15h03.59.789","9_to_16",41,"Ex16","Ex9",4.015887484,2.4643
"parID_1","56d6224aebdf10000c68538b","Male","UK","Masters","2024-11-07_15h03.59.789","9_to_16",42,"Ex13","Ex11",1.999269507,2.1522
"parID_1","56d6224aebdf10000c68538b","Male","UK","Masters","2024-11-07_15h03.59.789","9_to_16",43,"Ex10","Ex15",4.957633177,3.3984
"parID_1","56d6224aebdf10000c68538b","Male","UK","Masters","2024-11-07_15h03.59.789","9_to_16",44,"Ex10","Ex12",4.050401576,4.0202
"parID_1","56d6224aebdf10000c68538b","Male","UK","Masters","2024-11-07_15h03.59.789","9_to_16",45,"Ex12","Ex9",5.0365228,2.0977
"parID_1","56d6224aebdf10000c68538b","Male","UK","Masters","2024-11-07_15h03.59.789","9_to_16",46,"Ex9","Ex11",4.972425146,2.1313
"parID_1","56d6224aebdf10000c68538b","Male","UK","Masters","2024-11-07_15h03.59.789","9_to_16",47,"Ex13","Ex15",2.014061475,2.4502
"parID_1","56d6224aebdf10000c68538b","Male","UK","Masters","2024-11-07_15h03.59.789","9_to_16",48,"Ex15","Ex14",5.948684932,2.6819
"parID_1","56d6224aebdf10000c68538b","Male","UK","Masters","2024-11-07_15h03.59.789","9_to_16",49,"Ex11","Ex16",6.047297054,2.3815
"parID_1","56d6224aebdf10000c68538b","Male","UK","Masters","2024-11-07_15h03.59.789","9_to_16",50,"Ex15","Ex10",5.041453331,2.3655
"parID_1","56d6224aebdf10000c68538b","Male","UK","Masters","2024-11-07_15h03.59.789","9_to_16",51,"Ex10","Ex9",3.976442485,2.4495
"parID_1","56d6224aebdf10000c68538b","Male","UK","Masters","2024-11-07_15h03.59.789","9_to_16",52,"Ex14","Ex9",3.981373015,3.2669
"parID_1","56d6224aebdf10000c68538b","Male","UK","Masters","2024-11-07_15h03.59.789","9_to_16",53,"Ex13","Ex10",2.078159129,2.4321
"parID_1","56d6224aebdf10000c68538b","Male","UK","Masters","2024-11-07_15h03.59.789","9_to_16",54,"Ex13","Ex9",4.040540515,3.1664
"parID_1","56d6224aebdf10000c68538b","Male","UK","Masters","2024-11-07_15h03.59.789","9_to_16",55,"Ex14","Ex16",6.993973278,3.3652
"parID_1","56d6224aebdf10000c68538b","Male","UK","Masters","2024-11-07_15h03.59.789","1_to_8",1,"Ex5","Ex2",2.9607377,5.0495
"parID_1","56d6224aebdf10000c68538b","Male","UK","Masters","2024-11-07_15h03.59.789","1_to_8",2,"Ex7","Ex1",4.952702646,3.0315
"parID_1","56d6224aebdf10000c68538b","Male","UK","Masters","2024-11-07_15h03.59.789","1_to_8",3,"Ex4","Ex6",7.940650254,2.7648
"parID_1","56d6224aebdf10000c68538b","Male","UK","Masters","2024-11-07_15h03.59.789","1_to_8",4,"Ex5","Ex1",2.970598761,2.6646
"parID_1","56d6224aebdf10000c68538b","Male","UK","Masters","2024-11-07_15h03.59.789","1_to_8",5,"Ex4","Ex3",6.012782962,3.3148
"parID_1","56d6224aebdf10000c68538b","Male","UK","Masters","2024-11-07_15h03.59.789","1_to_8",6,"Ex4","Ex7",6.012782962,3.7988
"parID_1","56d6224aebdf10000c68538b","Male","UK","Masters","2024-11-07_15h03.59.789","1_to_8",7,"Ex6","Ex1",5.988129931,3.0817
"parID_1","56d6224aebdf10000c68538b","Male","UK","Masters","2024-11-07_15h03.59.789","1_to_8",8,"Ex1","Ex8",3.991234453,3.3318
"parID_1","56d6224aebdf10000c68538b","Male","UK","Masters","2024-11-07_15h03.59.789","1_to_8",9,"Ex8","Ex6",5.006939238,2.3475
"parID_1","56d6224aebdf10000c68538b","Male","UK","Masters","2024-11-07_15h03.59.789","1_to_8",10,"Ex6","Ex8",5.006939238,2.5478
"parID_1","56d6224aebdf10000c68538b","Male","UK","Masters","2024-11-07_15h03.59.789","1_to_8",11,"Ex4","Ex2",7.013696154,2.5337
"parID_1","56d6224aebdf10000c68538b","Male","UK","Masters","2024-11-07_15h03.59.789","1_to_8",12,"Ex5","Ex6",5.9634769,2.3476
"parID_1","56d6224aebdf10000c68538b","Male","UK","Masters","2024-11-07_15h03.59.789","1_to_8",13,"Ex2","Ex7",4.982286208,3.3331
"parID_1","56d6224aebdf10000c68538b","Male","UK","Masters","2024-11-07_15h03.59.789","1_to_8",14,"Ex3","Ex2",2.955807169,2.7477
"parID_1","56d6224aebdf10000c68538b","Male","UK","Masters","2024-11-07_15h03.59.789","1_to_8",15,"Ex7","Ex2",2.955807169,1.7139
"parID_1","56d6224aebdf10000c68538b","Male","UK","Masters","2024-11-07_15h03.59.789","1_to_8",16,"Ex5","Ex4",7.003835092,4.1826
"parID_1","56d6224aebdf10000c68538b","Male","UK","Masters","2024-11-07_15h03.59.789","1_to_8",17,"Ex1","Ex3",6.964390093,2.4477
"parID_1","56d6224aebdf10000c68538b","Male","UK","Masters","2024-11-07_15h03.59.789","1_to_8",18,"Ex7","Ex5",8.039262377,2.6993
"parID_1","56d6224aebdf10000c68538b","Male","UK","Masters","2024-11-07_15h03.59.789","1_to_8",19,"Ex1","Ex5",3.00511323,2.4812
"parID_1","56d6224aebdf10000c68538b","Male","UK","Masters","2024-11-07_15h03.59.789","1_to_8",20,"Ex2","Ex6",6.993973278,2.2809
"parID_1","56d6224aebdf10000c68538b","Male","UK","Masters","2024-11-07_15h03.59.789","1_to_8",21,"Ex7","Ex8",5.006939238,2.7646
"parID_1","56d6224aebdf10000c68538b","Male","UK","Masters","2024-11-07_15h03.59.789","1_to_8",22,"Ex7","Ex6",7.058071308,2.9983
"parID_1","56d6224aebdf10000c68538b","Male","UK","Masters","2024-11-07_15h03.59.789","1_to_8",23,"Ex2","Ex8",3.00511323,2.5804
"parID_1","56d6224aebdf10000c68538b","Male","UK","Masters","2024-11-07_15h03.59.789","1_to_8",24,"Ex8","Ex5",7.023557216,2.581
"parID_1","56d6224aebdf10000c68538b","Male","UK","Masters","2024-11-07_15h03.59.789","1_to_8",25,"Ex2","Ex5",5.993060838,2.7815
"parID_1","56d6224aebdf10000c68538b","Male","UK","Masters","2024-11-07_15h03.59.789","1_to_8",26,"Ex7","Ex3",7.003835092,3.0649
"parID_1","56d6224aebdf10000c68538b","Male","UK","Masters","2024-11-07_15h03.59.789","1_to_8",27,"Ex5","Ex3",5.978268869,3.7988
"parID_1","56d6224aebdf10000c68538b","Male","UK","Masters","2024-11-07_15h03.59.789","1_to_8",28,"Ex3","Ex5",6.969320247,3.7321
"parID_1","56d6224aebdf10000c68538b","Male","UK","Masters","2024-11-07_15h03.59.789","1_to_8",29,"Ex1","Ex7",6.969320247,2.1974
"parID_1","56d6224aebdf10000c68538b","Male","UK","Masters","2024-11-07_15h03.59.789","1_to_8",30,"Ex7","Ex4",6.969320247,2.0641
"parID_1","56d6224aebdf10000c68538b","Male","UK","Masters","2024-11-07_15h03.59.789","1_to_8",31,"Ex3","Ex6",7.989956316,3.2659
"parID_1","56d6224aebdf10000c68538b","Male","UK","Masters","2024-11-07_15h03.59.789","1_to_8",32,"Ex4","Ex5",7.989956316,2.0812
"parID_1","56d6224aebdf10000c68538b","Male","UK","Masters","2024-11-07_15h03.59.789","1_to_8",33,"Ex2","Ex4",5.993060838,3.7655
"parID_1","56d6224aebdf10000c68538b","Male","UK","Masters","2024-11-07_15h03.59.789","1_to_8",34,"Ex2","Ex1",4.035609984,5.0331
"parID_1","56d6224aebdf10000c68538b","Male","UK","Masters","2024-11-07_15h03.59.789","1_to_8",35,"Ex8","Ex1",6.949598124,3.2984
"parID_1","56d6224aebdf10000c68538b","Male","UK","Masters","2024-11-07_15h03.59.789","1_to_8",36,"Ex8","Ex4",6.949598124,2.1834
"parID_1","56d6224aebdf10000c68538b","Male","UK","Masters","2024-11-07_15h03.59.789","1_to_8",37,"Ex6","Ex5",6.007852054,2.5643
"parID_1","56d6224aebdf10000c68538b","Male","UK","Masters","2024-11-07_15h03.59.789","1_to_8",38,"Ex3","Ex7",7.033418277,3.432
"parID_1","56d6224aebdf10000c68538b","Male","UK","Masters","2024-11-07_15h03.59.789","1_to_8",39,"Ex1","Ex4",6.02757493,2.3146
"parID_1","56d6224aebdf10000c68538b","Male","UK","Masters","2024-11-07_15h03.59.789","1_to_8",40,"Ex8","Ex2",4.957633177,2.7275
"parID_1","56d6224aebdf10000c68538b","Male","UK","Masters","2024-11-07_15h03.59.789","1_to_8",41,"Ex8","Ex3",4.967494239,3.2308
"parID_1","56d6224aebdf10000c68538b","Male","UK","Masters","2024-11-07_15h03.59.789","1_to_8",42,"Ex6","Ex3",6.0029219,2.7323
"parID_1","56d6224aebdf10000c68538b","Male","UK","Masters","2024-11-07_15h03.59.789","1_to_8",43,"Ex5","Ex8",6.959459186,2.2643
"parID_1","56d6224aebdf10000c68538b","Male","UK","Masters","2024-11-07_15h03.59.789","1_to_8",44,"Ex1","Ex6",6.964390093,3.0157
"parID_1","56d6224aebdf10000c68538b","Male","UK","Masters","2024-11-07_15h03.59.789","1_to_8",45,"Ex3","Ex8",6.929876,3.2483
"parID_1","56d6224aebdf10000c68538b","Male","UK","Masters","2024-11-07_15h03.59.789","1_to_8",46,"Ex6","Ex2",6.979182061,2.1644
"parID_1","56d6224aebdf10000c68538b","Male","UK","Masters","2024-11-07_15h03.59.789","1_to_8",47,"Ex4","Ex1",6.022644023,3.1492
"parID_1","56d6224aebdf10000c68538b","Male","UK","Masters","2024-11-07_15h03.59.789","1_to_8",48,"Ex3","Ex4",2.96566823,2.5811
"parID_1","56d6224aebdf10000c68538b","Male","UK","Masters","2024-11-07_15h03.59.789","1_to_8",49,"Ex6","Ex4",6.979182061,2.7844
"parID_1","56d6224aebdf10000c68538b","Male","UK","Masters","2024-11-07_15h03.59.789","1_to_8",50,"Ex2","Ex3",4.030679077,3.0647
"parID_1","56d6224aebdf10000c68538b","Male","UK","Masters","2024-11-07_15h03.59.789","1_to_8",51,"Ex1","Ex2",4.030679077,1.714
"parID_1","56d6224aebdf10000c68538b","Male","UK","Masters","2024-11-07_15h03.59.789","1_to_8",52,"Ex5","Ex7",7.275018429,3.5152
"parID_1","56d6224aebdf10000c68538b","Male","UK","Masters","2024-11-07_15h03.59.789","1_to_8",53,"Ex3","Ex1",6.042366899,3.8656
"parID_1","56d6224aebdf10000c68538b","Male","UK","Masters","2024-11-07_15h03.59.789","1_to_8",54,"Ex4","Ex8",6.984112216,1.9809
"parID_1","56d6224aebdf10000c68538b","Male","UK","Masters","2024-11-07_15h03.59.789","1_to_8",55,"Ex6","Ex7",6.949598124,2.5997
"parID_2","5f5668cf2db7050961fce434","FALSE","UK","Level 3","2024-11-07_15h05.43.750","1_to_8",1,"Ex8","Ex6",7,6.8651
"parID_2","5f5668cf2db7050961fce434","FALSE","UK","Level 3","2024-11-07_15h05.43.750","1_to_8",2,"Ex4","Ex5",5.9921875,7.5543
"parID_2","5f5668cf2db7050961fce434","FALSE","UK","Level 3","2024-11-07_15h05.43.750","1_to_8",3,"Ex1","Ex7",5.9453125,5.0717
"parID_2","5f5668cf2db7050961fce434","FALSE","UK","Level 3","2024-11-07_15h05.43.750","1_to_8",4,"Ex6","Ex2",7.94921875,3.0472
"parID_2","5f5668cf2db7050961fce434","FALSE","UK","Level 3","2024-11-07_15h05.43.750","1_to_8",5,"Ex3","Ex7",6.00390625,7.1596
"parID_2","5f5668cf2db7050961fce434","FALSE","UK","Level 3","2024-11-07_15h05.43.750","1_to_8",6,"Ex6","Ex7",4.97265625,4.1194
"parID_2","5f5668cf2db7050961fce434","FALSE","UK","Level 3","2024-11-07_15h05.43.750","1_to_8",7,"Ex7","Ex8",2.98046875,4.0355
"parID_2","5f5668cf2db7050961fce434","FALSE","UK","Level 3","2024-11-07_15h05.43.750","1_to_8",8,"Ex4","Ex8",2.91015625,17.056
"parID_2","5f5668cf2db7050961fce434","FALSE","UK","Level 3","2024-11-07_15h05.43.750","1_to_8",9,"Ex7","Ex3",2.98046875,3.3573
"parID_2","5f5668cf2db7050961fce434","FALSE","UK","Level 3","2024-11-07_15h05.43.750","1_to_8",10,"Ex7","Ex4",2.98046875,6.9916
"parID_2","5f5668cf2db7050961fce434","FALSE","UK","Level 3","2024-11-07_15h05.43.750","1_to_8",11,"Ex2","Ex5",4.984375,5.6353
"parID_2","5f5668cf2db7050961fce434","FALSE","UK","Level 3","2024-11-07_15h05.43.750","1_to_8",12,"Ex7","Ex1",5.96875,43.3166
"parID_2","5f5668cf2db7050961fce434","FALSE","UK","Level 3","2024-11-07_15h05.43.750","1_to_8",13,"Ex4","Ex6",3.0390625,4.2381
"parID_2","5f5668cf2db7050961fce434","FALSE","UK","Level 3","2024-11-07_15h05.43.750","1_to_8",14,"Ex4","Ex2",1.99609375,13.0767
"parID_2","5f5668cf2db7050961fce434","FALSE","UK","Level 3","2024-11-07_15h05.43.750","1_to_8",15,"Ex1","Ex6",4.0234375,4.6015
"parID_2","5f5668cf2db7050961fce434","FALSE","UK","Level 3","2024-11-07_15h05.43.750","1_to_8",16,"Ex3","Ex4",1.01171875,6.3865
"parID_2","5f5668cf2db7050961fce434","FALSE","UK","Level 3","2024-11-07_15h05.43.750","1_to_8",17,"Ex7","Ex6",4.99609375,89.5675
"parID_2","5f5668cf2db7050961fce434","FALSE","UK","Level 3","2024-11-07_15h05.43.750","1_to_8",18,"Ex2","Ex7",1,5.5624
"parID_2","5f5668cf2db7050961fce434","FALSE","UK","Level 3","2024-11-07_15h05.43.750","1_to_8",19,"Ex2","Ex4",1,3.3542
"parID_2","5f5668cf2db7050961fce434","FALSE","UK","Level 3","2024-11-07_15h05.43.750","1_to_8",20,"Ex6","Ex1",5.95703125,4.0468
"parID_2","5f5668cf2db7050961fce434","FALSE","UK","Level 3","2024-11-07_15h05.43.750","1_to_8",21,"Ex7","Ex2",1.0234375,10.2372
"parID_2","5f5668cf2db7050961fce434","FALSE","UK","Level 3","2024-11-07_15h05.43.750","1_to_8",22,"Ex3","Ex2",1.0234375,2.4227
"parID_2","5f5668cf2db7050961fce434","FALSE","UK","Level 3","2024-11-07_15h05.43.750","1_to_8",23,"Ex1","Ex5",1.0234375,4.8789
"parID_2","5f5668cf2db7050961fce434","FALSE","UK","Level 3","2024-11-07_15h05.43.750","1_to_8",24,"Ex6","Ex5",1.0234375,3.2823
"parID_2","5f5668cf2db7050961fce434","FALSE","UK","Level 3","2024-11-07_15h05.43.750","1_to_8",25,"Ex8","Ex3",1.0234375,4.9034
"parID_2","5f5668cf2db7050961fce434","FALSE","UK","Level 3","2024-11-07_15h05.43.750","1_to_8",26,"Ex6","Ex4",1.97265625,30.6536
"parID_2","5f5668cf2db7050961fce434","FALSE","UK","Level 3","2024-11-07_15h05.43.750","1_to_8",27,"Ex2","Ex6",1.9609375,7.2687
"parID_2","5f5668cf2db7050961fce434","FALSE","UK","Level 3","2024-11-07_15h05.43.750","1_to_8",28,"Ex1","Ex3",3.00390625,6.5573
"parID_2","5f5668cf2db7050961fce434","FALSE","UK","Level 3","2024-11-07_15h05.43.750","1_to_8",29,"Ex5","Ex8",2.9921875,5.2721
"parID_2","5f5668cf2db7050961fce434","FALSE","UK","Level 3","2024-11-07_15h05.43.750","1_to_8",30,"Ex2","Ex8",1.01171875,4.6043
"parID_2","5f5668cf2db7050961fce434","FALSE","UK","Level 3","2024-11-07_15h05.43.750","1_to_8",31,"Ex1","Ex4",1.01171875,1.896
"parID_2","5f5668cf2db7050961fce434","FALSE","UK","Level 3","2024-11-07_15h05.43.750","1_to_8",32,"Ex8","Ex4",3.00390625,11.2632
"parID_2","5f5668cf2db7050961fce434","FALSE","UK","Level 3","2024-11-07_15h05.43.750","1_to_8",33,"Ex3","Ex5",1.984375,15.5042
"parID_2","5f5668cf2db7050961fce434","FALSE","UK","Level 3","2024-11-07_15h05.43.750","1_to_8",34,"Ex6","Ex3",3.0859375,33.5336
"parID_2","5f5668cf2db7050961fce434","FALSE","UK","Level 3","2024-11-07_15h05.43.750","1_to_8",35,"Ex8","Ex2",1.97265625,3.7556
"parID_2","5f5668cf2db7050961fce434","FALSE","UK","Level 3","2024-11-07_15h05.43.750","1_to_8",36,"Ex3","Ex1",3.00390625,6.2275
"parID_2","5f5668cf2db7050961fce434","FALSE","UK","Level 3","2024-11-07_15h05.43.750","1_to_8",37,"Ex1","Ex8",1,133.6273
"parID_2","5f5668cf2db7050961fce434","FALSE","UK","Level 3","2024-11-07_15h05.43.750","1_to_8",38,"Ex4","Ex1",1.984375,3.5714
"parID_2","5f5668cf2db7050961fce434","FALSE","UK","Level 3","2024-11-07_15h05.43.750","1_to_8",39,"Ex4","Ex3",1,3.5212
"parID_2","5f5668cf2db7050961fce434","FALSE","UK","Level 3","2024-11-07_15h05.43.750","1_to_8",40,"Ex5","Ex2",4.97265625,2.7705
"parID_2","5f5668cf2db7050961fce434","FALSE","UK","Level 3","2024-11-07_15h05.43.750","1_to_8",41,"Ex7","Ex5",1.94921875,9.2015
"parID_2","5f5668cf2db7050961fce434","FALSE","UK","Level 3","2024-11-07_15h05.43.750","1_to_8",42,"Ex8","Ex1",1,6.238
"parID_2","5f5668cf2db7050961fce434","FALSE","UK","Level 3","2024-11-07_15h05.43.750","1_to_8",43,"Ex6","Ex8",1,2.0754
"parID_2","5f5668cf2db7050961fce434","FALSE","UK","Level 3","2024-11-07_15h05.43.750","1_to_8",44,"Ex5","Ex6",1,1.6308
"parID_2","5f5668cf2db7050961fce434","FALSE","UK","Level 3","2024-11-07_15h05.43.750","1_to_8",45,"Ex5","Ex3",1.9375,3.7735
"parID_2","5f5668cf2db7050961fce434","FALSE","UK","Level 3","2024-11-07_15h05.43.750","1_to_8",46,"Ex5","Ex7",1.94921875,7.5026
"parID_2","5f5668cf2db7050961fce434","FALSE","UK","Level 3","2024-11-07_15h05.43.750","1_to_8",47,"Ex5","Ex1",1.01171875,4.829
"parID_2","5f5668cf2db7050961fce434","FALSE","UK","Level 3","2024-11-07_15h05.43.750","1_to_8",48,"Ex3","Ex6",6.015625,2.8868
"parID_2","5f5668cf2db7050961fce434","FALSE","UK","Level 3","2024-11-07_15h05.43.750","1_to_8",49,"Ex2","Ex3",1.984375,5.9468
"parID_2","5f5668cf2db7050961fce434","FALSE","UK","Level 3","2024-11-07_15h05.43.750","1_to_8",50,"Ex5","Ex4",2.04296875,6.7352
"parID_2","5f5668cf2db7050961fce434","FALSE","UK","Level 3","2024-11-07_15h05.43.750","1_to_8",51,"Ex2","Ex1",1.01171875,6.4924
"parID_2","5f5668cf2db7050961fce434","FALSE","UK","Level 3","2024-11-07_15h05.43.750","1_to_8",52,"Ex3","Ex8",4.01171875,5.8215
"parID_2","5f5668cf2db7050961fce434","FALSE","UK","Level 3","2024-11-07_15h05.43.750","1_to_8",53,"Ex4","Ex7",1.97265625,18.4286
"parID_2","5f5668cf2db7050961fce434","FALSE","UK","Level 3","2024-11-07_15h05.43.750","1_to_8",54,"Ex8","Ex5",4.890625,5.9685
"parID_2","5f5668cf2db7050961fce434","FALSE","UK","Level 3","2024-11-07_15h05.43.750","1_to_8",55,"Ex1","Ex2",1.0234375,6.3
"parID_2","5f5668cf2db7050961fce434","FALSE","UK","Level 3","2024-11-07_15h05.43.750","9_to_16",1,"Ex12","Ex11",1.99609375,5.8929
"parID_2","5f5668cf2db7050961fce434","FALSE","UK","Level 3","2024-11-07_15h05.43.750","9_to_16",2,"Ex10","Ex12",1,3.0275
"parID_2","5f5668cf2db7050961fce434","FALSE","UK","Level 3","2024-11-07_15h05.43.750","9_to_16",3,"Ex13","Ex15",1.0234375,4.7791
"parID_2","5f5668cf2db7050961fce434","FALSE","UK","Level 3","2024-11-07_15h05.43.750","9_to_16",4,"Ex14","Ex9",6.015625,3.9058
"parID_2","5f5668cf2db7050961fce434","FALSE","UK","Level 3","2024-11-07_15h05.43.750","9_to_16",5,"Ex12","Ex14",6.015625,2.129
"parID_2","5f5668cf2db7050961fce434","FALSE","UK","Level 3","2024-11-07_15h05.43.750","9_to_16",6,"Ex10","Ex11",1.0234375,4.531
"parID_2","5f5668cf2db7050961fce434","FALSE","UK","Level 3","2024-11-07_15h05.43.750","9_to_16",7,"Ex16","Ex14",6.02734375,2.5916
"parID_2","5f5668cf2db7050961fce434","FALSE","UK","Level 3","2024-11-07_15h05.43.750","9_to_16",8,"Ex12","Ex16",6.015625,1.9544
"parID_2","5f5668cf2db7050961fce434","FALSE","UK","Level 3","2024-11-07_15h05.43.750","9_to_16",9,"Ex13","Ex14",1.97265625,11.372
"parID_2","5f5668cf2db7050961fce434","FALSE","UK","Level 3","2024-11-07_15h05.43.750","9_to_16",10,"Ex11","Ex15",6.02734375,2.6074
"parID_2","5f5668cf2db7050961fce434","FALSE","UK","Level 3","2024-11-07_15h05.43.750","9_to_16",11,"Ex13","Ex11",1,12.9129
"parID_2","5f5668cf2db7050961fce434","FALSE","UK","Level 3","2024-11-07_15h05.43.750","9_to_16",12,"Ex16","Ex10",1,6.9249
"parID_2","5f5668cf2db7050961fce434","FALSE","UK","Level 3","2024-11-07_15h05.43.750","9_to_16",13,"Ex15","Ex10",3.953125,6.3862
"parID_2","5f5668cf2db7050961fce434","FALSE","UK","Level 3","2024-11-07_15h05.43.750","9_to_16",14,"Ex14","Ex11",2.96875,3.3389
"parID_2","5f5668cf2db7050961fce434","FALSE","UK","Level 3","2024-11-07_15h05.43.750","9_to_16",15,"Ex10","Ex13",2.96875,3.5241
"parID_2","5f5668cf2db7050961fce434","FALSE","UK","Level 3","2024-11-07_15h05.43.750","9_to_16",16,"Ex9","Ex13",6.0390625,2.5909
"parID_2","5f5668cf2db7050961fce434","FALSE","UK","Level 3","2024-11-07_15h05.43.750","9_to_16",17,"Ex14","Ex12",5.9921875,9.492
"parID_2","5f5668cf2db7050961fce434","FALSE","UK","Level 3","2024-11-07_15h05.43.750","9_to_16",18,"Ex11","Ex16",2.921875,2.5551
"parID_2","5f5668cf2db7050961fce434","FALSE","UK","Level 3","2024-11-07_15h05.43.750","9_to_16",19,"Ex12","Ex10",1.94921875,9.3471
"parID_2","5f5668cf2db7050961fce434","FALSE","UK","Level 3","2024-11-07_15h05.43.750","9_to_16",20,"Ex9","Ex15",1.0234375,81.0312
"parID_2","5f5668cf2db7050961fce434","FALSE","UK","Level 3","2024-11-07_15h05.43.750","9_to_16",21,"Ex13","Ex12",1.01171875,3.7243
"parID_2","5f5668cf2db7050961fce434","FALSE","UK","Level 3","2024-11-07_15h05.43.750","9_to_16",22,"Ex15","Ex14",1.01171875,2.307
"parID_2","5f5668cf2db7050961fce434","FALSE","UK","Level 3","2024-11-07_15h05.43.750","9_to_16",23,"Ex9","Ex12",2.95703125,2.4124
"parID_2","5f5668cf2db7050961fce434","FALSE","UK","Level 3","2024-11-07_15h05.43.750","9_to_16",24,"Ex15","Ex16",1.01171875,3.3047
"parID_2","5f5668cf2db7050961fce434","FALSE","UK","Level 3","2024-11-07_15h05.43.750","9_to_16",25,"Ex12","Ex13",1.01171875,5.0514
"parID_2","5f5668cf2db7050961fce434","FALSE","UK","Level 3","2024-11-07_15h05.43.750","9_to_16",26,"Ex16","Ex9",3.953125,2.673
"parID_2","5f5668cf2db7050961fce434","FALSE","UK","Level 3","2024-11-07_15h05.43.750","9_to_16",27,"Ex13","Ex9",3.953125,1.9042
"parID_2","5f5668cf2db7050961fce434","FALSE","UK","Level 3","2024-11-07_15h05.43.750","9_to_16",28,"Ex15","Ex9",1.08203125,6.4272
"parID_2","5f5668cf2db7050961fce434","FALSE","UK","Level 3","2024-11-07_15h05.43.750","9_to_16",29,"Ex10","Ex14",1.99609375,3.9718
"parID_2","5f5668cf2db7050961fce434","FALSE","UK","Level 3","2024-11-07_15h05.43.750","9_to_16",30,"Ex13","Ex10",4.9609375,3.2058
"parID_2","5f5668cf2db7050961fce434","FALSE","UK","Level 3","2024-11-07_15h05.43.750","9_to_16",31,"Ex10","Ex9",1.05859375,2.7229
"parID_2","5f5668cf2db7050961fce434","FALSE","UK","Level 3","2024-11-07_15h05.43.750","9_to_16",32,"Ex16","Ex11",2.96875,6.18
"parID_2","5f5668cf2db7050961fce434","FALSE","UK","Level 3","2024-11-07_15h05.43.750","9_to_16",33,"Ex11","Ex12",2.01953125,4.3548
"parID_2","5f5668cf2db7050961fce434","FALSE","UK","Level 3","2024-11-07_15h05.43.750","9_to_16",34,"Ex9","Ex11",4.0234375,8.4227
"parID_2","5f5668cf2db7050961fce434","FALSE","UK","Level 3","2024-11-07_15h05.43.750","9_to_16",35,"Ex14","Ex15",1.9375,3.4362
"parID_2","5f5668cf2db7050961fce434","FALSE","UK","Level 3","2024-11-07_15h05.43.750","9_to_16",36,"Ex12","Ex9",6.07421875,2.0251
"parID_2","5f5668cf2db7050961fce434","FALSE","UK","Level 3","2024-11-07_15h05.43.750","9_to_16",37,"Ex9","Ex16",1.97265625,3.8526
"parID_2","5f5668cf2db7050961fce434","FALSE","UK","Level 3","2024-11-07_15h05.43.750","9_to_16",38,"Ex14","Ex16",1.99609375,2.5388
"parID_2","5f5668cf2db7050961fce434","FALSE","UK","Level 3","2024-11-07_15h05.43.750","9_to_16",39,"Ex10","Ex16",1.0703125,2.3294
"parID_2","5f5668cf2db7050961fce434","FALSE","UK","Level 3","2024-11-07_15h05.43.750","9_to_16",40,"Ex14","Ex13",1.1640625,1.7953
"parID_2","5f5668cf2db7050961fce434","FALSE","UK","Level 3","2024-11-07_15h05.43.750","9_to_16",41,"Ex11","Ex13",1.05859375,4.6632
"parID_2","5f5668cf2db7050961fce434","FALSE","UK","Level 3","2024-11-07_15h05.43.750","9_to_16",42,"Ex10","Ex15",1.9609375,8.7685
"parID_2","5f5668cf2db7050961fce434","FALSE","UK","Level 3","2024-11-07_15h05.43.750","9_to_16",43,"Ex15","Ex11",4.9609375,4.5726
"parID_2","5f5668cf2db7050961fce434","FALSE","UK","Level 3","2024-11-07_15h05.43.750","9_to_16",44,"Ex11","Ex9",6.953125,6.0717
"parID_2","5f5668cf2db7050961fce434","FALSE","UK","Level 3","2024-11-07_15h05.43.750","9_to_16",45,"Ex14","Ex10",4.97265625,4.1532
"parID_2","5f5668cf2db7050961fce434","FALSE","UK","Level 3","2024-11-07_15h05.43.750","9_to_16",46,"Ex9","Ex10",1.0234375,8.9659
"parID_2","5f5668cf2db7050961fce434","FALSE","UK","Level 3","2024-11-07_15h05.43.750","9_to_16",47,"Ex15","Ex12",1.01171875,2.8807
"parID_2","5f5668cf2db7050961fce434","FALSE","UK","Level 3","2024-11-07_15h05.43.750","9_to_16",48,"Ex15","Ex13",1.01171875,1.888
"parID_2","5f5668cf2db7050961fce434","FALSE","UK","Level 3","2024-11-07_15h05.43.750","9_to_16",49,"Ex11","Ex14",3.94140625,5.0628
"parID_2","5f5668cf2db7050961fce434","FALSE","UK","Level 3","2024-11-07_15h05.43.750","9_to_16",50,"Ex11","Ex10",1.984375,2.5457
"parID_2","5f5668cf2db7050961fce434","FALSE","UK","Level 3","2024-11-07_15h05.43.750","9_to_16",51,"Ex13","Ex16",1.03515625,4.1153
"parID_2","5f5668cf2db7050961fce434","FALSE","UK","Level 3","2024-11-07_15h05.43.750","9_to_16",52,"Ex16","Ex12",5.98046875,4.3997
"parID_2","5f5668cf2db7050961fce434","FALSE","UK","Level 3","2024-11-07_15h05.43.750","9_to_16",53,"Ex9","Ex14",5.98046875,3.4056
"parID_2","5f5668cf2db7050961fce434","FALSE","UK","Level 3","2024-11-07_15h05.43.750","9_to_16",54,"Ex12","Ex15",1.9375,2.1874
"parID_2","5f5668cf2db7050961fce434","FALSE","UK","Level 3","2024-11-07_15h05.43.750","9_to_16",55,"Ex16","Ex13",1.0234375,4.5032
"parID_3","5c351b21d4ae620001d3ee01",NA,NA,NA,"2024-11-07_15h03.59.589","9_to_16",1,"Ex11","Ex15",4.98664833,5.5836
"parID_3","5c351b21d4ae620001d3ee01",NA,NA,NA,"2024-11-07_15h03.59.589","9_to_16",2,"Ex11","Ex10",1.001582505,4.8943
"parID_3","5c351b21d4ae620001d3ee01",NA,NA,NA,"2024-11-07_15h03.59.589","9_to_16",3,"Ex13","Ex15",1.013303321,1.9498
"parID_3","5c351b21d4ae620001d3ee01",NA,NA,NA,"2024-11-07_15h03.59.589","9_to_16",4,"Ex11","Ex13",1.071907401,1.9611
"parID_3","5c351b21d4ae620001d3ee01",NA,NA,NA,"2024-11-07_15h03.59.589","9_to_16",5,"Ex9","Ex14",1.001582505,1.8261
"parID_3","5c351b21d4ae620001d3ee01",NA,NA,NA,"2024-11-07_15h03.59.589","9_to_16",6,"Ex10","Ex16",1.001582505,1.4736
"parID_3","5c351b21d4ae620001d3ee01",NA,NA,NA,"2024-11-07_15h03.59.589","9_to_16",7,"Ex13","Ex12",1.001582505,1.4298
"parID_3","5c351b21d4ae620001d3ee01",NA,NA,NA,"2024-11-07_15h03.59.589","9_to_16",8,"Ex15","Ex9",1.001582505,2.0435
"parID_3","5c351b21d4ae620001d3ee01",NA,NA,NA,"2024-11-07_15h03.59.589","9_to_16",9,"Ex13","Ex9",2.98239428,2.7665
"parID_3","5c351b21d4ae620001d3ee01",NA,NA,NA,"2024-11-07_15h03.59.589","9_to_16",10,"Ex16","Ex10",1.048465769,2.1937
"parID_3","5c351b21d4ae620001d3ee01",NA,NA,NA,"2024-11-07_15h03.59.589","9_to_16",11,"Ex14","Ex12",1.048465769,2.3608
"parID_3","5c351b21d4ae620001d3ee01",NA,NA,NA,"2024-11-07_15h03.59.589","9_to_16",12,"Ex13","Ex14",1.048465769,1.1724
"parID_3","5c351b21d4ae620001d3ee01",NA,NA,NA,"2024-11-07_15h03.59.589","9_to_16",13,"Ex11","Ex9",1.048465769,1.4078
"parID_3","5c351b21d4ae620001d3ee01",NA,NA,NA,"2024-11-07_15h03.59.589","9_to_16",14,"Ex11","Ex14",3.978660736,2.7168
"parID_3","5c351b21d4ae620001d3ee01",NA,NA,NA,"2024-11-07_15h03.59.589","9_to_16",15,"Ex12","Ex16",2.923790522,3.0671
"parID_3","5c351b21d4ae620001d3ee01",NA,NA,NA,"2024-11-07_15h03.59.589","9_to_16",16,"Ex11","Ex16",4.963206698,4.0114
"parID_3","5c351b21d4ae620001d3ee01",NA,NA,NA,"2024-11-07_15h03.59.589","9_to_16",17,"Ex9","Ex10",1.001582505,2.5116
"parID_3","5c351b21d4ae620001d3ee01",NA,NA,NA,"2024-11-07_15h03.59.589","9_to_16",18,"Ex10","Ex13",1.001582505,1.6151
"parID_3","5c351b21d4ae620001d3ee01",NA,NA,NA,"2024-11-07_15h03.59.589","9_to_16",19,"Ex13","Ex16",1.001582505,1.1984
"parID_3","5c351b21d4ae620001d3ee01",NA,NA,NA,"2024-11-07_15h03.59.589","9_to_16",20,"Ex9","Ex13",2.947232154,3.1511
"parID_3","5c351b21d4ae620001d3ee01",NA,NA,NA,"2024-11-07_15h03.59.589","9_to_16",21,"Ex14","Ex11",1.025024137,5.0922
"parID_3","5c351b21d4ae620001d3ee01",NA,NA,NA,"2024-11-07_15h03.59.589","9_to_16",22,"Ex14","Ex16",1.025024137,1.7796
"parID_3","5c351b21d4ae620001d3ee01",NA,NA,NA,"2024-11-07_15h03.59.589","9_to_16",23,"Ex10","Ex14",3.978660736,3.2576
"parID_3","5c351b21d4ae620001d3ee01",NA,NA,NA,"2024-11-07_15h03.59.589","9_to_16",24,"Ex13","Ex10",1.001582505,2.3493
"parID_3","5c351b21d4ae620001d3ee01",NA,NA,NA,"2024-11-07_15h03.59.589","9_to_16",25,"Ex12","Ex14",3.005835912,5.2675
"parID_3","5c351b21d4ae620001d3ee01",NA,NA,NA,"2024-11-07_15h03.59.589","9_to_16",26,"Ex15","Ex10",1.013303321,3.433
"parID_3","5c351b21d4ae620001d3ee01",NA,NA,NA,"2024-11-07_15h03.59.589","9_to_16",27,"Ex9","Ex16",1.013303321,3.9244
"parID_3","5c351b21d4ae620001d3ee01",NA,NA,NA,"2024-11-07_15h03.59.589","9_to_16",28,"Ex14","Ex9",1.013303321,5.5825
"parID_3","5c351b21d4ae620001d3ee01",NA,NA,NA,"2024-11-07_15h03.59.589","9_to_16",29,"Ex14","Ex10",4.963206698,6.0848
"parID_3","5c351b21d4ae620001d3ee01",NA,NA,NA,"2024-11-07_15h03.59.589","9_to_16",30,"Ex16","Ex9",1.001582505,2.7412
"parID_3","5c351b21d4ae620001d3ee01",NA,NA,NA,"2024-11-07_15h03.59.589","9_to_16",31,"Ex16","Ex12",1.001582505,5.8335
"parID_3","5c351b21d4ae620001d3ee01",NA,NA,NA,"2024-11-07_15h03.59.589","9_to_16",32,"Ex13","Ex11",1.001582505,1.5433
"parID_3","5c351b21d4ae620001d3ee01",NA,NA,NA,"2024-11-07_15h03.59.589","9_to_16",33,"Ex15","Ex13",1.001582505,3.7832
"parID_3","5c351b21d4ae620001d3ee01",NA,NA,NA,"2024-11-07_15h03.59.589","9_to_16",34,"Ex15","Ex14",1.001582505,3.6247
"parID_3","5c351b21d4ae620001d3ee01",NA,NA,NA,"2024-11-07_15h03.59.589","9_to_16",35,"Ex10","Ex9",1.001582505,1.7998
"parID_3","5c351b21d4ae620001d3ee01",NA,NA,NA,"2024-11-07_15h03.59.589","9_to_16",36,"Ex11","Ex12",1.001582505,8.7156
"parID_3","5c351b21d4ae620001d3ee01",NA,NA,NA,"2024-11-07_15h03.59.589","9_to_16",37,"Ex12","Ex13",1.001582505,1.7942
"parID_3","5c351b21d4ae620001d3ee01",NA,NA,NA,"2024-11-07_15h03.59.589","9_to_16",38,"Ex15","Ex12",1.001582505,1.2674
"parID_3","5c351b21d4ae620001d3ee01",NA,NA,NA,"2024-11-07_15h03.59.589","9_to_16",39,"Ex12","Ex11",1.001582505,1.2682
"parID_3","5c351b21d4ae620001d3ee01",NA,NA,NA,"2024-11-07_15h03.59.589","9_to_16",40,"Ex10","Ex15",1.001582505,1.2952
"parID_3","5c351b21d4ae620001d3ee01",NA,NA,NA,"2024-11-07_15h03.59.589","9_to_16",41,"Ex15","Ex16",1.001582505,1.6846
"parID_3","5c351b21d4ae620001d3ee01",NA,NA,NA,"2024-11-07_15h03.59.589","9_to_16",42,"Ex12","Ex10",1.001582505,4.3788
"parID_3","5c351b21d4ae620001d3ee01",NA,NA,NA,"2024-11-07_15h03.59.589","9_to_16",43,"Ex15","Ex11",5.971193649,3.742
"parID_3","5c351b21d4ae620001d3ee01",NA,NA,NA,"2024-11-07_15h03.59.589","9_to_16",44,"Ex9","Ex15",1.001582505,2.2207
"parID_3","5c351b21d4ae620001d3ee01",NA,NA,NA,"2024-11-07_15h03.59.589","9_to_16",45,"Ex16","Ex11",3.896615347,3.2249
"parID_3","5c351b21d4ae620001d3ee01",NA,NA,NA,"2024-11-07_15h03.59.589","9_to_16",46,"Ex9","Ex12",2.90034889,2.8768
"parID_3","5c351b21d4ae620001d3ee01",NA,NA,NA,"2024-11-07_15h03.59.589","9_to_16",47,"Ex14","Ex15",1.060186585,1.9369
"parID_3","5c351b21d4ae620001d3ee01",NA,NA,NA,"2024-11-07_15h03.59.589","9_to_16",48,"Ex12","Ex15",1.060186585,1.5995
"parID_3","5c351b21d4ae620001d3ee01",NA,NA,NA,"2024-11-07_15h03.59.589","9_to_16",49,"Ex16","Ex14",2.912070028,4.2079
"parID_3","5c351b21d4ae620001d3ee01",NA,NA,NA,"2024-11-07_15h03.59.589","9_to_16",50,"Ex12","Ex9",1.15395279,5.1318
"parID_3","5c351b21d4ae620001d3ee01",NA,NA,NA,"2024-11-07_15h03.59.589","9_to_16",51,"Ex16","Ex13",1.025024137,3.9652
"parID_3","5c351b21d4ae620001d3ee01",NA,NA,NA,"2024-11-07_15h03.59.589","9_to_16",52,"Ex10","Ex12",1.025024137,1.7357
"parID_3","5c351b21d4ae620001d3ee01",NA,NA,NA,"2024-11-07_15h03.59.589","9_to_16",53,"Ex14","Ex13",1.025024137,2.1473
"parID_3","5c351b21d4ae620001d3ee01",NA,NA,NA,"2024-11-07_15h03.59.589","9_to_16",54,"Ex10","Ex11",1.025024137,2.0892
"parID_3","5c351b21d4ae620001d3ee01",NA,NA,NA,"2024-11-07_15h03.59.589","9_to_16",55,"Ex9","Ex11",1.013303321,4.2132
"parID_3","5c351b21d4ae620001d3ee01",NA,NA,NA,"2024-11-07_15h03.59.589","1_to_8",1,"Ex5","Ex2",6.955738967,4.1506
"parID_3","5c351b21d4ae620001d3ee01",NA,NA,NA,"2024-11-07_15h03.59.589","1_to_8",2,"Ex1","Ex8",1.025024137,2.5577
"parID_3","5c351b21d4ae620001d3ee01",NA,NA,NA,"2024-11-07_15h03.59.589","1_to_8",3,"Ex6","Ex8",4.974927192,3.3003
"parID_3","5c351b21d4ae620001d3ee01",NA,NA,NA,"2024-11-07_15h03.59.589","1_to_8",4,"Ex3","Ex8",3.873173715,2.9005
"parID_3","5c351b21d4ae620001d3ee01",NA,NA,NA,"2024-11-07_15h03.59.589","1_to_8",5,"Ex8","Ex5",3.990381874,2.2461
"parID_3","5c351b21d4ae620001d3ee01",NA,NA,NA,"2024-11-07_15h03.59.589","1_to_8",6,"Ex6","Ex3",7.998888687,3.1323
"parID_3","5c351b21d4ae620001d3ee01",NA,NA,NA,"2024-11-07_15h03.59.589","1_to_8",7,"Ex4","Ex3",1.997848962,2.4586
"parID_3","5c351b21d4ae620001d3ee01",NA,NA,NA,"2024-11-07_15h03.59.589","1_to_8",8,"Ex7","Ex8",1.060186585,4.3517
"parID_3","5c351b21d4ae620001d3ee01",NA,NA,NA,"2024-11-07_15h03.59.589","1_to_8",9,"Ex7","Ex5",1.025024137,4.275
"parID_3","5c351b21d4ae620001d3ee01",NA,NA,NA,"2024-11-07_15h03.59.589","1_to_8",10,"Ex6","Ex1",1.001582505,2.2757
"parID_3","5c351b21d4ae620001d3ee01",NA,NA,NA,"2024-11-07_15h03.59.589","1_to_8",11,"Ex3","Ex7",1.001582505,1.7028
"parID_3","5c351b21d4ae620001d3ee01",NA,NA,NA,"2024-11-07_15h03.59.589","1_to_8",12,"Ex2","Ex1",1.001582505,1.6256
"parID_3","5c351b21d4ae620001d3ee01",NA,NA,NA,"2024-11-07_15h03.59.589","1_to_8",13,"Ex6","Ex2",3.01755705,3.0342
"parID_3","5c351b21d4ae620001d3ee01",NA,NA,NA,"2024-11-07_15h03.59.589","1_to_8",14,"Ex4","Ex6",3.01755705,1.7419
"parID_3","5c351b21d4ae620001d3ee01",NA,NA,NA,"2024-11-07_15h03.59.589","1_to_8",15,"Ex5","Ex6",1.986128146,2.581
"parID_3","5c351b21d4ae620001d3ee01",NA,NA,NA,"2024-11-07_15h03.59.589","1_to_8",16,"Ex8","Ex1",1.013303321,5.9067
"parID_3","5c351b21d4ae620001d3ee01",NA,NA,NA,"2024-11-07_15h03.59.589","1_to_8",17,"Ex7","Ex6",2.994115418,2.8841
"parID_3","5c351b21d4ae620001d3ee01",NA,NA,NA,"2024-11-07_15h03.59.589","1_to_8",18,"Ex1","Ex7",3.005835912,3.4749
"parID_3","5c351b21d4ae620001d3ee01",NA,NA,NA,"2024-11-07_15h03.59.589","1_to_8",19,"Ex1","Ex4",1.15395279,3.2018
"parID_3","5c351b21d4ae620001d3ee01",NA,NA,NA,"2024-11-07_15h03.59.589","1_to_8",20,"Ex1","Ex3",1.986128146,3.4956
"parID_3","5c351b21d4ae620001d3ee01",NA,NA,NA,"2024-11-07_15h03.59.589","1_to_8",21,"Ex4","Ex1",1.048465769,2.327
"parID_3","5c351b21d4ae620001d3ee01",NA,NA,NA,"2024-11-07_15h03.59.589","1_to_8",22,"Ex1","Ex2",1.001582505,4.0913
"parID_3","5c351b21d4ae620001d3ee01",NA,NA,NA,"2024-11-07_15h03.59.589","1_to_8",23,"Ex7","Ex1",2.947232154,6.7804
"parID_3","5c351b21d4ae620001d3ee01",NA,NA,NA,"2024-11-07_15h03.59.589","1_to_8",24,"Ex1","Ex6",1.048465769,6.0088
"parID_3","5c351b21d4ae620001d3ee01",NA,NA,NA,"2024-11-07_15h03.59.589","1_to_8",25,"Ex4","Ex2",1.986128146,3.7584
"parID_3","5c351b21d4ae620001d3ee01",NA,NA,NA,"2024-11-07_15h03.59.589","1_to_8",26,"Ex2","Ex3",1.013303321,4.9971
"parID_3","5c351b21d4ae620001d3ee01",NA,NA,NA,"2024-11-07_15h03.59.589","1_to_8",27,"Ex2","Ex4",2.021290593,3.8526
"parID_3","5c351b21d4ae620001d3ee01",NA,NA,NA,"2024-11-07_15h03.59.589","1_to_8",28,"Ex7","Ex4",2.021290593,1.415
"parID_3","5c351b21d4ae620001d3ee01",NA,NA,NA,"2024-11-07_15h03.59.589","1_to_8",29,"Ex3","Ex6",2.970673786,4.2551
"parID_3","5c351b21d4ae620001d3ee01",NA,NA,NA,"2024-11-07_15h03.59.589","1_to_8",30,"Ex4","Ex7",2.009569778,2.3254
"parID_3","5c351b21d4ae620001d3ee01",NA,NA,NA,"2024-11-07_15h03.59.589","1_to_8",31,"Ex8","Ex2",1.025024137,1.9827
"parID_3","5c351b21d4ae620001d3ee01",NA,NA,NA,"2024-11-07_15h03.59.589","1_to_8",32,"Ex5","Ex4",1.962686514,2.8538
"parID_3","5c351b21d4ae620001d3ee01",NA,NA,NA,"2024-11-07_15h03.59.589","1_to_8",33,"Ex8","Ex4",1.025024137,3.7438
"parID_3","5c351b21d4ae620001d3ee01",NA,NA,NA,"2024-11-07_15h03.59.589","1_to_8",34,"Ex5","Ex1",1.025024137,1.6586
"parID_3","5c351b21d4ae620001d3ee01",NA,NA,NA,"2024-11-07_15h03.59.589","1_to_8",35,"Ex4","Ex8",1.986128146,2.4203
"parID_3","5c351b21d4ae620001d3ee01",NA,NA,NA,"2024-11-07_15h03.59.589","1_to_8",36,"Ex8","Ex3",1.025024137,3.7093
"parID_3","5c351b21d4ae620001d3ee01",NA,NA,NA,"2024-11-07_15h03.59.589","1_to_8",37,"Ex2","Ex5",1.97440733,2.6312
"parID_3","5c351b21d4ae620001d3ee01",NA,NA,NA,"2024-11-07_15h03.59.589","1_to_8",38,"Ex6","Ex4",1.97440733,2.7982
"parID_3","5c351b21d4ae620001d3ee01",NA,NA,NA,"2024-11-07_15h03.59.589","1_to_8",39,"Ex6","Ex5",1.036744953,2.0576
"parID_3","5c351b21d4ae620001d3ee01",NA,NA,NA,"2024-11-07_15h03.59.589","1_to_8",40,"Ex7","Ex3",2.009569778,2.1962
"parID_3","5c351b21d4ae620001d3ee01",NA,NA,NA,"2024-11-07_15h03.59.589","1_to_8",41,"Ex2","Ex7",1.013303321,2.4426
"parID_3","5c351b21d4ae620001d3ee01",NA,NA,NA,"2024-11-07_15h03.59.589","1_to_8",42,"Ex4","Ex5",1.013303321,1.759
"parID_3","5c351b21d4ae620001d3ee01",NA,NA,NA,"2024-11-07_15h03.59.589","1_to_8",43,"Ex5","Ex3",1.013303321,1.6799
"parID_3","5c351b21d4ae620001d3ee01",NA,NA,NA,"2024-11-07_15h03.59.589","1_to_8",44,"Ex3","Ex2",1.013303321,1.3936
"parID_3","5c351b21d4ae620001d3ee01",NA,NA,NA,"2024-11-07_15h03.59.589","1_to_8",45,"Ex3","Ex5",1.013303321,1.7001
"parID_3","5c351b21d4ae620001d3ee01",NA,NA,NA,"2024-11-07_15h03.59.589","1_to_8",46,"Ex2","Ex6",3.052719175,6.1745
"parID_3","5c351b21d4ae620001d3ee01",NA,NA,NA,"2024-11-07_15h03.59.589","1_to_8",47,"Ex8","Ex6",1.036744953,2.3323
"parID_3","5c351b21d4ae620001d3ee01",NA,NA,NA,"2024-11-07_15h03.59.589","1_to_8",48,"Ex3","Ex4",1.036744953,1.8249
"parID_3","5c351b21d4ae620001d3ee01",NA,NA,NA,"2024-11-07_15h03.59.589","1_to_8",49,"Ex1","Ex5",1.036744953,1.3988
"parID_3","5c351b21d4ae620001d3ee01",NA,NA,NA,"2024-11-07_15h03.59.589","1_to_8",50,"Ex7","Ex2",1.036744953,1.8872
"parID_3","5c351b21d4ae620001d3ee01",NA,NA,NA,"2024-11-07_15h03.59.589","1_to_8",51,"Ex5","Ex7",1.036744953,1.9856
"parID_3","5c351b21d4ae620001d3ee01",NA,NA,NA,"2024-11-07_15h03.59.589","1_to_8",52,"Ex3","Ex1",1.036744953,2.0614
"parID_3","5c351b21d4ae620001d3ee01",NA,NA,NA,"2024-11-07_15h03.59.589","1_to_8",53,"Ex6","Ex7",1.036744953,2.6966
"parID_3","5c351b21d4ae620001d3ee01",NA,NA,NA,"2024-11-07_15h03.59.589","1_to_8",54,"Ex5","Ex8",1.025024137,3.201
"parID_3","5c351b21d4ae620001d3ee01",NA,NA,NA,"2024-11-07_15h03.59.589","1_to_8",55,"Ex2","Ex8",1.025024137,1.3945
"parID_4","66577bd5fa02a29c30407e81","Femail","British","Secondary School","2024-11-07_15h03.49.991","1_to_8",1,"Ex4","Ex7",2.975,6.2682
"parID_4","66577bd5fa02a29c30407e81","Femail","British","Secondary School","2024-11-07_15h03.49.991","1_to_8",2,"Ex3","Ex8",2.025,5.6717
"parID_4","66577bd5fa02a29c30407e81","Femail","British","Secondary School","2024-11-07_15h03.49.991","1_to_8",3,"Ex4","Ex5",2.983333333,3.9222
"parID_4","66577bd5fa02a29c30407e81","Femail","British","Secondary School","2024-11-07_15h03.49.991","1_to_8",4,"Ex7","Ex5",3.083333333,3.6731
"parID_4","66577bd5fa02a29c30407e81","Femail","British","Secondary School","2024-11-07_15h03.49.991","1_to_8",5,"Ex4","Ex2",1.016666667,2.9333
"parID_4","66577bd5fa02a29c30407e81","Femail","British","Secondary School","2024-11-07_15h03.49.991","1_to_8",6,"Ex3","Ex2",2.975,4.9671
"parID_4","66577bd5fa02a29c30407e81","Femail","British","Secondary School","2024-11-07_15h03.49.991","1_to_8",7,"Ex8","Ex1",1.05,3.3606
"parID_4","66577bd5fa02a29c30407e81","Femail","British","Secondary School","2024-11-07_15h03.49.991","1_to_8",8,"Ex1","Ex3",3.008333333,6.8472
"parID_4","66577bd5fa02a29c30407e81","Femail","British","Secondary School","2024-11-07_15h03.49.991","1_to_8",9,"Ex1","Ex7",1.033333333,2.3184
"parID_4","66577bd5fa02a29c30407e81","Femail","British","Secondary School","2024-11-07_15h03.49.991","1_to_8",10,"Ex4","Ex1",2.008333333,2.7401
"parID_4","66577bd5fa02a29c30407e81","Femail","British","Secondary School","2024-11-07_15h03.49.991","1_to_8",11,"Ex1","Ex6",2.008333333,3.9735
"parID_4","66577bd5fa02a29c30407e81","Femail","British","Secondary School","2024-11-07_15h03.49.991","1_to_8",12,"Ex8","Ex3",3.966666667,6.5903
"parID_4","66577bd5fa02a29c30407e81","Femail","British","Secondary School","2024-11-07_15h03.49.991","1_to_8",13,"Ex3","Ex5",2.916666667,3.042
"parID_4","66577bd5fa02a29c30407e81","Femail","British","Secondary School","2024-11-07_15h03.49.991","1_to_8",14,"Ex6","Ex5",1.175,1.9058
"parID_4","66577bd5fa02a29c30407e81","Femail","British","Secondary School","2024-11-07_15h03.49.991","1_to_8",15,"Ex6","Ex7",5.083333333,5.8048
"parID_4","66577bd5fa02a29c30407e81","Femail","British","Secondary School","2024-11-07_15h03.49.991","1_to_8",16,"Ex2","Ex5",2.95,1.848
"parID_4","66577bd5fa02a29c30407e81","Femail","British","Secondary School","2024-11-07_15h03.49.991","1_to_8",17,"Ex1","Ex8",3.108333333,5.214
"parID_4","66577bd5fa02a29c30407e81","Femail","British","Secondary School","2024-11-07_15h03.49.991","1_to_8",18,"Ex7","Ex2",3.966666667,2.1408
"parID_4","66577bd5fa02a29c30407e81","Femail","British","Secondary School","2024-11-07_15h03.49.991","1_to_8",19,"Ex6","Ex8",1.991666667,2.6211
"parID_4","66577bd5fa02a29c30407e81","Femail","British","Secondary School","2024-11-07_15h03.49.991","1_to_8",20,"Ex1","Ex4",1.141666667,9.1172
"parID_4","66577bd5fa02a29c30407e81","Femail","British","Secondary School","2024-11-07_15h03.49.991","1_to_8",21,"Ex2","Ex8",1.008333333,5.0702
"parID_4","66577bd5fa02a29c30407e81","Femail","British","Secondary School","2024-11-07_15h03.49.991","1_to_8",22,"Ex3","Ex1",2.975,7.8381
"parID_4","66577bd5fa02a29c30407e81","Femail","British","Secondary School","2024-11-07_15h03.49.991","1_to_8",23,"Ex3","Ex4",1.116666667,3.9658
"parID_4","66577bd5fa02a29c30407e81","Femail","British","Secondary School","2024-11-07_15h03.49.991","1_to_8",24,"Ex7","Ex4",2.033333333,4.299
"parID_4","66577bd5fa02a29c30407e81","Femail","British","Secondary School","2024-11-07_15h03.49.991","1_to_8",25,"Ex3","Ex6",5,7.0942
"parID_4","66577bd5fa02a29c30407e81","Femail","British","Secondary School","2024-11-07_15h03.49.991","1_to_8",26,"Ex1","Ex5",1.058333333,2.19
"parID_4","66577bd5fa02a29c30407e81","Femail","British","Secondary School","2024-11-07_15h03.49.991","1_to_8",27,"Ex5","Ex3",1.108333333,4.5243
"parID_4","66577bd5fa02a29c30407e81","Femail","British","Secondary School","2024-11-07_15h03.49.991","1_to_8",28,"Ex4","Ex8",2.933333333,6.7992
"parID_4","66577bd5fa02a29c30407e81","Femail","British","Secondary School","2024-11-07_15h03.49.991","1_to_8",29,"Ex7","Ex3",1.025,2.985
"parID_4","66577bd5fa02a29c30407e81","Femail","British","Secondary School","2024-11-07_15h03.49.991","1_to_8",30,"Ex8","Ex5",1.983333333,5.5424
"parID_4","66577bd5fa02a29c30407e81","Femail","British","Secondary School","2024-11-07_15h03.49.991","1_to_8",31,"Ex6","Ex3",5.991666667,8.0259
"parID_4","66577bd5fa02a29c30407e81","Femail","British","Secondary School","2024-11-07_15h03.49.991","1_to_8",32,"Ex7","Ex1",1.958333333,3.2087
"parID_4","66577bd5fa02a29c30407e81","Femail","British","Secondary School","2024-11-07_15h03.49.991","1_to_8",33,"Ex8","Ex6",4.008333333,3.9747
"parID_4","66577bd5fa02a29c30407e81","Femail","British","Secondary School","2024-11-07_15h03.49.991","1_to_8",34,"Ex5","Ex6",1.083333333,3.2291
"parID_4","66577bd5fa02a29c30407e81","Femail","British","Secondary School","2024-11-07_15h03.49.991","1_to_8",35,"Ex4","Ex3",1.025,3.5407
"parID_4","66577bd5fa02a29c30407e81","Femail","British","Secondary School","2024-11-07_15h03.49.991","1_to_8",36,"Ex5","Ex1",2.033333333,6.9568
"parID_4","66577bd5fa02a29c30407e81","Femail","British","Secondary School","2024-11-07_15h03.49.991","1_to_8",37,"Ex6","Ex4",2.125,5.4951
"parID_4","66577bd5fa02a29c30407e81","Femail","British","Secondary School","2024-11-07_15h03.49.991","1_to_8",38,"Ex2","Ex6",4.983333333,6.4485
"parID_4","66577bd5fa02a29c30407e81","Femail","British","Secondary School","2024-11-07_15h03.49.991","1_to_8",39,"Ex3","Ex7",1.05,2.9376
"parID_4","66577bd5fa02a29c30407e81","Femail","British","Secondary School","2024-11-07_15h03.49.991","1_to_8",40,"Ex6","Ex2",5.933333333,3.4876
"parID_4","66577bd5fa02a29c30407e81","Femail","British","Secondary School","2024-11-07_15h03.49.991","1_to_8",41,"Ex5","Ex7",2.075,5.1197
"parID_4","66577bd5fa02a29c30407e81","Femail","British","Secondary School","2024-11-07_15h03.49.991","1_to_8",42,"Ex4","Ex6",1.1,3.7397
"parID_4","66577bd5fa02a29c30407e81","Femail","British","Secondary School","2024-11-07_15h03.49.991","1_to_8",43,"Ex7","Ex8",1.275,3.6426
"parID_4","66577bd5fa02a29c30407e81","Femail","British","Secondary School","2024-11-07_15h03.49.991","1_to_8",44,"Ex6","Ex1",3.016666667,4.6097
"parID_4","66577bd5fa02a29c30407e81","Femail","British","Secondary School","2024-11-07_15h03.49.991","1_to_8",45,"Ex8","Ex4",1.3,2.8886
"parID_4","66577bd5fa02a29c30407e81","Femail","British","Secondary School","2024-11-07_15h03.49.991","1_to_8",46,"Ex7","Ex6",4.016666667,2.9582
"parID_4","66577bd5fa02a29c30407e81","Femail","British","Secondary School","2024-11-07_15h03.49.991","1_to_8",47,"Ex8","Ex2",1.35,3.262
"parID_4","66577bd5fa02a29c30407e81","Femail","British","Secondary School","2024-11-07_15h03.49.991","1_to_8",48,"Ex5","Ex4",4.041666667,6.7419
"parID_4","66577bd5fa02a29c30407e81","Femail","British","Secondary School","2024-11-07_15h03.49.991","1_to_8",49,"Ex5","Ex8",1.041666667,3.5556
"parID_4","66577bd5fa02a29c30407e81","Femail","British","Secondary School","2024-11-07_15h03.49.991","1_to_8",50,"Ex2","Ex3",1.033333333,4.6947
"parID_4","66577bd5fa02a29c30407e81","Femail","British","Secondary School","2024-11-07_15h03.49.991","1_to_8",51,"Ex2","Ex4",1.416666667,5.1922
"parID_4","66577bd5fa02a29c30407e81","Femail","British","Secondary School","2024-11-07_15h03.49.991","1_to_8",52,"Ex1","Ex2",1.4,1.9807
"parID_4","66577bd5fa02a29c30407e81","Femail","British","Secondary School","2024-11-07_15h03.49.991","1_to_8",53,"Ex2","Ex7",3.991666667,4.0588
"parID_4","66577bd5fa02a29c30407e81","Femail","British","Secondary School","2024-11-07_15h03.49.991","1_to_8",54,"Ex5","Ex2",1.325,2.3566
"parID_4","66577bd5fa02a29c30407e81","Femail","British","Secondary School","2024-11-07_15h03.49.991","1_to_8",55,"Ex2","Ex1",1.033333333,3.5068
"parID_4","66577bd5fa02a29c30407e81","Femail","British","Secondary School","2024-11-07_15h03.49.991","9_to_16",1,"Ex9","Ex11",3.983333333,6.4971
"parID_4","66577bd5fa02a29c30407e81","Femail","British","Secondary School","2024-11-07_15h03.49.991","9_to_16",2,"Ex13","Ex12",1.058333333,3.8399
"parID_4","66577bd5fa02a29c30407e81","Femail","British","Secondary School","2024-11-07_15h03.49.991","9_to_16",3,"Ex9","Ex12",1.866666667,2.9484
"parID_4","66577bd5fa02a29c30407e81","Femail","British","Secondary School","2024-11-07_15h03.49.991","9_to_16",4,"Ex11","Ex16",1.066666667,2.3873
"parID_4","66577bd5fa02a29c30407e81","Femail","British","Secondary School","2024-11-07_15h03.49.991","9_to_16",5,"Ex11","Ex12",1.066666667,1.8066
"parID_4","66577bd5fa02a29c30407e81","Femail","British","Secondary School","2024-11-07_15h03.49.991","9_to_16",6,"Ex11","Ex15",1.8,8.3332
"parID_4","66577bd5fa02a29c30407e81","Femail","British","Secondary School","2024-11-07_15h03.49.991","9_to_16",7,"Ex13","Ex15",1.075,4.9736
"parID_4","66577bd5fa02a29c30407e81","Femail","British","Secondary School","2024-11-07_15h03.49.991","9_to_16",8,"Ex9","Ex15",1.125,2.7727
"parID_4","66577bd5fa02a29c30407e81","Femail","British","Secondary School","2024-11-07_15h03.49.991","9_to_16",9,"Ex14","Ex10",4.016666667,6.7481
"parID_4","66577bd5fa02a29c30407e81","Femail","British","Secondary School","2024-11-07_15h03.49.991","9_to_16",10,"Ex13","Ex9",1,3.2864
"parID_4","66577bd5fa02a29c30407e81","Femail","British","Secondary School","2024-11-07_15h03.49.991","9_to_16",11,"Ex9","Ex10",1.05,2.2735
"parID_4","66577bd5fa02a29c30407e81","Femail","British","Secondary School","2024-11-07_15h03.49.991","9_to_16",12,"Ex15","Ex9",1.058333333,3.4093
"parID_4","66577bd5fa02a29c30407e81","Femail","British","Secondary School","2024-11-07_15h03.49.991","9_to_16",13,"Ex13","Ex14",2.858333333,4.609
"parID_4","66577bd5fa02a29c30407e81","Femail","British","Secondary School","2024-11-07_15h03.49.991","9_to_16",14,"Ex14","Ex12",2.825,3.4107
"parID_4","66577bd5fa02a29c30407e81","Femail","British","Secondary School","2024-11-07_15h03.49.991","9_to_16",15,"Ex14","Ex16",4.908333333,5.5547
"parID_4","66577bd5fa02a29c30407e81","Femail","British","Secondary School","2024-11-07_15h03.49.991","9_to_16",16,"Ex10","Ex14",1.116666667,3.121
"parID_4","66577bd5fa02a29c30407e81","Femail","British","Secondary School","2024-11-07_15h03.49.991","9_to_16",17,"Ex10","Ex13",3.025,3.5241
"parID_4","66577bd5fa02a29c30407e81","Femail","British","Secondary School","2024-11-07_15h03.49.991","9_to_16",18,"Ex11","Ex9",5,2.4561
"parID_4","66577bd5fa02a29c30407e81","Femail","British","Secondary School","2024-11-07_15h03.49.991","9_to_16",19,"Ex12","Ex9",3.141666667,2.935
"parID_4","66577bd5fa02a29c30407e81","Femail","British","Secondary School","2024-11-07_15h03.49.991","9_to_16",20,"Ex16","Ex11",3.9,5.557
"parID_4","66577bd5fa02a29c30407e81","Femail","British","Secondary School","2024-11-07_15h03.49.991","9_to_16",21,"Ex15","Ex11",3.091666667,7.9363
"parID_4","66577bd5fa02a29c30407e81","Femail","British","Secondary School","2024-11-07_15h03.49.991","9_to_16",22,"Ex10","Ex11",1.083333333,2.0452
"parID_4","66577bd5fa02a29c30407e81","Femail","British","Secondary School","2024-11-07_15h03.49.991","9_to_16",23,"Ex13","Ex11",1.216666667,2.032
"parID_4","66577bd5fa02a29c30407e81","Femail","British","Secondary School","2024-11-07_15h03.49.991","9_to_16",24,"Ex14","Ex9",3.866666667,4.1932
"parID_4","66577bd5fa02a29c30407e81","Femail","British","Secondary School","2024-11-07_15h03.49.991","9_to_16",25,"Ex15","Ex10",2.233333333,2.0562
"parID_4","66577bd5fa02a29c30407e81","Femail","British","Secondary School","2024-11-07_15h03.49.991","9_to_16",26,"Ex11","Ex10",1.033333333,1.8392
"parID_4","66577bd5fa02a29c30407e81","Femail","British","Secondary School","2024-11-07_15h03.49.991","9_to_16",27,"Ex11","Ex13",1.058333333,4.4081
"parID_4","66577bd5fa02a29c30407e81","Femail","British","Secondary School","2024-11-07_15h03.49.991","9_to_16",28,"Ex16","Ex9",3.033333333,3.5504
"parID_4","66577bd5fa02a29c30407e81","Femail","British","Secondary School","2024-11-07_15h03.49.991","9_to_16",29,"Ex10","Ex15",1.05,4.5493
"parID_4","66577bd5fa02a29c30407e81","Femail","British","Secondary School","2024-11-07_15h03.49.991","9_to_16",30,"Ex10","Ex9",1.05,1.2567
"parID_4","66577bd5fa02a29c30407e81","Femail","British","Secondary School","2024-11-07_15h03.49.991","9_to_16",31,"Ex9","Ex16",3.075,3.3064
"parID_4","66577bd5fa02a29c30407e81","Femail","British","Secondary School","2024-11-07_15h03.49.991","9_to_16",32,"Ex9","Ex13",2.933333333,4.1201
"parID_4","66577bd5fa02a29c30407e81","Femail","British","Secondary School","2024-11-07_15h03.49.991","9_to_16",33,"Ex12","Ex14",4.941666667,5.5889
"parID_4","66577bd5fa02a29c30407e81","Femail","British","Secondary School","2024-11-07_15h03.49.991","9_to_16",34,"Ex14","Ex13",2.975,3.0701
"parID_4","66577bd5fa02a29c30407e81","Femail","British","Secondary School","2024-11-07_15h03.49.991","9_to_16",35,"Ex16","Ex14",4.075,3.7465
"parID_4","66577bd5fa02a29c30407e81","Femail","British","Secondary School","2024-11-07_15h03.49.991","9_to_16",36,"Ex16","Ex12",5.933333333,2.0886
"parID_4","66577bd5fa02a29c30407e81","Femail","British","Secondary School","2024-11-07_15h03.49.991","9_to_16",37,"Ex12","Ex10",1.008333333,1.7387
"parID_4","66577bd5fa02a29c30407e81","Femail","British","Secondary School","2024-11-07_15h03.49.991","9_to_16",38,"Ex10","Ex12",1.166666667,2.2933
"parID_4","66577bd5fa02a29c30407e81","Femail","British","Secondary School","2024-11-07_15h03.49.991","9_to_16",39,"Ex15","Ex12",1.125,3.8043
"parID_4","66577bd5fa02a29c30407e81","Femail","British","Secondary School","2024-11-07_15h03.49.991","9_to_16",40,"Ex11","Ex14",4.1,6.4216
"parID_4","66577bd5fa02a29c30407e81","Femail","British","Secondary School","2024-11-07_15h03.49.991","9_to_16",41,"Ex12","Ex15",1.933333333,3.4886
"parID_4","66577bd5fa02a29c30407e81","Femail","British","Secondary School","2024-11-07_15h03.49.991","9_to_16",42,"Ex15","Ex16",1.925,3.8888
"parID_4","66577bd5fa02a29c30407e81","Femail","British","Secondary School","2024-11-07_15h03.49.991","9_to_16",43,"Ex16","Ex13",2.058333333,3.0723
"parID_4","66577bd5fa02a29c30407e81","Femail","British","Secondary School","2024-11-07_15h03.49.991","9_to_16",44,"Ex12","Ex11",4.983333333,2.0589
"parID_4","66577bd5fa02a29c30407e81","Femail","British","Secondary School","2024-11-07_15h03.49.991","9_to_16",45,"Ex14","Ex11",5.025,1.578
"parID_4","66577bd5fa02a29c30407e81","Femail","British","Secondary School","2024-11-07_15h03.49.991","9_to_16",46,"Ex16","Ex10",1.091666667,1.8449
"parID_4","66577bd5fa02a29c30407e81","Femail","British","Secondary School","2024-11-07_15h03.49.991","9_to_16",47,"Ex10","Ex16",1,1.873
"parID_4","66577bd5fa02a29c30407e81","Femail","British","Secondary School","2024-11-07_15h03.49.991","9_to_16",48,"Ex12","Ex13",2.983333333,3.6791
"parID_4","66577bd5fa02a29c30407e81","Femail","British","Secondary School","2024-11-07_15h03.49.991","9_to_16",49,"Ex15","Ex13",1.125,1.7239
"parID_4","66577bd5fa02a29c30407e81","Femail","British","Secondary School","2024-11-07_15h03.49.991","9_to_16",50,"Ex12","Ex16",3.175,1.7803
"parID_4","66577bd5fa02a29c30407e81","Femail","British","Secondary School","2024-11-07_15h03.49.991","9_to_16",51,"Ex15","Ex14",1.616666667,2.2641
"parID_4","66577bd5fa02a29c30407e81","Femail","British","Secondary School","2024-11-07_15h03.49.991","9_to_16",52,"Ex9","Ex14",4.333333333,1.8548
"parID_4","66577bd5fa02a29c30407e81","Femail","British","Secondary School","2024-11-07_15h03.49.991","9_to_16",53,"Ex13","Ex16",3.225,1.7999
"parID_4","66577bd5fa02a29c30407e81","Femail","British","Secondary School","2024-11-07_15h03.49.991","9_to_16",54,"Ex14","Ex15",2.366666667,3.1948
"parID_4","66577bd5fa02a29c30407e81","Femail","British","Secondary School","2024-11-07_15h03.49.991","9_to_16",55,"Ex13","Ex10",1.066666667,1.8514
"parID_5","5b0b369230d5620001553596","Female","British","Some college","2024-11-07_15h06.38.452","9_to_16",1,"Ex14","Ex9",1.05,4.371
"parID_5","5b0b369230d5620001553596","Female","British","Some college","2024-11-07_15h06.38.452","9_to_16",2,"Ex10","Ex13",1.008333333,2.556
"parID_5","5b0b369230d5620001553596","Female","British","Some college","2024-11-07_15h06.38.452","9_to_16",3,"Ex12","Ex14",1.975,3.393
"parID_5","5b0b369230d5620001553596","Female","British","Some college","2024-11-07_15h06.38.452","9_to_16",4,"Ex15","Ex14",1.6,2.548
"parID_5","5b0b369230d5620001553596","Female","British","Some college","2024-11-07_15h06.38.452","9_to_16",5,"Ex10","Ex15",1.641666667,2.297
"parID_5","5b0b369230d5620001553596","Female","British","Some college","2024-11-07_15h06.38.452","9_to_16",6,"Ex9","Ex12",1.241666667,2.571
"parID_5","5b0b369230d5620001553596","Female","British","Some college","2024-11-07_15h06.38.452","9_to_16",7,"Ex14","Ex12",1.4,2.306
"parID_5","5b0b369230d5620001553596","Female","British","Some college","2024-11-07_15h06.38.452","9_to_16",8,"Ex13","Ex12",1,2.382
"parID_5","5b0b369230d5620001553596","Female","British","Some college","2024-11-07_15h06.38.452","9_to_16",9,"Ex10","Ex16",1,2.175
"parID_5","5b0b369230d5620001553596","Female","British","Some college","2024-11-07_15h06.38.452","9_to_16",10,"Ex15","Ex10",1.725,1.777
"parID_5","5b0b369230d5620001553596","Female","British","Some college","2024-11-07_15h06.38.452","9_to_16",11,"Ex11","Ex9",1,2.99
"parID_5","5b0b369230d5620001553596","Female","British","Some college","2024-11-07_15h06.38.452","9_to_16",12,"Ex13","Ex16",1,2.113
"parID_5","5b0b369230d5620001553596","Female","British","Some college","2024-11-07_15h06.38.452","9_to_16",13,"Ex12","Ex15",1,2.739
"parID_5","5b0b369230d5620001553596","Female","British","Some college","2024-11-07_15h06.38.452","9_to_16",14,"Ex10","Ex12",1.008333333,1.772
"parID_5","5b0b369230d5620001553596","Female","British","Some college","2024-11-07_15h06.38.452","9_to_16",15,"Ex12","Ex13",1,1.945
"parID_5","5b0b369230d5620001553596","Female","British","Some college","2024-11-07_15h06.38.452","9_to_16",16,"Ex13","Ex10",1,1.973
"parID_5","5b0b369230d5620001553596","Female","British","Some college","2024-11-07_15h06.38.452","9_to_16",17,"Ex9","Ex16",1.575,1.863
"parID_5","5b0b369230d5620001553596","Female","British","Some college","2024-11-07_15h06.38.452","9_to_16",18,"Ex14","Ex11",1,2.722
"parID_5","5b0b369230d5620001553596","Female","British","Some college","2024-11-07_15h06.38.452","9_to_16",19,"Ex12","Ex9",1.641666667,2.19
"parID_5","5b0b369230d5620001553596","Female","British","Some college","2024-11-07_15h06.38.452","9_to_16",20,"Ex12","Ex10",1,1.714
"parID_5","5b0b369230d5620001553596","Female","British","Some college","2024-11-07_15h06.38.452","9_to_16",21,"Ex11","Ex15",4.491666667,3.885
"parID_5","5b0b369230d5620001553596","Female","British","Some college","2024-11-07_15h06.38.452","9_to_16",22,"Ex16","Ex14",1,1.747
"parID_5","5b0b369230d5620001553596","Female","British","Some college","2024-11-07_15h06.38.452","9_to_16",23,"Ex15","Ex16",1.016666667,1.547
"parID_5","5b0b369230d5620001553596","Female","British","Some college","2024-11-07_15h06.38.452","9_to_16",24,"Ex11","Ex14",1.083333333,1.727
"parID_5","5b0b369230d5620001553596","Female","British","Some college","2024-11-07_15h06.38.452","9_to_16",25,"Ex10","Ex9",1.1,1.512
"parID_5","5b0b369230d5620001553596","Female","British","Some college","2024-11-07_15h06.38.452","9_to_16",26,"Ex15","Ex12",1.033333333,1.627
"parID_5","5b0b369230d5620001553596","Female","British","Some college","2024-11-07_15h06.38.452","9_to_16",27,"Ex9","Ex10",1.041666667,1.382
"parID_5","5b0b369230d5620001553596","Female","British","Some college","2024-11-07_15h06.38.452","9_to_16",28,"Ex14","Ex10",2.033333333,2.097
"parID_5","5b0b369230d5620001553596","Female","British","Some college","2024-11-07_15h06.38.452","9_to_16",29,"Ex15","Ex9",1.05,1.691
"parID_5","5b0b369230d5620001553596","Female","British","Some college","2024-11-07_15h06.38.452","9_to_16",30,"Ex9","Ex15",1.008333333,1.442
"parID_5","5b0b369230d5620001553596","Female","British","Some college","2024-11-07_15h06.38.452","9_to_16",31,"Ex11","Ex13",1.05,1.772
"parID_5","5b0b369230d5620001553596","Female","British","Some college","2024-11-07_15h06.38.452","9_to_16",32,"Ex15","Ex11",2.425,1.823
"parID_5","5b0b369230d5620001553596","Female","British","Some college","2024-11-07_15h06.38.452","9_to_16",33,"Ex12","Ex11",1.025,2.838
"parID_5","5b0b369230d5620001553596","Female","British","Some college","2024-11-07_15h06.38.452","9_to_16",34,"Ex14","Ex15",1.066666667,1.705
"parID_5","5b0b369230d5620001553596","Female","British","Some college","2024-11-07_15h06.38.452","9_to_16",35,"Ex13","Ex15",1.05,1.557
"parID_5","5b0b369230d5620001553596","Female","British","Some college","2024-11-07_15h06.38.452","9_to_16",36,"Ex9","Ex14",1.066666667,2.008
"parID_5","5b0b369230d5620001553596","Female","British","Some college","2024-11-07_15h06.38.452","9_to_16",37,"Ex16","Ex13",1.433333333,2.072
"parID_5","5b0b369230d5620001553596","Female","British","Some college","2024-11-07_15h06.38.452","9_to_16",38,"Ex13","Ex11",1.075,1.639
"parID_5","5b0b369230d5620001553596","Female","British","Some college","2024-11-07_15h06.38.452","9_to_16",39,"Ex11","Ex12",1.075,1.329
"parID_5","5b0b369230d5620001553596","Female","British","Some college","2024-11-07_15h06.38.452","9_to_16",40,"Ex13","Ex9",1.833333333,1.67
"parID_5","5b0b369230d5620001553596","Female","British","Some college","2024-11-07_15h06.38.452","9_to_16",41,"Ex10","Ex14",1.891666667,1.729
"parID_5","5b0b369230d5620001553596","Female","British","Some college","2024-11-07_15h06.38.452","9_to_16",42,"Ex9","Ex13",1.891666667,1.621
"parID_5","5b0b369230d5620001553596","Female","British","Some college","2024-11-07_15h06.38.452","9_to_16",43,"Ex16","Ex12",1.866666667,5.609
"parID_5","5b0b369230d5620001553596","Female","British","Some college","2024-11-07_15h06.38.452","9_to_16",44,"Ex11","Ex10",1.141666667,4.674
"parID_5","5b0b369230d5620001553596","Female","British","Some college","2024-11-07_15h06.38.452","9_to_16",45,"Ex16","Ex10",1.016666667,2.428
"parID_5","5b0b369230d5620001553596","Female","British","Some college","2024-11-07_15h06.38.452","9_to_16",46,"Ex11","Ex16",1.016666667,1.806
"parID_5","5b0b369230d5620001553596","Female","British","Some college","2024-11-07_15h06.38.452","9_to_16",47,"Ex16","Ex11",1.066666667,1.687
"parID_5","5b0b369230d5620001553596","Female","British","Some college","2024-11-07_15h06.38.452","9_to_16",48,"Ex9","Ex11",1.066666667,1.539
"parID_5","5b0b369230d5620001553596","Female","British","Some college","2024-11-07_15h06.38.452","9_to_16",49,"Ex12","Ex16",2.525,3.039
"parID_5","5b0b369230d5620001553596","Female","British","Some college","2024-11-07_15h06.38.452","9_to_16",50,"Ex14","Ex16",1.141666667,1.873
"parID_5","5b0b369230d5620001553596","Female","British","Some college","2024-11-07_15h06.38.452","9_to_16",51,"Ex15","Ex13",1.05,1.622
"parID_5","5b0b369230d5620001553596","Female","British","Some college","2024-11-07_15h06.38.452","9_to_16",52,"Ex13","Ex14",1.05,1.238
"parID_5","5b0b369230d5620001553596","Female","British","Some college","2024-11-07_15h06.38.452","9_to_16",53,"Ex16","Ex9",1.6,1.783
"parID_5","5b0b369230d5620001553596","Female","British","Some college","2024-11-07_15h06.38.452","9_to_16",54,"Ex14","Ex13",1.091666667,2.222
"parID_5","5b0b369230d5620001553596","Female","British","Some college","2024-11-07_15h06.38.452","9_to_16",55,"Ex10","Ex11",1,1.505
"parID_5","5b0b369230d5620001553596","Female","British","Some college","2024-11-07_15h06.38.452","1_to_8",1,"Ex7","Ex6",6.416666667,5.432
"parID_5","5b0b369230d5620001553596","Female","British","Some college","2024-11-07_15h06.38.452","1_to_8",2,"Ex6","Ex2",3.275,2.206
"parID_5","5b0b369230d5620001553596","Female","British","Some college","2024-11-07_15h06.38.452","1_to_8",3,"Ex1","Ex8",1.875,2.365
"parID_5","5b0b369230d5620001553596","Female","British","Some college","2024-11-07_15h06.38.452","1_to_8",4,"Ex4","Ex1",2.233333333,1.926
"parID_5","5b0b369230d5620001553596","Female","British","Some college","2024-11-07_15h06.38.452","1_to_8",5,"Ex2","Ex1",1,2.412
"parID_5","5b0b369230d5620001553596","Female","British","Some college","2024-11-07_15h06.38.452","1_to_8",6,"Ex1","Ex3",1,1.972
"parID_5","5b0b369230d5620001553596","Female","British","Some college","2024-11-07_15h06.38.452","1_to_8",7,"Ex3","Ex1",1.508333333,1.692
"parID_5","5b0b369230d5620001553596","Female","British","Some college","2024-11-07_15h06.38.452","1_to_8",8,"Ex4","Ex2",1.4,1.619
"parID_5","5b0b369230d5620001553596","Female","British","Some college","2024-11-07_15h06.38.452","1_to_8",9,"Ex4","Ex7",2.7,1.806
"parID_5","5b0b369230d5620001553596","Female","British","Some college","2024-11-07_15h06.38.452","1_to_8",10,"Ex8","Ex2",1.05,1.929
"parID_5","5b0b369230d5620001553596","Female","British","Some college","2024-11-07_15h06.38.452","1_to_8",11,"Ex6","Ex3",5.65,2.071
"parID_5","5b0b369230d5620001553596","Female","British","Some college","2024-11-07_15h06.38.452","1_to_8",12,"Ex4","Ex3",1.541666667,2.273
"parID_5","5b0b369230d5620001553596","Female","British","Some college","2024-11-07_15h06.38.452","1_to_8",13,"Ex8","Ex5",1,1.928
"parID_5","5b0b369230d5620001553596","Female","British","Some college","2024-11-07_15h06.38.452","1_to_8",14,"Ex2","Ex3",1,1.948
"parID_5","5b0b369230d5620001553596","Female","British","Some college","2024-11-07_15h06.38.452","1_to_8",15,"Ex5","Ex3",1,1.563
"parID_5","5b0b369230d5620001553596","Female","British","Some college","2024-11-07_15h06.38.452","1_to_8",16,"Ex6","Ex8",1.075,1.678
"parID_5","5b0b369230d5620001553596","Female","British","Some college","2024-11-07_15h06.38.452","1_to_8",17,"Ex1","Ex5",1.075,1.126
"parID_5","5b0b369230d5620001553596","Female","British","Some college","2024-11-07_15h06.38.452","1_to_8",18,"Ex1","Ex4",1.075,1.84
"parID_5","5b0b369230d5620001553596","Female","British","Some college","2024-11-07_15h06.38.452","1_to_8",19,"Ex2","Ex7",2.833333333,2.938
"parID_5","5b0b369230d5620001553596","Female","British","Some college","2024-11-07_15h06.38.452","1_to_8",20,"Ex8","Ex3",1.008333333,1.43
"parID_5","5b0b369230d5620001553596","Female","British","Some college","2024-11-07_15h06.38.452","1_to_8",21,"Ex2","Ex4",1.016666667,1.727
"parID_5","5b0b369230d5620001553596","Female","British","Some college","2024-11-07_15h06.38.452","1_to_8",22,"Ex3","Ex6",1.016666667,1.572
"parID_5","5b0b369230d5620001553596","Female","British","Some college","2024-11-07_15h06.38.452","1_to_8",23,"Ex4","Ex5",1.016666667,1.505
"parID_5","5b0b369230d5620001553596","Female","British","Some college","2024-11-07_15h06.38.452","1_to_8",24,"Ex4","Ex6",1.475,3.028
"parID_5","5b0b369230d5620001553596","Female","British","Some college","2024-11-07_15h06.38.452","1_to_8",25,"Ex7","Ex1",1.425,1.926
"parID_5","5b0b369230d5620001553596","Female","British","Some college","2024-11-07_15h06.38.452","1_to_8",26,"Ex5","Ex7",1.333333333,2.805
"parID_5","5b0b369230d5620001553596","Female","British","Some college","2024-11-07_15h06.38.452","1_to_8",27,"Ex6","Ex4",1.716666667,2.038
"parID_5","5b0b369230d5620001553596","Female","British","Some college","2024-11-07_15h06.38.452","1_to_8",28,"Ex6","Ex5",1.016666667,2.321
"parID_5","5b0b369230d5620001553596","Female","British","Some college","2024-11-07_15h06.38.452","1_to_8",29,"Ex7","Ex8",1.008333333,1.579
"parID_5","5b0b369230d5620001553596","Female","British","Some college","2024-11-07_15h06.38.452","1_to_8",30,"Ex7","Ex2",2.108333333,2.425
"parID_5","5b0b369230d5620001553596","Female","British","Some college","2024-11-07_15h06.38.452","1_to_8",31,"Ex5","Ex6",1.083333333,1.623
"parID_5","5b0b369230d5620001553596","Female","British","Some college","2024-11-07_15h06.38.452","1_to_8",32,"Ex5","Ex4",1.083333333,1.571
"parID_5","5b0b369230d5620001553596","Female","British","Some college","2024-11-07_15h06.38.452","1_to_8",33,"Ex1","Ex6",1.083333333,1.715
"parID_5","5b0b369230d5620001553596","Female","British","Some college","2024-11-07_15h06.38.452","1_to_8",34,"Ex8","Ex4",1.083333333,1.42
"parID_5","5b0b369230d5620001553596","Female","British","Some college","2024-11-07_15h06.38.452","1_to_8",35,"Ex8","Ex1",1.083333333,1.692
"parID_5","5b0b369230d5620001553596","Female","British","Some college","2024-11-07_15h06.38.452","1_to_8",36,"Ex3","Ex8",1.083333333,1.304
"parID_5","5b0b369230d5620001553596","Female","British","Some college","2024-11-07_15h06.38.452","1_to_8",37,"Ex4","Ex8",1.083333333,1.376
"parID_5","5b0b369230d5620001553596","Female","British","Some college","2024-11-07_15h06.38.452","1_to_8",38,"Ex5","Ex2",1.083333333,1.673
"parID_5","5b0b369230d5620001553596","Female","British","Some college","2024-11-07_15h06.38.452","1_to_8",39,"Ex5","Ex1",1.083333333,1.141
"parID_5","5b0b369230d5620001553596","Female","British","Some college","2024-11-07_15h06.38.452","1_to_8",40,"Ex5","Ex8",1.083333333,1.298
"parID_5","5b0b369230d5620001553596","Female","British","Some college","2024-11-07_15h06.38.452","1_to_8",41,"Ex1","Ex7",2.108333333,1.976
"parID_5","5b0b369230d5620001553596","Female","British","Some college","2024-11-07_15h06.38.452","1_to_8",42,"Ex3","Ex7",2.091666667,2.407
"parID_5","5b0b369230d5620001553596","Female","British","Some college","2024-11-07_15h06.38.452","1_to_8",43,"Ex1","Ex2",1.058333333,1.624
"parID_5","5b0b369230d5620001553596","Female","British","Some college","2024-11-07_15h06.38.452","1_to_8",44,"Ex3","Ex4",1.008333333,1.439
"parID_5","5b0b369230d5620001553596","Female","British","Some college","2024-11-07_15h06.38.452","1_to_8",45,"Ex6","Ex1",2.525,2.108
"parID_5","5b0b369230d5620001553596","Female","British","Some college","2024-11-07_15h06.38.452","1_to_8",46,"Ex7","Ex3",2.958333333,1.892
"parID_5","5b0b369230d5620001553596","Female","British","Some college","2024-11-07_15h06.38.452","1_to_8",47,"Ex2","Ex5",1.108333333,3.813
"parID_5","5b0b369230d5620001553596","Female","British","Some college","2024-11-07_15h06.38.452","1_to_8",48,"Ex3","Ex2",1.058333333,3.206
"parID_5","5b0b369230d5620001553596","Female","British","Some college","2024-11-07_15h06.38.452","1_to_8",49,"Ex2","Ex8",1.041666667,1.952
"parID_5","5b0b369230d5620001553596","Female","British","Some college","2024-11-07_15h06.38.452","1_to_8",50,"Ex3","Ex5",1.041666667,1.615
"parID_5","5b0b369230d5620001553596","Female","British","Some college","2024-11-07_15h06.38.452","1_to_8",51,"Ex8","Ex6",1.633333333,2.306
"parID_5","5b0b369230d5620001553596","Female","British","Some college","2024-11-07_15h06.38.452","1_to_8",52,"Ex2","Ex6",3.883333333,1.811
"parID_5","5b0b369230d5620001553596","Female","British","Some college","2024-11-07_15h06.38.452","1_to_8",53,"Ex6","Ex7",6.108333333,2.972
"parID_5","5b0b369230d5620001553596","Female","British","Some college","2024-11-07_15h06.38.452","1_to_8",54,"Ex7","Ex5",1.058333333,1.815
"parID_5","5b0b369230d5620001553596","Female","British","Some college","2024-11-07_15h06.38.452","1_to_8",55,"Ex7","Ex4",1.675,2.424
"parID_6","6661b3bccfa516ea302f4556","male","british","high school","2024-11-07_19h12.30.793","9_to_16",1,"Ex11","Ex9",6.366666794,3.8004
"parID_6","6661b3bccfa516ea302f4556","male","british","high school","2024-11-07_19h12.30.793","9_to_16",2,"Ex10","Ex15",3.84166654,2.4935
"parID_6","6661b3bccfa516ea302f4556","male","british","high school","2024-11-07_19h12.30.793","9_to_16",3,"Ex11","Ex13",2.816666603,3.4722
"parID_6","6661b3bccfa516ea302f4556","male","british","high school","2024-11-07_19h12.30.793","9_to_16",4,"Ex12","Ex13",2.241666794,2.3104
"parID_6","6661b3bccfa516ea302f4556","male","british","high school","2024-11-07_19h12.30.793","9_to_16",5,"Ex16","Ex11",1.60833327,3.1866
"parID_6","6661b3bccfa516ea302f4556","male","british","high school","2024-11-07_19h12.30.793","9_to_16",6,"Ex14","Ex13",7.850000381,2.1164
"parID_6","6661b3bccfa516ea302f4556","male","british","high school","2024-11-07_19h12.30.793","9_to_16",7,"Ex13","Ex14",5.041666667,2.0745
"parID_6","6661b3bccfa516ea302f4556","male","british","high school","2024-11-07_19h12.30.793","9_to_16",8,"Ex12","Ex14",5.450000127,2.8584
"parID_6","6661b3bccfa516ea302f4556","male","british","high school","2024-11-07_19h12.30.793","9_to_16",9,"Ex9","Ex12",8.125,2.256
"parID_6","6661b3bccfa516ea302f4556","male","british","high school","2024-11-07_19h12.30.793","9_to_16",10,"Ex14","Ex10",1.85833327,2.1198
"parID_6","6661b3bccfa516ea302f4556","male","british","high school","2024-11-07_19h12.30.793","9_to_16",11,"Ex13","Ex16",1.5,2.0374
"parID_6","6661b3bccfa516ea302f4556","male","british","high school","2024-11-07_19h12.30.793","9_to_16",12,"Ex11","Ex16",2.600000064,2.205
"parID_6","6661b3bccfa516ea302f4556","male","british","high school","2024-11-07_19h12.30.793","9_to_16",13,"Ex16","Ex9",2.149999936,2.0662
"parID_6","6661b3bccfa516ea302f4556","male","british","high school","2024-11-07_19h12.30.793","9_to_16",14,"Ex15","Ex16",1.25,1.9552
"parID_6","6661b3bccfa516ea302f4556","male","british","high school","2024-11-07_19h12.30.793","9_to_16",15,"Ex15","Ex11",3.633333206,2.0057
"parID_6","6661b3bccfa516ea302f4556","male","british","high school","2024-11-07_19h12.30.793","9_to_16",16,"Ex10","Ex12",2.125,1.8781
"parID_6","6661b3bccfa516ea302f4556","male","british","high school","2024-11-07_19h12.30.793","9_to_16",17,"Ex14","Ex12",3.041666667,2.0559
"parID_6","6661b3bccfa516ea302f4556","male","british","high school","2024-11-07_19h12.30.793","9_to_16",18,"Ex16","Ex14",2.050000191,2.0999
"parID_6","6661b3bccfa516ea302f4556","male","british","high school","2024-11-07_19h12.30.793","9_to_16",19,"Ex16","Ex13",1.691666603,1.8277
"parID_6","6661b3bccfa516ea302f4556","male","british","high school","2024-11-07_19h12.30.793","9_to_16",20,"Ex11","Ex10",1.133333524,2.0647
"parID_6","6661b3bccfa516ea302f4556","male","british","high school","2024-11-07_19h12.30.793","9_to_16",21,"Ex15","Ex13",2.083333333,2.1279
"parID_6","6661b3bccfa516ea302f4556","male","british","high school","2024-11-07_19h12.30.793","9_to_16",22,"Ex13","Ex9",5.84166654,2.1299
"parID_6","6661b3bccfa516ea302f4556","male","british","high school","2024-11-07_19h12.30.793","9_to_16",23,"Ex9","Ex11",3.549999873,1.9676
"parID_6","6661b3bccfa516ea302f4556","male","british","high school","2024-11-07_19h12.30.793","9_to_16",24,"Ex14","Ex15",2.616666794,1.7875
"parID_6","6661b3bccfa516ea302f4556","male","british","high school","2024-11-07_19h12.30.793","9_to_16",25,"Ex12","Ex10",1.550000191,2.4046
"parID_6","6661b3bccfa516ea302f4556","male","british","high school","2024-11-07_19h12.30.793","9_to_16",26,"Ex9","Ex14",7.924999873,2.9349
"parID_6","6661b3bccfa516ea302f4556","male","british","high school","2024-11-07_19h12.30.793","9_to_16",27,"Ex12","Ex11",4.46666654,2.1719
"parID_6","6661b3bccfa516ea302f4556","male","british","high school","2024-11-07_19h12.30.793","9_to_16",28,"Ex11","Ex15",4.950000127,2.0491
"parID_6","6661b3bccfa516ea302f4556","male","british","high school","2024-11-07_19h12.30.793","9_to_16",29,"Ex16","Ex12",5.508333206,1.9044
"parID_6","6661b3bccfa516ea302f4556","male","british","high school","2024-11-07_19h12.30.793","9_to_16",30,"Ex11","Ex12",3.608333588,2.0783
"parID_6","6661b3bccfa516ea302f4556","male","british","high school","2024-11-07_19h12.30.793","9_to_16",31,"Ex10","Ex9",1.550000191,1.8988
"parID_6","6661b3bccfa516ea302f4556","male","british","high school","2024-11-07_19h12.30.793","9_to_16",32,"Ex16","Ex10",1.15833346,2.1159
"parID_6","6661b3bccfa516ea302f4556","male","british","high school","2024-11-07_19h12.30.793","9_to_16",33,"Ex9","Ex15",1.975000064,2.0719
"parID_6","6661b3bccfa516ea302f4556","male","british","high school","2024-11-07_19h12.30.793","9_to_16",34,"Ex15","Ex9",1.800000191,1.8277
"parID_6","6661b3bccfa516ea302f4556","male","british","high school","2024-11-07_19h12.30.793","9_to_16",35,"Ex14","Ex16",2.48333327,2.1003
"parID_6","6661b3bccfa516ea302f4556","male","british","high school","2024-11-07_19h12.30.793","9_to_16",36,"Ex13","Ex11",2.700000127,1.6532
"parID_6","6661b3bccfa516ea302f4556","male","british","high school","2024-11-07_19h12.30.793","9_to_16",37,"Ex15","Ex10",3.541666667,2.2564
"parID_6","6661b3bccfa516ea302f4556","male","british","high school","2024-11-07_19h12.30.793","9_to_16",38,"Ex10","Ex14",4.241666794,1.9201
"parID_6","6661b3bccfa516ea302f4556","male","british","high school","2024-11-07_19h12.30.793","9_to_16",39,"Ex14","Ex11",8.041666667,2.2879
"parID_6","6661b3bccfa516ea302f4556","male","british","high school","2024-11-07_19h12.30.793","9_to_16",40,"Ex9","Ex13",4.450000127,1.9219
"parID_6","6661b3bccfa516ea302f4556","male","british","high school","2024-11-07_19h12.30.793","9_to_16",41,"Ex10","Ex16",1.841666857,1.8056
"parID_6","6661b3bccfa516ea302f4556","male","british","high school","2024-11-07_19h12.30.793","9_to_16",42,"Ex9","Ex16",1.683333397,1.7726
"parID_6","6661b3bccfa516ea302f4556","male","british","high school","2024-11-07_19h12.30.793","9_to_16",43,"Ex10","Ex11",1.683333397,1.7711
"parID_6","6661b3bccfa516ea302f4556","male","british","high school","2024-11-07_19h12.30.793","9_to_16",44,"Ex10","Ex13",3.825000127,3.4866
"parID_6","6661b3bccfa516ea302f4556","male","british","high school","2024-11-07_19h12.30.793","9_to_16",45,"Ex11","Ex14",6.458333333,1.9052
"parID_6","6661b3bccfa516ea302f4556","male","british","high school","2024-11-07_19h12.30.793","9_to_16",46,"Ex9","Ex10",2.491666794,1.6817
"parID_6","6661b3bccfa516ea302f4556","male","british","high school","2024-11-07_19h12.30.793","9_to_16",47,"Ex12","Ex15",4.600000381,1.5941
"parID_6","6661b3bccfa516ea302f4556","male","british","high school","2024-11-07_19h12.30.793","9_to_16",48,"Ex15","Ex12",2.366666794,1.4547
"parID_6","6661b3bccfa516ea302f4556","male","british","high school","2024-11-07_19h12.30.793","9_to_16",49,"Ex14","Ex9",7.391667048,2.5939
"parID_6","6661b3bccfa516ea302f4556","male","british","high school","2024-11-07_19h12.30.793","9_to_16",50,"Ex15","Ex14",4.71666654,2.0553
"parID_6","6661b3bccfa516ea302f4556","male","british","high school","2024-11-07_19h12.30.793","9_to_16",51,"Ex12","Ex9",5.558333715,1.9453
"parID_6","6661b3bccfa516ea302f4556","male","british","high school","2024-11-07_19h12.30.793","9_to_16",52,"Ex12","Ex16",5.775000254,2.6214
"parID_6","6661b3bccfa516ea302f4556","male","british","high school","2024-11-07_19h12.30.793","9_to_16",53,"Ex13","Ex10",3.641667048,1.9833
"parID_6","6661b3bccfa516ea302f4556","male","british","high school","2024-11-07_19h12.30.793","9_to_16",54,"Ex13","Ex12",1.716666857,1.9223
"parID_6","6661b3bccfa516ea302f4556","male","british","high school","2024-11-07_19h12.30.793","9_to_16",55,"Ex13","Ex15",2.716666857,1.7717
"parID_6","6661b3bccfa516ea302f4556","male","british","high school","2024-11-07_19h12.30.793","1_to_8",1,"Ex5","Ex6",5.674999873,2.4405
"parID_6","6661b3bccfa516ea302f4556","male","british","high school","2024-11-07_19h12.30.793","1_to_8",2,"Ex2","Ex5",4.983333588,2.0883
"parID_6","6661b3bccfa516ea302f4556","male","british","high school","2024-11-07_19h12.30.793","1_to_8",3,"Ex1","Ex4",3.616666794,2.3406
"parID_6","6661b3bccfa516ea302f4556","male","british","high school","2024-11-07_19h12.30.793","1_to_8",4,"Ex1","Ex5",4.416666667,1.922
"parID_6","6661b3bccfa516ea302f4556","male","british","high school","2024-11-07_19h12.30.793","1_to_8",5,"Ex4","Ex5",5.191666921,1.9695
"parID_6","6661b3bccfa516ea302f4556","male","british","high school","2024-11-07_19h12.30.793","1_to_8",6,"Ex7","Ex4",4.116666794,1.7739
"parID_6","6661b3bccfa516ea302f4556","male","british","high school","2024-11-07_19h12.30.793","1_to_8",7,"Ex5","Ex2",5.866666794,2.2
"parID_6","6661b3bccfa516ea302f4556","male","british","high school","2024-11-07_19h12.30.793","1_to_8",8,"Ex3","Ex4",3.100000381,2.6076
"parID_6","6661b3bccfa516ea302f4556","male","british","high school","2024-11-07_19h12.30.793","1_to_8",9,"Ex3","Ex6",5.241666794,2.3078
"parID_6","6661b3bccfa516ea302f4556","male","british","high school","2024-11-07_19h12.30.793","1_to_8",10,"Ex8","Ex3",4.450000127,2.1413
"parID_6","6661b3bccfa516ea302f4556","male","british","high school","2024-11-07_19h12.30.793","1_to_8",11,"Ex4","Ex7",2.78333346,1.8237
"parID_6","6661b3bccfa516ea302f4556","male","british","high school","2024-11-07_19h12.30.793","1_to_8",12,"Ex2","Ex7",2.225000064,1.7315
"parID_6","6661b3bccfa516ea302f4556","male","british","high school","2024-11-07_19h12.30.793","1_to_8",13,"Ex1","Ex6",1.48333327,2.0711
"parID_6","6661b3bccfa516ea302f4556","male","british","high school","2024-11-07_19h12.30.793","1_to_8",14,"Ex2","Ex4",5.833333333,1.9877
"parID_6","6661b3bccfa516ea302f4556","male","british","high school","2024-11-07_19h12.30.793","1_to_8",15,"Ex6","Ex1",3.850000381,1.8113
"parID_6","6661b3bccfa516ea302f4556","male","british","high school","2024-11-07_19h12.30.793","1_to_8",16,"Ex6","Ex5",3.850000381,1.8727
"parID_6","6661b3bccfa516ea302f4556","male","british","high school","2024-11-07_19h12.30.793","1_to_8",17,"Ex5","Ex3",6.566666921,2.0711
"parID_6","6661b3bccfa516ea302f4556","male","british","high school","2024-11-07_19h12.30.793","1_to_8",18,"Ex2","Ex1",2,1.6888
"parID_6","6661b3bccfa516ea302f4556","male","british","high school","2024-11-07_19h12.30.793","1_to_8",19,"Ex8","Ex2",1.675000191,1.9076
"parID_6","6661b3bccfa516ea302f4556","male","british","high school","2024-11-07_19h12.30.793","1_to_8",20,"Ex5","Ex7",4.766667048,1.8504
"parID_6","6661b3bccfa516ea302f4556","male","british","high school","2024-11-07_19h12.30.793","1_to_8",21,"Ex1","Ex3",8.708333333,2.1055
"parID_6","6661b3bccfa516ea302f4556","male","british","high school","2024-11-07_19h12.30.793","1_to_8",22,"Ex5","Ex1",6.291666667,1.7425
"parID_6","6661b3bccfa516ea302f4556","male","british","high school","2024-11-07_19h12.30.793","1_to_8",23,"Ex6","Ex4",8.016667048,1.8714
"parID_6","6661b3bccfa516ea302f4556","male","british","high school","2024-11-07_19h12.30.793","1_to_8",24,"Ex2","Ex6",9.591667175,2.2184
"parID_6","6661b3bccfa516ea302f4556","male","british","high school","2024-11-07_19h12.30.793","1_to_8",25,"Ex1","Ex8",4.258333206,2.1712
"parID_6","6661b3bccfa516ea302f4556","male","british","high school","2024-11-07_19h12.30.793","1_to_8",26,"Ex4","Ex8",3.433333715,1.9714
"parID_6","6661b3bccfa516ea302f4556","male","british","high school","2024-11-07_19h12.30.793","1_to_8",27,"Ex6","Ex3",6.200000127,2.0717
"parID_6","6661b3bccfa516ea302f4556","male","british","high school","2024-11-07_19h12.30.793","1_to_8",28,"Ex5","Ex4",4.608333588,1.8705
"parID_6","6661b3bccfa516ea302f4556","male","british","high school","2024-11-07_19h12.30.793","1_to_8",29,"Ex2","Ex8",3.125,1.5765
"parID_6","6661b3bccfa516ea302f4556","male","british","high school","2024-11-07_19h12.30.793","1_to_8",30,"Ex6","Ex8",2.416666667,2.4891
"parID_6","6661b3bccfa516ea302f4556","male","british","high school","2024-11-07_19h12.30.793","1_to_8",31,"Ex7","Ex8",6.558333715,2.0107
"parID_6","6661b3bccfa516ea302f4556","male","british","high school","2024-11-07_19h12.30.793","1_to_8",32,"Ex4","Ex2",8.391666412,1.9984
"parID_6","6661b3bccfa516ea302f4556","male","british","high school","2024-11-07_19h12.30.793","1_to_8",33,"Ex7","Ex6",5.275000254,1.9455
"parID_6","6661b3bccfa516ea302f4556","male","british","high school","2024-11-07_19h12.30.793","1_to_8",34,"Ex3","Ex8",7.600000381,2.879
"parID_6","6661b3bccfa516ea302f4556","male","british","high school","2024-11-07_19h12.30.793","1_to_8",35,"Ex1","Ex7",5.191666921,2.6215
"parID_6","6661b3bccfa516ea302f4556","male","british","high school","2024-11-07_19h12.30.793","1_to_8",36,"Ex1","Ex2",2.300000191,2.045
"parID_6","6661b3bccfa516ea302f4556","male","british","high school","2024-11-07_19h12.30.793","1_to_8",37,"Ex6","Ex2",9.325000763,2.1059
"parID_6","6661b3bccfa516ea302f4556","male","british","high school","2024-11-07_19h12.30.793","1_to_8",38,"Ex3","Ex7",4.433333715,2.0656
"parID_6","6661b3bccfa516ea302f4556","male","british","high school","2024-11-07_19h12.30.793","1_to_8",39,"Ex4","Ex3",3.641667048,1.9048
"parID_6","6661b3bccfa516ea302f4556","male","british","high school","2024-11-07_19h12.30.793","1_to_8",40,"Ex7","Ex1",2.691666603,2.1213
"parID_6","6661b3bccfa516ea302f4556","male","british","high school","2024-11-07_19h12.30.793","1_to_8",41,"Ex6","Ex7",2.26666673,1.8213
"parID_6","6661b3bccfa516ea302f4556","male","british","high school","2024-11-07_19h12.30.793","1_to_8",42,"Ex4","Ex1",5.15833346,1.8387
"parID_6","6661b3bccfa516ea302f4556","male","british","high school","2024-11-07_19h12.30.793","1_to_8",43,"Ex5","Ex8",6.058333715,2.1219
"parID_6","6661b3bccfa516ea302f4556","male","british","high school","2024-11-07_19h12.30.793","1_to_8",44,"Ex7","Ex3",3.308333715,1.9978
"parID_6","6661b3bccfa516ea302f4556","male","british","high school","2024-11-07_19h12.30.793","1_to_8",45,"Ex8","Ex4",2.708333333,1.8543
"parID_6","6661b3bccfa516ea302f4556","male","british","high school","2024-11-07_19h12.30.793","1_to_8",46,"Ex2","Ex3",4.758333206,1.8052
"parID_6","6661b3bccfa516ea302f4556","male","british","high school","2024-11-07_19h12.30.793","1_to_8",47,"Ex3","Ex1",4.441666921,2.088
"parID_6","6661b3bccfa516ea302f4556","male","british","high school","2024-11-07_19h12.30.793","1_to_8",48,"Ex7","Ex2",2.01666673,2.5985
"parID_6","6661b3bccfa516ea302f4556","male","british","high school","2024-11-07_19h12.30.793","1_to_8",49,"Ex3","Ex2",5.21666654,1.7144
"parID_6","6661b3bccfa516ea302f4556","male","british","high school","2024-11-07_19h12.30.793","1_to_8",50,"Ex8","Ex1",4.666666667,1.8107
"parID_6","6661b3bccfa516ea302f4556","male","british","high school","2024-11-07_19h12.30.793","1_to_8",51,"Ex4","Ex6",3.508333206,1.8879
"parID_6","6661b3bccfa516ea302f4556","male","british","high school","2024-11-07_19h12.30.793","1_to_8",52,"Ex8","Ex6",3.183333715,1.295
"parID_6","6661b3bccfa516ea302f4556","male","british","high school","2024-11-07_19h12.30.793","1_to_8",53,"Ex3","Ex5",2.416666667,1.7117
"parID_6","6661b3bccfa516ea302f4556","male","british","high school","2024-11-07_19h12.30.793","1_to_8",54,"Ex8","Ex5",6.96666654,1.9219
"parID_6","6661b3bccfa516ea302f4556","male","british","high school","2024-11-07_19h12.30.793","1_to_8",55,"Ex7","Ex5",4.75,2.5271
"parID_7","5cdee62f7f65ee001a9855ba",NA,NA,NA,"2024-11-07_15h03.25.842","9_to_16",1,"Ex13","Ex10",2.341666667,7.2892
"parID_7","5cdee62f7f65ee001a9855ba",NA,NA,NA,"2024-11-07_15h03.25.842","9_to_16",2,"Ex15","Ex13",2.683333333,8.4977
"parID_7","5cdee62f7f65ee001a9855ba",NA,NA,NA,"2024-11-07_15h03.25.842","9_to_16",3,"Ex13","Ex11",2.466666667,1.9301
"parID_7","5cdee62f7f65ee001a9855ba",NA,NA,NA,"2024-11-07_15h03.25.842","9_to_16",4,"Ex13","Ex12",2.433333333,1.6923
"parID_7","5cdee62f7f65ee001a9855ba",NA,NA,NA,"2024-11-07_15h03.25.842","9_to_16",5,"Ex12","Ex13",2.425,2.2746
"parID_7","5cdee62f7f65ee001a9855ba",NA,NA,NA,"2024-11-07_15h03.25.842","9_to_16",6,"Ex16","Ex13",2.416666667,2.0066
"parID_7","5cdee62f7f65ee001a9855ba",NA,NA,NA,"2024-11-07_15h03.25.842","9_to_16",7,"Ex14","Ex9",5.541666667,5.6983
"parID_7","5cdee62f7f65ee001a9855ba",NA,NA,NA,"2024-11-07_15h03.25.842","9_to_16",8,"Ex11","Ex12",4.6,3.463
"parID_7","5cdee62f7f65ee001a9855ba",NA,NA,NA,"2024-11-07_15h03.25.842","9_to_16",9,"Ex14","Ex12",5.983333333,3.3295
"parID_7","5cdee62f7f65ee001a9855ba",NA,NA,NA,"2024-11-07_15h03.25.842","9_to_16",10,"Ex11","Ex14",5.833333333,2.5291
"parID_7","5cdee62f7f65ee001a9855ba",NA,NA,NA,"2024-11-07_15h03.25.842","9_to_16",11,"Ex13","Ex14",4.2,2.8979
"parID_7","5cdee62f7f65ee001a9855ba",NA,NA,NA,"2024-11-07_15h03.25.842","9_to_16",12,"Ex12","Ex9",5.916666667,2.0936
"parID_7","5cdee62f7f65ee001a9855ba",NA,NA,NA,"2024-11-07_15h03.25.842","9_to_16",13,"Ex11","Ex9",5.683333333,1.5427
"parID_7","5cdee62f7f65ee001a9855ba",NA,NA,NA,"2024-11-07_15h03.25.842","9_to_16",14,"Ex10","Ex11",2.616666667,1.84
"parID_7","5cdee62f7f65ee001a9855ba",NA,NA,NA,"2024-11-07_15h03.25.842","9_to_16",15,"Ex10","Ex15",5.5,1.9043
"parID_7","5cdee62f7f65ee001a9855ba",NA,NA,NA,"2024-11-07_15h03.25.842","9_to_16",16,"Ex11","Ex16",4.358333333,1.8501
"parID_7","5cdee62f7f65ee001a9855ba",NA,NA,NA,"2024-11-07_15h03.25.842","9_to_16",17,"Ex12","Ex10",2.366666667,1.7416
"parID_7","5cdee62f7f65ee001a9855ba",NA,NA,NA,"2024-11-07_15h03.25.842","9_to_16",18,"Ex9","Ex10",1.641666667,1.5663
"parID_7","5cdee62f7f65ee001a9855ba",NA,NA,NA,"2024-11-07_15h03.25.842","9_to_16",19,"Ex14","Ex11",6.05,2.2845
"parID_7","5cdee62f7f65ee001a9855ba",NA,NA,NA,"2024-11-07_15h03.25.842","9_to_16",20,"Ex16","Ex9",2.883333333,1.985
"parID_7","5cdee62f7f65ee001a9855ba",NA,NA,NA,"2024-11-07_15h03.25.842","9_to_16",21,"Ex10","Ex12",2.158333333,1.8372
"parID_7","5cdee62f7f65ee001a9855ba",NA,NA,NA,"2024-11-07_15h03.25.842","9_to_16",22,"Ex13","Ex15",2.083333333,1.8204
"parID_7","5cdee62f7f65ee001a9855ba",NA,NA,NA,"2024-11-07_15h03.25.842","9_to_16",23,"Ex16","Ex10",1.65,1.6603
"parID_7","5cdee62f7f65ee001a9855ba",NA,NA,NA,"2024-11-07_15h03.25.842","9_to_16",24,"Ex11","Ex13",1.775,2.4378
"parID_7","5cdee62f7f65ee001a9855ba",NA,NA,NA,"2024-11-07_15h03.25.842","9_to_16",25,"Ex16","Ex12",6.016666667,4.5024
"parID_7","5cdee62f7f65ee001a9855ba",NA,NA,NA,"2024-11-07_15h03.25.842","9_to_16",26,"Ex10","Ex16",1.391666667,2.1638
"parID_7","5cdee62f7f65ee001a9855ba",NA,NA,NA,"2024-11-07_15h03.25.842","9_to_16",27,"Ex11","Ex15",6.016666667,2.3382
"parID_7","5cdee62f7f65ee001a9855ba",NA,NA,NA,"2024-11-07_15h03.25.842","9_to_16",28,"Ex12","Ex16",7.375,1.5996
"parID_7","5cdee62f7f65ee001a9855ba",NA,NA,NA,"2024-11-07_15h03.25.842","9_to_16",29,"Ex12","Ex14",3.55,2.0904
"parID_7","5cdee62f7f65ee001a9855ba",NA,NA,NA,"2024-11-07_15h03.25.842","9_to_16",30,"Ex16","Ex11",2.883333333,1.9173
"parID_7","5cdee62f7f65ee001a9855ba",NA,NA,NA,"2024-11-07_15h03.25.842","9_to_16",31,"Ex9","Ex16",6.041666667,1.8152
"parID_7","5cdee62f7f65ee001a9855ba",NA,NA,NA,"2024-11-07_15h03.25.842","9_to_16",32,"Ex11","Ex10",2.058333333,1.5418
"parID_7","5cdee62f7f65ee001a9855ba",NA,NA,NA,"2024-11-07_15h03.25.842","9_to_16",33,"Ex15","Ex14",5.041666667,1.9115
"parID_7","5cdee62f7f65ee001a9855ba",NA,NA,NA,"2024-11-07_15h03.25.842","9_to_16",34,"Ex14","Ex10",5.958333333,1.7919
"parID_7","5cdee62f7f65ee001a9855ba",NA,NA,NA,"2024-11-07_15h03.25.842","9_to_16",35,"Ex10","Ex9",2.508333333,2.6156
"parID_7","5cdee62f7f65ee001a9855ba",NA,NA,NA,"2024-11-07_15h03.25.842","9_to_16",36,"Ex13","Ex16",2.616666667,1.7771
"parID_7","5cdee62f7f65ee001a9855ba",NA,NA,NA,"2024-11-07_15h03.25.842","9_to_16",37,"Ex15","Ex9",3.383333333,2.3262
"parID_7","5cdee62f7f65ee001a9855ba",NA,NA,NA,"2024-11-07_15h03.25.842","9_to_16",38,"Ex15","Ex11",7.266666667,4.7441
"parID_7","5cdee62f7f65ee001a9855ba",NA,NA,NA,"2024-11-07_15h03.25.842","9_to_16",39,"Ex12","Ex15",4.958333333,1.9525
"parID_7","5cdee62f7f65ee001a9855ba",NA,NA,NA,"2024-11-07_15h03.25.842","9_to_16",40,"Ex15","Ex16",2.75,4.1968
"parID_7","5cdee62f7f65ee001a9855ba",NA,NA,NA,"2024-11-07_15h03.25.842","9_to_16",41,"Ex15","Ex12",2.691666667,1.6478
"parID_7","5cdee62f7f65ee001a9855ba",NA,NA,NA,"2024-11-07_15h03.25.842","9_to_16",42,"Ex14","Ex13",6.175,2.247
"parID_7","5cdee62f7f65ee001a9855ba",NA,NA,NA,"2024-11-07_15h03.25.842","9_to_16",43,"Ex14","Ex15",6.983333333,1.6835
"parID_7","5cdee62f7f65ee001a9855ba",NA,NA,NA,"2024-11-07_15h03.25.842","9_to_16",44,"Ex9","Ex13",7.808333333,1.9136
"parID_7","5cdee62f7f65ee001a9855ba",NA,NA,NA,"2024-11-07_15h03.25.842","9_to_16",45,"Ex14","Ex16",5.933333333,4.0982
"parID_7","5cdee62f7f65ee001a9855ba",NA,NA,NA,"2024-11-07_15h03.25.842","9_to_16",46,"Ex10","Ex14",7.483333333,2.5853
"parID_7","5cdee62f7f65ee001a9855ba",NA,NA,NA,"2024-11-07_15h03.25.842","9_to_16",47,"Ex12","Ex11",7.1,1.609
"parID_7","5cdee62f7f65ee001a9855ba",NA,NA,NA,"2024-11-07_15h03.25.842","9_to_16",48,"Ex9","Ex12",8.125,1.7106
"parID_7","5cdee62f7f65ee001a9855ba",NA,NA,NA,"2024-11-07_15h03.25.842","9_to_16",49,"Ex15","Ex10",6.05,2.7265
"parID_7","5cdee62f7f65ee001a9855ba",NA,NA,NA,"2024-11-07_15h03.25.842","9_to_16",50,"Ex9","Ex11",6.025,2.1591
"parID_7","5cdee62f7f65ee001a9855ba",NA,NA,NA,"2024-11-07_15h03.25.842","9_to_16",51,"Ex9","Ex14",6.066666667,2.1461
"parID_7","5cdee62f7f65ee001a9855ba",NA,NA,NA,"2024-11-07_15h03.25.842","9_to_16",52,"Ex16","Ex14",6.008333333,1.5321
"parID_7","5cdee62f7f65ee001a9855ba",NA,NA,NA,"2024-11-07_15h03.25.842","9_to_16",53,"Ex9","Ex15",5.85,2.7556
"parID_7","5cdee62f7f65ee001a9855ba",NA,NA,NA,"2024-11-07_15h03.25.842","9_to_16",54,"Ex13","Ex9",7.258333333,1.5215
"parID_7","5cdee62f7f65ee001a9855ba",NA,NA,NA,"2024-11-07_15h03.25.842","9_to_16",55,"Ex10","Ex13",6.025,2.6801
"parID_7","5cdee62f7f65ee001a9855ba",NA,NA,NA,"2024-11-07_15h03.25.842","1_to_8",1,"Ex5","Ex3",4.8,3.8599
"parID_7","5cdee62f7f65ee001a9855ba",NA,NA,NA,"2024-11-07_15h03.25.842","1_to_8",2,"Ex2","Ex7",4.45,1.7399
"parID_7","5cdee62f7f65ee001a9855ba",NA,NA,NA,"2024-11-07_15h03.25.842","1_to_8",3,"Ex4","Ex3",3.858333333,3.7615
"parID_7","5cdee62f7f65ee001a9855ba",NA,NA,NA,"2024-11-07_15h03.25.842","1_to_8",4,"Ex1","Ex3",3.7,3.2906
"parID_7","5cdee62f7f65ee001a9855ba",NA,NA,NA,"2024-11-07_15h03.25.842","1_to_8",5,"Ex6","Ex3",5.9,2.9401
"parID_7","5cdee62f7f65ee001a9855ba",NA,NA,NA,"2024-11-07_15h03.25.842","1_to_8",6,"Ex2","Ex1",3.933333333,1.9746
"parID_7","5cdee62f7f65ee001a9855ba",NA,NA,NA,"2024-11-07_15h03.25.842","1_to_8",7,"Ex6","Ex7",5.9,3.3418
"parID_7","5cdee62f7f65ee001a9855ba",NA,NA,NA,"2024-11-07_15h03.25.842","1_to_8",8,"Ex5","Ex6",5.95,2.6761
"parID_7","5cdee62f7f65ee001a9855ba",NA,NA,NA,"2024-11-07_15h03.25.842","1_to_8",9,"Ex2","Ex4",6.125,1.8108
"parID_7","5cdee62f7f65ee001a9855ba",NA,NA,NA,"2024-11-07_15h03.25.842","1_to_8",10,"Ex3","Ex2",3.541666667,2.5456
"parID_7","5cdee62f7f65ee001a9855ba",NA,NA,NA,"2024-11-07_15h03.25.842","1_to_8",11,"Ex6","Ex5",2.725,3.157
"parID_7","5cdee62f7f65ee001a9855ba",NA,NA,NA,"2024-11-07_15h03.25.842","1_to_8",12,"Ex1","Ex8",5.358333333,4.2261
"parID_7","5cdee62f7f65ee001a9855ba",NA,NA,NA,"2024-11-07_15h03.25.842","1_to_8",13,"Ex6","Ex1",4.891666667,1.9624
"parID_7","5cdee62f7f65ee001a9855ba",NA,NA,NA,"2024-11-07_15h03.25.842","1_to_8",14,"Ex1","Ex5",5.15,2.4548
"parID_7","5cdee62f7f65ee001a9855ba",NA,NA,NA,"2024-11-07_15h03.25.842","1_to_8",15,"Ex3","Ex7",5.725,3.1585
"parID_7","5cdee62f7f65ee001a9855ba",NA,NA,NA,"2024-11-07_15h03.25.842","1_to_8",16,"Ex2","Ex8",4.508333333,1.9396
"parID_7","5cdee62f7f65ee001a9855ba",NA,NA,NA,"2024-11-07_15h03.25.842","1_to_8",17,"Ex5","Ex1",5.516666667,1.7743
"parID_7","5cdee62f7f65ee001a9855ba",NA,NA,NA,"2024-11-07_15h03.25.842","1_to_8",18,"Ex3","Ex8",3.983333333,1.6969
"parID_7","5cdee62f7f65ee001a9855ba",NA,NA,NA,"2024-11-07_15h03.25.842","1_to_8",19,"Ex7","Ex5",6.408333333,1.8497
"parID_7","5cdee62f7f65ee001a9855ba",NA,NA,NA,"2024-11-07_15h03.25.842","1_to_8",20,"Ex4","Ex7",6.483333333,1.6505
"parID_7","5cdee62f7f65ee001a9855ba",NA,NA,NA,"2024-11-07_15h03.25.842","1_to_8",21,"Ex4","Ex2",7.208333333,2.2229
"parID_7","5cdee62f7f65ee001a9855ba",NA,NA,NA,"2024-11-07_15h03.25.842","1_to_8",22,"Ex2","Ex5",8.25,1.7165
"parID_7","5cdee62f7f65ee001a9855ba",NA,NA,NA,"2024-11-07_15h03.25.842","1_to_8",23,"Ex1","Ex4",7.583333333,1.561
"parID_7","5cdee62f7f65ee001a9855ba",NA,NA,NA,"2024-11-07_15h03.25.842","1_to_8",24,"Ex6","Ex8",4.033333333,1.8166
"parID_7","5cdee62f7f65ee001a9855ba",NA,NA,NA,"2024-11-07_15h03.25.842","1_to_8",25,"Ex1","Ex2",4.675,3.0749
"parID_7","5cdee62f7f65ee001a9855ba",NA,NA,NA,"2024-11-07_15h03.25.842","1_to_8",26,"Ex2","Ex3",5.45,1.9251
"parID_7","5cdee62f7f65ee001a9855ba",NA,NA,NA,"2024-11-07_15h03.25.842","1_to_8",27,"Ex1","Ex7",6.058333333,1.6982
"parID_7","5cdee62f7f65ee001a9855ba",NA,NA,NA,"2024-11-07_15h03.25.842","1_to_8",28,"Ex4","Ex5",6.725,1.7571
"parID_7","5cdee62f7f65ee001a9855ba",NA,NA,NA,"2024-11-07_15h03.25.842","1_to_8",29,"Ex7","Ex3",6.975,1.9853
"parID_7","5cdee62f7f65ee001a9855ba",NA,NA,NA,"2024-11-07_15h03.25.842","1_to_8",30,"Ex8","Ex5",6.591666667,1.9296
"parID_7","5cdee62f7f65ee001a9855ba",NA,NA,NA,"2024-11-07_15h03.25.842","1_to_8",31,"Ex8","Ex3",5.775,2.4988
"parID_7","5cdee62f7f65ee001a9855ba",NA,NA,NA,"2024-11-07_15h03.25.842","1_to_8",32,"Ex7","Ex8",6.225,2.5151
"parID_7","5cdee62f7f65ee001a9855ba",NA,NA,NA,"2024-11-07_15h03.25.842","1_to_8",33,"Ex8","Ex6",6.575,2.3233
"parID_7","5cdee62f7f65ee001a9855ba",NA,NA,NA,"2024-11-07_15h03.25.842","1_to_8",34,"Ex6","Ex4",8.091666667,1.7228
"parID_7","5cdee62f7f65ee001a9855ba",NA,NA,NA,"2024-11-07_15h03.25.842","1_to_8",35,"Ex7","Ex4",8.058333333,2.2408
"parID_7","5cdee62f7f65ee001a9855ba",NA,NA,NA,"2024-11-07_15h03.25.842","1_to_8",36,"Ex5","Ex7",8.166666667,1.6278
"parID_7","5cdee62f7f65ee001a9855ba",NA,NA,NA,"2024-11-07_15h03.25.842","1_to_8",37,"Ex3","Ex6",6.858333333,1.7638
"parID_7","5cdee62f7f65ee001a9855ba",NA,NA,NA,"2024-11-07_15h03.25.842","1_to_8",38,"Ex4","Ex6",6.541666667,1.999
"parID_7","5cdee62f7f65ee001a9855ba",NA,NA,NA,"2024-11-07_15h03.25.842","1_to_8",39,"Ex3","Ex4",3.791666667,2.2944
"parID_7","5cdee62f7f65ee001a9855ba",NA,NA,NA,"2024-11-07_15h03.25.842","1_to_8",40,"Ex7","Ex2",5.566666667,1.9617
"parID_7","5cdee62f7f65ee001a9855ba",NA,NA,NA,"2024-11-07_15h03.25.842","1_to_8",41,"Ex5","Ex8",6.225,1.862
"parID_7","5cdee62f7f65ee001a9855ba",NA,NA,NA,"2024-11-07_15h03.25.842","1_to_8",42,"Ex3","Ex1",7.583333333,1.7937
"parID_7","5cdee62f7f65ee001a9855ba",NA,NA,NA,"2024-11-07_15h03.25.842","1_to_8",43,"Ex7","Ex6",7.458333333,3.9461
"parID_7","5cdee62f7f65ee001a9855ba",NA,NA,NA,"2024-11-07_15h03.25.842","1_to_8",44,"Ex1","Ex6",7.116666667,1.6242
"parID_7","5cdee62f7f65ee001a9855ba",NA,NA,NA,"2024-11-07_15h03.25.842","1_to_8",45,"Ex4","Ex8",8.066666667,2.1982
"parID_7","5cdee62f7f65ee001a9855ba",NA,NA,NA,"2024-11-07_15h03.25.842","1_to_8",46,"Ex3","Ex5",6.1,1.7307
"parID_7","5cdee62f7f65ee001a9855ba",NA,NA,NA,"2024-11-07_15h03.25.842","1_to_8",47,"Ex8","Ex2",5.058333333,2.9979
"parID_7","5cdee62f7f65ee001a9855ba",NA,NA,NA,"2024-11-07_15h03.25.842","1_to_8",48,"Ex8","Ex4",6.325,1.8139
"parID_7","5cdee62f7f65ee001a9855ba",NA,NA,NA,"2024-11-07_15h03.25.842","1_to_8",49,"Ex4","Ex1",6.458333333,1.5962
"parID_7","5cdee62f7f65ee001a9855ba",NA,NA,NA,"2024-11-07_15h03.25.842","1_to_8",50,"Ex6","Ex2",6.883333333,2.9299
"parID_7","5cdee62f7f65ee001a9855ba",NA,NA,NA,"2024-11-07_15h03.25.842","1_to_8",51,"Ex8","Ex1",6.933333333,1.7012
"parID_7","5cdee62f7f65ee001a9855ba",NA,NA,NA,"2024-11-07_15h03.25.842","1_to_8",52,"Ex5","Ex4",7.05,1.8634
"parID_7","5cdee62f7f65ee001a9855ba",NA,NA,NA,"2024-11-07_15h03.25.842","1_to_8",53,"Ex5","Ex2",7.15,1.5351
"parID_7","5cdee62f7f65ee001a9855ba",NA,NA,NA,"2024-11-07_15h03.25.842","1_to_8",54,"Ex7","Ex1",7.325,1.6821
"parID_7","5cdee62f7f65ee001a9855ba",NA,NA,NA,"2024-11-07_15h03.25.842","1_to_8",55,"Ex2","Ex6",7.541666667,1.5986
"parID_8","5953d37b3d663c00011d233c","female","Scottish","HND","2024-11-07_15h05.13.588","1_to_8",1,"Ex2","Ex4",4.9,7.3294
"parID_8","5953d37b3d663c00011d233c","female","Scottish","HND","2024-11-07_15h05.13.588","1_to_8",2,"Ex7","Ex2",5.016666667,7.5736
"parID_8","5953d37b3d663c00011d233c","female","Scottish","HND","2024-11-07_15h05.13.588","1_to_8",3,"Ex4","Ex7",3.983333333,2.5907
"parID_8","5953d37b3d663c00011d233c","female","Scottish","HND","2024-11-07_15h05.13.588","1_to_8",4,"Ex4","Ex5",6.016666667,3.3942
